time,seconds_elapsed,z,y,x
1761315382447672800,0.2296728515625,0.0030542362947016954,0.013438640162348747,0.014049487188458443
1761315382466594600,0.248594482421875,0.0036650835536420345,0.013438640162348747,0.015271181240677834
1761315382485516300,0.267516357421875,0.0030542362947016954,0.012216945178806782,0.014660334214568138
1761315382504438300,0.286438232421875,0.0018325417768210173,0.009773556143045425,0.012216945178806782
1761315382523360000,0.305360107421875,0.0012216945178806782,0.007941014133393764,0.00916270911693573
1761315382542282000,0.324281982421875,0.0024433890357613564,0.008551862090826035,0.006719320081174374
1761315382561203700,0.34320361328125,0.0024433890357613564,0.007941014133393764,0.004886778071522713
1761315382580125400,0.36212548828125,0.0024433890357613564,0.00916270911693573,0.0036650835536420345
1761315382599047400,0.38104736328125,0.0024433890357613564,0.00916270911693573,0.004275931045413017
1761315382617969200,0.39996923828125,0.0018325417768210173,0.00916270911693573,0.005497625097632408
1761315382636891100,0.41889111328125,0.0006108472589403391,0.00916270911693573,0.005497625097632408
1761315382655812900,0.437812744140625,0,0.006719320081174374,0.0036650835536420345
1761315382674734600,0.456734619140625,0,0.004886778071522713,0.0030542362947016954
1761315382693656600,0.475656494140625,0,0.005497625097632408,0.0030542362947016954
1761315382712578300,0.494578369140625,-0.0006108472589403391,0.006108472589403391,0.0030542362947016954
1761315382731500300,0.513500244140625,-0.0006108472589403391,0.006108472589403391,0.0036650835536420345
1761315382750422000,0.532422119140625,0.0012216945178806782,0.004275931045413017,0.0030542362947016954
1761315382769343700,0.55134375,0.0030542362947016954,0.004886778071522713,0.004886778071522713
1761315382788265700,0.570265625,0.0036650835536420345,0.00916270911693573,0.009773556143045425
1761315382807187500,0.5891875,0.0006108472589403391,0.014049487188458443,0.013438640162348747
1761315382826109200,0.608109130859375,-0.0030542362947016954,0.01710372418165207,0.014049487188458443
1761315382845031200,0.62703125,-0.0018325417768210173,0.01588202826678753,0.011606098152697086
1761315382863953000,0.645952880859375,-0.0012216945178806782,0.013438640162348747,0.009773556143045425
1761315382882875000,0.664875,-0.0006108472589403391,0.010995250195264816,0.007941014133393764
1761315382901796600,0.683796630859375,-0.0012216945178806782,0.00916270911693573,0.006719320081174374
1761315382920718300,0.70271826171875,0,0.007330167107284069,0.004886778071522713
1761315382939640300,0.721640380859375,0.0024433890357613564,0.004275931045413017,0.004886778071522713
1761315382958562000,0.74056201171875,0.0036650835536420345,0,0.006108472589403391
1761315382977484000,0.759484130859375,0.0036650835536420345,-0.0012216945178806782,0.008551862090826035
1761315382996405800,0.77840576171875,0.0036650835536420345,0.0018325417768210173,0.01038440316915512
1761315383015327700,0.79732763671875,0.004275931045413017,0.0030542362947016954,0.012216945178806782
1761315383034249500,0.81624951171875,0.0036650835536420345,0.006719320081174374,0.014049487188458443
1761315383053171200,0.835171142578125,0.0018325417768210173,0.010995250195264816,0.01588202826678753
1761315383072093200,0.85409326171875,-0.0012216945178806782,0.012827792204916477,0.01588202826678753
1761315383091015000,0.873014892578125,0,0.013438640162348747,0.014049487188458443
1761315383109936600,0.8919365234375,-0.0018325417768210173,0.024433890357613564,0.015271181240677834
1761315383128858600,0.910858642578125,-0.0018325417768210173,0.023823043331503868,0.013438640162348747
1761315383147780400,0.9297802734375,-0.0030542362947016954,0.020157959312200546,0.012827792204916477
1761315383166702300,0.948702392578125,-0.0030542362947016954,0.015271181240677834,0.011606098152697086
1761315383185624000,0.9676240234375,-0.0018325417768210173,0.013438640162348747,0.012216945178806782
1761315383204545800,0.9865458984375,0.0012216945178806782,0.006719320081174374,0.012216945178806782
1761315383223467800,1.0054677734375,0.0030542362947016954,0.014049487188458443,0.01710372418165207
1761315383242389500,1.024389404296875,0.0024433890357613564,0.014660334214568138,0.017714571207761765
1761315383261311500,1.0433115234375,0.0018325417768210173,0.01588202826678753,0.01832541823387146
1761315383280233200,1.062233154296875,0.004886778071522713,0.006719320081174374,0.012827792204916477
1761315383299155000,1.081155029296875,0.006719320081174374,0.005497625097632408,0.011606098152697086
1761315383318077000,1.100076904296875,0.005497625097632408,0.006719320081174374,0.011606098152697086
1761315383336998700,1.11899853515625,0.0024433890357613564,0.009773556143045425,0.01038440316915512
1761315383355920600,1.137920654296875,0.0012216945178806782,0.011606098152697086,0.01038440316915512
1761315383374842400,1.15684228515625,0.0006108472589403391,0.012827792204916477,0.01038440316915512
1761315383393764000,1.17576416015625,0.0024433890357613564,0.010995250195264816,0.01038440316915512
1761315383412686000,1.19468603515625,0.0024433890357613564,0.01038440316915512,0.009773556143045425
1761315383431607800,1.21360791015625,0.0024433890357613564,0.01832541823387146,0.012827792204916477
1761315383450529500,1.232529541015625,0.0030542362947016954,0.01038440316915512,0.008551862090826035
1761315383469451500,1.251451416015625,0.0030542362947016954,0.00916270911693573,0.009773556143045425
1761315383488373200,1.270373291015625,0.0030542362947016954,0.004275931045413017,0.00916270911693573
1761315383507295200,1.289295166015625,0.0012216945178806782,0.0012216945178806782,0.006108472589403391
1761315383526217000,1.308217041015625,0.0012216945178806782,-0.008551862090826035,0.0012216945178806782
1761315383545138700,1.327138671875,0.0036650835536420345,-0.008551862090826035,-0.0012216945178806782
1761315383564060700,1.346060791015625,0.006108472589403391,-0.020157959312200546,-0.006719320081174374
1761315383582982400,1.364982421875,0.004886778071522713,-0.016492875292897224,-0.005497625097632408
1761315383601904400,1.383904296875,0.005497625097632408,-0.011606098152697086,-0.0024433890357613564
1761315383620826000,1.402826171875,0.006108472589403391,-0.0024433890357613564,0.0018325417768210173
1761315383639747800,1.421747802734375,0.006719320081174374,0.0036650835536420345,0.005497625097632408
1761315383658669800,1.440669921875,0.005497625097632408,0.009773556143045425,0.007941014133393764
1761315383677591600,1.459591552734375,0.004886778071522713,0.011606098152697086,0.01038440316915512
1761315383696513300,1.47851318359375,0.0024433890357613564,0.015271181240677834,0.010995250195264816
1761315383715435300,1.497435302734375,0.0012216945178806782,0.01588202826678753,0.011606098152697086
1761315383734357000,1.51635693359375,-0.0006108472589403391,0.01588202826678753,0.014049487188458443
1761315383753279000,1.535279052734375,-0.0018325417768210173,0.017714571207761765,0.014049487188458443
1761315383772200700,1.55420068359375,-0.0030542362947016954,0.01954711228609085,0.014660334214568138
1761315383791122700,1.573122802734375,0,0.018936265259981155,0.014660334214568138
1761315383810044400,1.59204443359375,0.0036650835536420345,0.01954711228609085,0.014660334214568138
1761315383828966100,1.610966064453125,0.006108472589403391,0.018936265259981155,0.014660334214568138
1761315383847888100,1.62988818359375,0.004275931045413017,0.017714571207761765,0.01588202826678753
1761315383866809900,1.648809814453125,0.0036650835536420345,0.01710372418165207,0.015271181240677834
1761315383885731600,1.667731689453125,0.0036650835536420345,0.014049487188458443,0.014049487188458443
1761315383904653600,1.686653564453125,0.0036650835536420345,0.010995250195264816,0.013438640162348747
1761315383923575300,1.7055751953125,0.006108472589403391,0.007941014133393764,0.010995250195264816
1761315383942497300,1.724497314453125,0.008551862090826035,0.005497625097632408,0.008551862090826035
1761315383961419000,1.7434189453125,0.01038440316915512,0.005497625097632408,0.007941014133393764
1761315383980340700,1.7623408203125,0.010995250195264816,0.007941014133393764,0.01038440316915512
1761315383999262700,1.7812626953125,0.011606098152697086,0.00916270911693573,0.014660334214568138
1761315384018184400,1.800184326171875,0.00916270911693573,0.013438640162348747,0.01832541823387146
1761315384037106400,1.8191064453125,0.007330167107284069,0.014049487188458443,0.018936265259981155
1761315384056028200,1.838028076171875,0.006108472589403391,0.014049487188458443,0.01832541823387146
1761315384074950000,1.856949951171875,0.005497625097632408,0.010995250195264816,0.015271181240677834
1761315384093871900,1.875871826171875,0.006108472589403391,0.006108472589403391,0.00916270911693573
1761315384112793600,1.894793701171875,0.007330167107284069,-0.0012216945178806782,0.0006108472589403391
1761315384131715300,1.91371533203125,0.008551862090826035,-0.011606098152697086,-0.008551862090826035
1761315384150637300,1.93263720703125,0.00916270911693573,-0.01710372418165207,-0.015271181240677834
1761315384169559000,1.95155908203125,0.006719320081174374,-0.01710372418165207,-0.01710372418165207
1761315384188481000,1.97048095703125,0.004886778071522713,-0.015271181240677834,-0.014660334214568138
1761315384207402800,1.98940283203125,0.0018325417768210173,-0.014660334214568138,-0.010995250195264816
1761315384226324500,2.008324462890625,0.0030542362947016954,-0.014660334214568138,-0.006108472589403391
1761315384245246500,2.02724658203125,0.0036650835536420345,-0.009773556143045425,0.0030542362947016954
1761315384264168200,2.046168212890625,0.005497625097632408,0.0012216945178806782,0.014049487188458443
1761315384283090200,2.065090087890625,0.005497625097632408,0.01588202826678753,0.023212196305394173
1761315384302012000,2.084011962890625,0.006108472589403391,0.025655584409832954,0.030542362481355667
1761315384320933600,2.10293359375,0.006108472589403391,0.028098974376916885,0.02993151545524597
1761315384339855600,2.121855712890625,0.006108472589403391,0.021379653364419937,0.026877280324697495
1761315384358777300,2.14077734375,0.004275931045413017,0.017714571207761765,0.023823043331503868
1761315384377699300,2.15969921875,0.0012216945178806782,0.01710372418165207,0.021379653364419937
1761315384396621000,2.17862109375,-0.0006108472589403391,0.01588202826678753,0.01954711228609085
1761315384415542800,2.197542724609375,0,0.012827792204916477,0.016492875292897224
1761315384434464800,2.21646484375,0.004886778071522713,0.00916270911693573,0.011606098152697086
1761315384453386500,2.235386474609375,0.007330167107284069,0.004886778071522713,0.013438640162348747
1761315384472308500,2.25430859375,0.00916270911693573,0.0036650835536420345,0.01832541823387146
1761315384491230200,2.273230224609375,0.009773556143045425,0.007330167107284069,0.022601349279284477
1761315384510152000,2.29215185546875,0.011606098152697086,0.011606098152697086,0.02626643143594265
1761315384529074000,2.311073974609375,0.013438640162348747,0.015271181240677834,0.03176405653357506
1761315384547995600,2.32999560546875,0.013438640162348747,0.01588202826678753,0.033596597611904144
1761315384566917400,2.34891748046875,0.012216945178806782,0.014660334214568138,0.03176405653357506
1761315384585839400,2.36783935546875,0.010995250195264816,0.014660334214568138,0.028098974376916885
1761315384604761000,2.386760986328125,0.011606098152697086,0.01038440316915512,0.023212196305394173
1761315384623683000,2.40568310546875,0.011606098152697086,0.006719320081174374,0.020157959312200546
1761315384642604800,2.424604736328125,0.014049487188458443,0.0036650835536420345,0.018936265259981155
1761315384661526500,2.443526611328125,0.01588202826678753,0.004886778071522713,0.017714571207761765
1761315384680448500,2.462448486328125,0.01588202826678753,0.006108472589403391,0.01954711228609085
1761315384699370200,2.481370361328125,0.013438640162348747,0.008551862090826035,0.022601349279284477
1761315384718292200,2.500292236328125,0.00916270911693573,0.013438640162348747,0.02504473738372326
1761315384737214000,2.5192138671875,0.006719320081174374,0.01710372418165207,0.024433890357613564
1761315384756135700,2.5381357421875,0.004275931045413017,0.01954711228609085,0.01954711228609085
1761315384775057700,2.5570576171875,0.0024433890357613564,0.018936265259981155,0.011606098152697086
1761315384793979400,2.5759794921875,0.0018325417768210173,0.017714571207761765,0.006108472589403391
1761315384812901400,2.5949013671875,-0.0006108472589403391,0.013438640162348747,0.0036650835536420345
1761315384831823000,2.613822998046875,-0.0024433890357613564,0.008551862090826035,0.0024433890357613564
1761315384850744800,2.632744873046875,0.0006108472589403391,0,0.0012216945178806782
1761315384869666800,2.651666748046875,0.004886778071522713,-0.0012216945178806782,0.006108472589403391
1761315384888588500,2.670588623046875,0.007941014133393764,0.0036650835536420345,0.012827792204916477
1761315384907510300,2.68951025390625,0.006719320081174374,0.012216945178806782,0.01832541823387146
1761315384926432300,2.708432373046875,0.007330167107284069,0.015271181240677834,0.020157959312200546
1761315384945354000,2.72735400390625,0.008551862090826035,0.014660334214568138,0.01588202826678753
1761315384964276000,2.74627587890625,0.00916270911693573,0.014049487188458443,0.01038440316915512
1761315384983197700,2.76519775390625,0.006719320081174374,0.014049487188458443,0.006108472589403391
1761315385002119400,2.784119384765625,0.0024433890357613564,0.013438640162348747,0.006108472589403391
1761315385021041400,2.80304150390625,-0.0024433890357613564,0.014049487188458443,0.007330167107284069
1761315385039963100,2.821963134765625,-0.004275931045413017,0.014660334214568138,0.008551862090826035
1761315385058884900,2.840884765625,-0.004886778071522713,0.020157959312200546,0.011606098152697086
1761315385077806800,2.859806884765625,-0.006108472589403391,0.023823043331503868,0.015271181240677834
1761315385096728600,2.878728515625,-0.007941014133393764,0.02626643143594265,0.020157959312200546
1761315385115650600,2.897650634765625,-0.007941014133393764,0.025655584409832954,0.021379653364419937
1761315385134572300,2.916572265625,-0.004886778071522713,0.021379653364419937,0.01832541823387146
1761315385153494000,2.935493896484375,0.0018325417768210173,0.014660334214568138,0.012216945178806782
1761315385172416000,2.954416015625,0.007330167107284069,0.006719320081174374,0.0030542362947016954
1761315385191337700,2.973337646484375,0.009773556143045425,-0.004886778071522713,-0.007330167107284069
1761315385210259700,2.992259765625,0.011606098152697086,-0.01588202826678753,-0.017714571207761765
1761315385229181400,3.011181396484375,0.011606098152697086,-0.026877280324697495,-0.031153209507465363
1761315385248103200,3.030103271484375,0.004275931045413017,-0.03787253051996231,-0.04581354558467865
1761315385267025200,3.049025146484375,-0.005497625097632408,-0.04337015375494957,-0.05497625470161438
1761315385285947000,3.06794677734375,-0.009773556143045425,-0.0525328628718853,-0.06719319522380829
1761315385304868600,3.08686865234375,-0.004886778071522713,-0.054365407675504684,-0.07635590434074402
1761315385323790600,3.10579052734375,-0.0006108472589403391,-0.05986303091049194,-0.0781884491443634
1761315385342712300,3.12471240234375,0.0006108472589403391,-0.061084724962711334,-0.07330167293548584
1761315385361634300,3.14363427734375,0.0018325417768210173,-0.05986303091049194,-0.0647498071193695
1761315385380556000,3.16255615234375,0.005497625097632408,-0.06047387793660164,-0.05741964280605316
1761315385399477800,3.181477783203125,0.006719320081174374,-0.05070032179355621,-0.04886778071522713
1761315385418399700,3.200399658203125,0.004886778071522713,-0.042759306728839874,-0.04459185153245926
1761315385437321500,3.219321533203125,0.0006108472589403391,-0.03665083646774292,-0.04092676565051079
1761315385456243500,3.238243408203125,-0.0036650835536420345,-0.028098974376916885,-0.03420744836330414
1761315385475165200,3.257165283203125,-0.006719320081174374,-0.021379653364419937,-0.02870982140302658
1761315385494087000,3.2760869140625,-0.007941014133393764,-0.017714571207761765,-0.025655584409832954
1761315385513009000,3.2950087890625,-0.011606098152697086,-0.01038440316915512,-0.024433890357613564
1761315385531930600,3.3139306640625,-0.014660334214568138,0.0018325417768210173,-0.02076880633831024
1761315385550852400,3.332852294921875,-0.016492875292897224,0.011606098152697086,-0.014049487188458443
1761315385569774300,3.3517744140625,-0.01710372418165207,0.020157959312200546,-0.006719320081174374
1761315385588696000,3.370696044921875,-0.01588202826678753,0.02076880633831024,-0.0006108472589403391
1761315385607618000,3.3896181640625,-0.015271181240677834,0.020157959312200546,0.0036650835536420345
1761315385626539800,3.408539794921875,-0.015271181240677834,0.01832541823387146,0.005497625097632408
1761315385645461800,3.427461669921875,-0.015271181240677834,0.017714571207761765,0.006108472589403391
1761315385664383500,3.446383544921875,-0.014049487188458443,0.01710372418165207,0.006719320081174374
1761315385683305200,3.46530517578125,-0.014660334214568138,0.018936265259981155,0.008551862090826035
1761315385702227200,3.484227294921875,-0.01588202826678753,0.025655584409832954,0.012216945178806782
1761315385721149000,3.50314892578125,-0.016492875292897224,0.03237490355968475,0.014049487188458443
1761315385740070700,3.522070556640625,-0.01954711228609085,0.038483377546072006,0.014660334214568138
1761315385758992600,3.54099267578125,-0.022601349279284477,0.04337015375494957,0.013438640162348747
1761315385777914400,3.559914306640625,-0.024433890357613564,0.04459185153245926,0.01038440316915512
1761315385796836000,3.578836181640625,-0.023823043331503868,0.04092676565051079,0.008551862090826035
1761315385815758000,3.597758056640625,-0.021990500390529633,0.037261683493852615,0.008551862090826035
1761315385834679800,3.6166796875,-0.021379653364419937,0.03787253051996231,0.012216945178806782
1761315385853601800,3.635601806640625,-0.020157959312200546,0.036039989441633224,0.01588202826678753
1761315385872523500,3.6545234375,-0.014660334214568138,0.02993151545524597,0.01588202826678753
1761315385891445500,3.673445556640625,-0.006719320081174374,0.021990500390529633,0.012827792204916477
1761315385910367200,3.6923671875,-0.0030542362947016954,0.01588202826678753,0.014660334214568138
1761315385929289000,3.7112890625,-0.0024433890357613564,0.014660334214568138,0.015271181240677834
1761315385948211000,3.7302109375,-0.0030542362947016954,0.014660334214568138,0.01588202826678753
1761315385967132700,3.749132568359375,-0.0036650835536420345,0.014049487188458443,0.013438640162348747
1761315385986054400,3.768054443359375,-0.0018325417768210173,0.01038440316915512,0.008551862090826035
1761315386004976400,3.786976318359375,-0.0018325417768210173,0.006719320081174374,0.004886778071522713
1761315386023898000,3.805898193359375,-0.0030542362947016954,0.005497625097632408,0.004275931045413017
1761315386042820000,3.824820068359375,-0.004275931045413017,0.006108472589403391,0.004275931045413017
1761315386061741800,3.843741943359375,-0.004275931045413017,0.005497625097632408,0.0018325417768210173
1761315386080663600,3.86266357421875,-0.004275931045413017,0.0036650835536420345,0.0012216945178806782
1761315386099585500,3.88158544921875,-0.0036650835536420345,0.007330167107284069,0.0012216945178806782
1761315386118507300,3.90050732421875,-0.0018325417768210173,0.009773556143045425,-0.0006108472589403391
1761315386137429000,3.919428955078125,0,0.011606098152697086,0.0012216945178806782
1761315386156351000,3.93835107421875,-0.0006108472589403391,0.012216945178806782,0.005497625097632408
1761315386175272700,3.957272705078125,-0.0024433890357613564,0.014660334214568138,0.00916270911693573
1761315386194194700,3.976194580078125,-0.0024433890357613564,0.01832541823387146,0.01038440316915512
1761315386213116400,3.995116455078125,-0.0018325417768210173,0.022601349279284477,0.012216945178806782
1761315386232038100,4.0140380859375,-0.0012216945178806782,0.022601349279284477,0.01038440316915512
1761315386250960100,4.032960205078125,-0.0006108472589403391,0.020157959312200546,0.007941014133393764
1761315386269881900,4.0518818359375,-0.0006108472589403391,0.01710372418165207,0.006719320081174374
1761315386288803800,4.070803955078125,-0.0012216945178806782,0.01710372418165207,0.007330167107284069
1761315386307725600,4.0897255859375,-0.0006108472589403391,0.01710372418165207,0.006108472589403391
1761315386326647300,4.108647216796875,0.0012216945178806782,0.017714571207761765,0.008551862090826035
1761315386345569300,4.1275693359375,-0.0006108472589403391,0.021379653364419937,0.01038440316915512
1761315386364491000,4.146490966796875,-0.004275931045413017,0.02076880633831024,0.01038440316915512
1761315386383412700,4.165412841796875,-0.005497625097632408,0.015271181240677834,0.006108472589403391
1761315386402334700,4.184334716796875,-0.004886778071522713,0.010995250195264816,0.0024433890357613564
1761315386421256400,4.20325634765625,-0.004275931045413017,0.008551862090826035,0.0012216945178806782
1761315386440178200,4.22217822265625,-0.0036650835536420345,0.006719320081174374,-0.0012216945178806782
1761315386459100200,4.24110009765625,-0.0018325417768210173,0.004886778071522713,-0.0024433890357613564
1761315386478022000,4.26002197265625,-0.0006108472589403391,0.0024433890357613564,-0.0012216945178806782
1761315386496943900,4.27894384765625,0.0006108472589403391,0,0
1761315386515865600,4.297865478515625,0.0006108472589403391,0,0.004275931045413017
1761315386534787600,4.31678759765625,0.0006108472589403391,0.0036650835536420345,0.007941014133393764
1761315386553709300,4.335709228515625,0.0024433890357613564,0.008551862090826035,0.008551862090826035
1761315386572631000,4.354631103515625,0.0036650835536420345,0.012827792204916477,0.010995250195264816
1761315386591553000,4.373552978515625,0.0018325417768210173,0.014660334214568138,0.014049487188458443
1761315386610474800,4.392474853515625,-0.0006108472589403391,0.016492875292897224,0.014049487188458443
1761315386629396500,4.411396484375,-0.0024433890357613564,0.017714571207761765,0.015271181240677834
1761315386648318500,4.430318359375,-0.0036650835536420345,0.017714571207761765,0.015271181240677834
1761315386667240200,4.449240234375,-0.0036650835536420345,0.01710372418165207,0.014049487188458443
1761315386686162200,4.468162109375,-0.0030542362947016954,0.013438640162348747,0.012827792204916477
1761315386705084000,4.487083984375,-0.0012216945178806782,0.011606098152697086,0.014660334214568138
1761315386724005600,4.506005615234375,-0.0018325417768210173,0.013438640162348747,0.015271181240677834
1761315386742927600,4.524927734375,-0.004275931045413017,0.01710372418165207,0.012827792204916477
1761315386761849300,4.543849365234375,-0.006719320081174374,0.020157959312200546,0.009773556143045425
1761315386780771300,4.562771240234375,-0.004886778071522713,0.021379653364419937,0.006108472589403391
1761315386799693000,4.581693115234375,-0.0018325417768210173,0.017714571207761765,0.005497625097632408
1761315386818614800,4.60061474609375,-0.0024433890357613564,0.014660334214568138,0.006108472589403391
1761315386837536800,4.619536865234375,-0.005497625097632408,0.015271181240677834,0.008551862090826035
1761315386856458500,4.63845849609375,-0.01038440316915512,0.017714571207761765,0.008551862090826035
1761315386875380200,4.657380126953125,-0.011606098152697086,0.018936265259981155,0.004275931045413017
1761315386894302200,4.67630224609375,-0.010995250195264816,0.01832541823387146,0.0024433890357613564
1761315386913224000,4.695223876953125,-0.01038440316915512,0.017714571207761765,-0.0012216945178806782
1761315386932146000,4.71414599609375,-0.009773556143045425,0.01710372418165207,-0.0036650835536420345
1761315386951067600,4.733067626953125,-0.009773556143045425,0.01588202826678753,-0.0018325417768210173
1761315386969989400,4.7519892578125,-0.008551862090826035,0.014049487188458443,0.0006108472589403391
1761315386988911400,4.770911376953125,-0.007330167107284069,0.008551862090826035,0.0012216945178806782
1761315387007833000,4.7898330078125,-0.005497625097632408,0.005497625097632408,-0.0006108472589403391
1761315387026755000,4.808755126953125,-0.004275931045413017,0.005497625097632408,0.0006108472589403391
1761315387045676800,4.8276767578125,-0.0018325417768210173,0.0036650835536420345,-0.0012216945178806782
1761315387064598500,4.8465986328125,0.0012216945178806782,0,-0.0018325417768210173
1761315387083520500,4.8655205078125,0.0024433890357613564,-0.005497625097632408,-0.0024433890357613564
1761315387102442200,4.884442138671875,0.0030542362947016954,-0.006719320081174374,-0.0030542362947016954
1761315387121364200,4.9033642578125,0.0030542362947016954,-0.004275931045413017,-0.004275931045413017
1761315387140286000,4.922285888671875,-0.0012216945178806782,0.0006108472589403391,-0.0030542362947016954
1761315387159207700,4.941207763671875,-0.006108472589403391,0.00916270911693573,-0.0018325417768210173
1761315387178129700,4.960129638671875,-0.009773556143045425,0.011606098152697086,-0.0012216945178806782
1761315387197051400,4.979051513671875,-0.012827792204916477,0.013438640162348747,0
1761315387215973400,4.997973388671875,-0.011606098152697086,0.014660334214568138,0.0018325417768210173
1761315387234895000,5.01689501953125,-0.00916270911693573,0.017714571207761765,0.0024433890357613564
1761315387253816800,5.03581689453125,-0.005497625097632408,0.022601349279284477,0.006719320081174374
1761315387272738800,5.05473876953125,-0.0036650835536420345,0.02626643143594265,0.014049487188458443
1761315387291660500,5.07366064453125,-0.0012216945178806782,0.028098974376916885,0.021379653364419937
1761315387310582500,5.09258251953125,-0.0012216945178806782,0.028098974376916885,0.02748812735080719
1761315387329504300,5.111504150390625,-0.0024433890357613564,0.02748812735080719,0.029320668429136276
1761315387348426000,5.130426025390625,-0.004886778071522713,0.023823043331503868,0.02504473738372326
1761315387367348000,5.149347900390625,-0.006108472589403391,0.01832541823387146,0.015271181240677834
1761315387386269700,5.168269775390625,-0.0024433890357613564,0.00916270911693573,0.004886778071522713
1761315387405191700,5.187191650390625,0.0012216945178806782,0.0012216945178806782,0.0006108472589403391
1761315387424113400,5.206113525390625,0.0030542362947016954,0.0006108472589403391,0.0036650835536420345
1761315387443035100,5.22503515625,0.004275931045413017,0.005497625097632408,0.007941014133393764
1761315387461957000,5.24395703125,0.0024433890357613564,0.00916270911693573,0.013438640162348747
1761315387480878800,5.26287890625,0.0018325417768210173,0.007941014133393764,0.013438640162348747
1761315387499800600,5.281800537109375,0.0036650835536420345,0.0006108472589403391,0.010995250195264816
1761315387518722600,5.30072265625,0.004275931045413017,-0.005497625097632408,0.01038440316915512
1761315387537644300,5.319644287109375,0.004275931045413017,-0.005497625097632408,0.009773556143045425
1761315387556566300,5.338566162109375,0.006719320081174374,-0.0012216945178806782,0.012216945178806782
1761315387575488000,5.357488037109375,0.009773556143045425,0.004886778071522713,0.020157959312200546
1761315387594410000,5.376409912109375,0.009773556143045425,0.013438640162348747,0.030542362481355667
1761315387613331700,5.395331787109375,0.005497625097632408,0.020157959312200546,0.03542914241552353
1761315387632253400,5.41425341796875,0.0006108472589403391,0.024433890357613564,0.03176405653357506
1761315387651175400,5.433175537109375,-0.0018325417768210173,0.022601349279284477,0.02626643143594265
1761315387670097200,5.45209716796875,-0.0030542362947016954,0.01832541823387146,0.016492875292897224
1761315387689019100,5.47101904296875,-0.0018325417768210173,0.01038440316915512,0.010995250195264816
1761315387707940900,5.48994091796875,-0.0024433890357613564,0.007330167107284069,0.009773556143045425
1761315387726862600,5.508862548828125,-0.0018325417768210173,0.006108472589403391,0.009773556143045425
1761315387745784600,5.52778466796875,-0.0012216945178806782,0.008551862090826035,0.009773556143045425
1761315387764706300,5.546706298828125,0.0006108472589403391,0.010995250195264816,0.009773556143045425
1761315387783628000,5.5656279296875,0.0024433890357613564,0.012216945178806782,0.010995250195264816
1761315387802550000,5.584550048828125,0.0030542362947016954,0.010995250195264816,0.014049487188458443
1761315387821471700,5.6034716796875,0.0024433890357613564,0.010995250195264816,0.017714571207761765
1761315387840393700,5.622393798828125,0.0006108472589403391,0.010995250195264816,0.016492875292897224
1761315387859315500,5.6413154296875,0,0.010995250195264816,0.014660334214568138
1761315387878237200,5.6602373046875,-0.0024433890357613564,0.00916270911693573,0.012216945178806782
1761315387897159200,5.6791591796875,-0.004886778071522713,0.00916270911693573,0.007941014133393764
1761315387916081000,5.698080810546875,-0.007330167107284069,0.007941014133393764,0.004886778071522713
1761315387935003000,5.7170029296875,-0.007941014133393764,0.007941014133393764,0
1761315387953924600,5.735924560546875,-0.006108472589403391,0.008551862090826035,-0.005497625097632408
1761315387972846600,5.7548466796875,-0.0030542362947016954,0.004275931045413017,-0.00916270911693573
1761315387991768300,5.773768310546875,-0.0030542362947016954,-0.0018325417768210173,-0.00916270911693573
1761315388010690000,5.79268994140625,-0.004275931045413017,-0.006719320081174374,-0.008551862090826035
1761315388029612000,5.811612060546875,-0.004886778071522713,-0.007330167107284069,-0.009773556143045425
1761315388048533800,5.83053369140625,-0.0030542362947016954,-0.006719320081174374,-0.011606098152697086
1761315388067455700,5.849455810546875,-0.0018325417768210173,-0.004275931045413017,-0.01038440316915512
1761315388086377500,5.86837744140625,-0.0018325417768210173,-0.0030542362947016954,-0.009773556143045425
1761315388105299200,5.88729931640625,-0.0018325417768210173,-0.004275931045413017,-0.007330167107284069
1761315388124221200,5.90622119140625,-0.0036650835536420345,-0.0024433890357613564,-0.0030542362947016954
1761315388143143000,5.925142822265625,-0.004275931045413017,0.0036650835536420345,-0.0024433890357613564
1761315388162065000,5.94406494140625,-0.005497625097632408,0.008551862090826035,-0.0018325417768210173
1761315388180986600,5.962986572265625,-0.007941014133393764,0.013438640162348747,-0.0018325417768210173
1761315388199908400,5.981908447265625,-0.009773556143045425,0.014660334214568138,-0.0018325417768210173
1761315388218830300,6.000830322265625,-0.011606098152697086,0.013438640162348747,-0.0024433890357613564
1761315388237752000,6.019751953125,-0.01038440316915512,0.01038440316915512,-0.005497625097632408
1761315388256674000,6.038674072265625,-0.007941014133393764,0.007941014133393764,-0.007941014133393764
1761315388275595800,6.057595703125,-0.005497625097632408,0.006719320081174374,-0.006719320081174374
1761315388294517500,6.076517578125,-0.0030542362947016954,0.0030542362947016954,-0.005497625097632408
1761315388313439500,6.095439453125,0,0.0030542362947016954,-0.0036650835536420345
1761315388332361200,6.114361328125,0.0018325417768210173,-0.0024433890357613564,-0.0036650835536420345
1761315388351283200,6.133283203125,0.0024433890357613564,-0.0024433890357613564,-0.0036650835536420345
1761315388370205000,6.152204833984375,0.0024433890357613564,-0.005497625097632408,-0.004275931045413017
1761315388389127000,6.171126953125,0.004275931045413017,-0.005497625097632408,-0.0018325417768210173
1761315388408048600,6.190048583984375,0.0018325417768210173,-0.004886778071522713,-0.0006108472589403391
1761315388426970400,6.208970458984375,-0.0012216945178806782,-0.0018325417768210173,-0.0018325417768210173
1761315388445892400,6.227892333984375,-0.0018325417768210173,0.004886778071522713,-0.0030542362947016954
1761315388464814000,6.24681396484375,-0.0024433890357613564,0.007941014133393764,-0.004275931045413017
1761315388483736000,6.265736083984375,-0.004275931045413017,0.013438640162348747,-0.0036650835536420345
1761315388502657800,6.28465771484375,-0.004275931045413017,0.014660334214568138,0.0012216945178806782
1761315388521579800,6.303579833984375,-0.004886778071522713,0.015271181240677834,0.007330167107284069
1761315388540501500,6.32250146484375,-0.005497625097632408,0.016492875292897224,0.01038440316915512
1761315388559423200,6.34142333984375,-0.0018325417768210173,0.01710372418165207,0.011606098152697086
1761315388578345200,6.36034521484375,-0.0012216945178806782,0.01954711228609085,0.014660334214568138
1761315388597267000,6.379266845703125,-0.0012216945178806782,0.01954711228609085,0.014049487188458443
1761315388616189000,6.39818896484375,-0.0006108472589403391,0.015271181240677834,0.013438640162348747
1761315388635110700,6.417110595703125,0,0.008551862090826035,0.01038440316915512
1761315388654032400,6.436032470703125,0,0.006108472589403391,0.006108472589403391
1761315388672954400,6.454954345703125,-0.0018325417768210173,0.006108472589403391,0.0024433890357613564
1761315388691876000,6.4738759765625,-0.0036650835536420345,0.006108472589403391,0.0006108472589403391
1761315388710798000,6.492798095703125,-0.004275931045413017,0.007330167107284069,0.0006108472589403391
1761315388729719800,6.5117197265625,-0.004886778071522713,0.008551862090826035,0.0012216945178806782
1761315388748641500,6.5306416015625,-0.0030542362947016954,0.007330167107284069,0.0006108472589403391
1761315388767563500,6.5495634765625,-0.0012216945178806782,0.005497625097632408,0.0018325417768210173
1761315388786485200,6.5684853515625,0.0006108472589403391,0.006719320081174374,0.005497625097632408
1761315388805407200,6.5874072265625,0.0006108472589403391,0.007941014133393764,0.00916270911693573
1761315388824329000,6.606328857421875,-0.0012216945178806782,0.00916270911693573,0.011606098152697086
1761315388843251000,6.6252509765625,-0.0018325417768210173,0.009773556143045425,0.011606098152697086
1761315388862172700,6.644172607421875,-0.0012216945178806782,0.007330167107284069,0.010995250195264816
1761315388881094400,6.663094482421875,0.0012216945178806782,0.007330167107284069,0.01038440316915512
1761315388900016400,6.682016357421875,-0.0012216945178806782,0.009773556143045425,0.008551862090826035
1761315388918938000,6.700938232421875,-0.0030542362947016954,0.010995250195264816,0.005497625097632408
1761315388937860000,6.719860107421875,-0.004886778071522713,0.013438640162348747,0.006108472589403391
1761315388956781800,6.73878173828125,-0.005497625097632408,0.014660334214568138,0.005497625097632408
1761315388975703600,6.75770361328125,-0.004275931045413017,0.012827792204916477,0.006108472589403391
1761315388994625500,6.77662548828125,-0.004275931045413017,0.014660334214568138,0.01038440316915512
1761315389013547300,6.79554736328125,-0.004275931045413017,0.01588202826678753,0.011606098152697086
1761315389032469200,6.81446923828125,-0.0024433890357613564,0.01832541823387146,0.011606098152697086
1761315389051391000,6.833390869140625,-0.0018325417768210173,0.017714571207761765,0.014049487188458443
1761315389070313000,6.85231298828125,-0.004275931045413017,0.018936265259981155,0.017714571207761765
1761315389089234700,6.871234619140625,-0.006719320081174374,0.020157959312200546,0.01832541823387146
1761315389108156400,6.890156494140625,-0.007941014133393764,0.018936265259981155,0.013438640162348747
1761315389127078400,6.909078369140625,-0.006719320081174374,0.015271181240677834,0.008551862090826035
1761315389146000100,6.928000244140625,-0.004886778071522713,0.009773556143045425,0.0036650835536420345
1761315389164922000,6.946922119140625,-0.0024433890357613564,0.006108472589403391,0
1761315389183843800,6.96584375,-0.0018325417768210173,0.0030542362947016954,-0.0012216945178806782
1761315389202765800,6.984765869140625,-0.0012216945178806782,-0.0018325417768210173,-0.0006108472589403391
1761315389221687600,7.0036875,-0.0012216945178806782,-0.0018325417768210173,-0.0012216945178806782
1761315389240609300,7.022609375,0,0,-0.0006108472589403391
1761315389259531300,7.04153125,-0.0012216945178806782,0.0024433890357613564,0.0024433890357613564
1761315389278453000,7.060452880859375,-0.0024433890357613564,0.009773556143045425,0.0030542362947016954
1761315389297375000,7.079375,-0.005497625097632408,0.011606098152697086,0.004275931045413017
1761315389316296700,7.098296630859375,-0.005497625097632408,0.011606098152697086,0.0036650835536420345
1761315389335218700,7.11721875,-0.005497625097632408,0.015271181240677834,0.005497625097632408
1761315389354140400,7.136140380859375,-0.005497625097632408,0.015271181240677834,0.004886778071522713
1761315389373062100,7.155062255859375,-0.004886778071522713,0.012827792204916477,0.006719320081174374
1761315389391984000,7.173984130859375,-0.004275931045413017,0.010995250195264816,0.007330167107284069
1761315389410905900,7.19290576171875,-0.0036650835536420345,0.012827792204916477,0.006108472589403391
1761315389429827800,7.211827880859375,-0.0024433890357613564,0.011606098152697086,0.0024433890357613564
1761315389448749600,7.23074951171875,-0.0018325417768210173,0.007330167107284069,0.0018325417768210173
1761315389467671600,7.249671630859375,0.0006108472589403391,0.0036650835536420345,0.0024433890357613564
1761315389486593300,7.26859326171875,0.004275931045413017,0.0006108472589403391,0.0036650835536420345
1761315389505515000,7.287514892578125,0.005497625097632408,0.0036650835536420345,0.008551862090826035
1761315389524437000,7.30643701171875,0.006108472589403391,0.007941014133393764,0.013438640162348747
1761315389543358700,7.325358642578125,0.005497625097632408,0.011606098152697086,0.01710372418165207
1761315389562280700,7.34428076171875,0.004886778071522713,0.014660334214568138,0.01954711228609085
1761315389581202400,7.363202392578125,0.004886778071522713,0.014660334214568138,0.021379653364419937
1761315389600124400,7.38212451171875,0.004275931045413017,0.017714571207761765,0.021379653364419937
1761315389619046100,7.401046142578125,0.004275931045413017,0.020157959312200546,0.020157959312200546
1761315389637968100,7.419968017578125,0.004275931045413017,0.021379653364419937,0.01954711228609085
1761315389656889900,7.438889892578125,0.0036650835536420345,0.020157959312200546,0.01954711228609085
1761315389675811600,7.4578115234375,0.0036650835536420345,0.017714571207761765,0.01954711228609085
1761315389694733600,7.476733642578125,0.004886778071522713,0.016492875292897224,0.020157959312200546
1761315389713655300,7.4956552734375,0.005497625097632408,0.015271181240677834,0.02076880633831024
1761315389732577300,7.514577392578125,0.006108472589403391,0.015271181240677834,0.022601349279284477
1761315389751499000,7.5334990234375,0.004886778071522713,0.014660334214568138,0.023212196305394173
1761315389770421000,7.5524208984375,0.006108472589403391,0.013438640162348747,0.022601349279284477
1761315389789342700,7.5713427734375,0.007330167107284069,0.014049487188458443,0.022601349279284477
1761315389808264400,7.590264404296875,0.007330167107284069,0.012827792204916477,0.021379653364419937
1761315389827186400,7.6091865234375,0.006108472589403391,0.014049487188458443,0.01832541823387146
1761315389846108200,7.628108154296875,0.005497625097632408,0.013438640162348747,0.01710372418165207
1761315389865030100,7.647030029296875,0.005497625097632408,0.010995250195264816,0.015271181240677834
1761315389883951900,7.665951904296875,0.0030542362947016954,0.009773556143045425,0.013438640162348747
1761315389902873900,7.684873779296875,0.0012216945178806782,0.006719320081174374,0.009773556143045425
1761315389921795600,7.703795654296875,0,0.0024433890357613564,0.004886778071522713
1761315389940717600,7.722717529296875,-0.0024433890357613564,0.0012216945178806782,0
1761315389959639300,7.741639404296875,-0.0030542362947016954,0.0012216945178806782,-0.00916270911693573
1761315389978561000,7.76056103515625,-0.0012216945178806782,-0.0024433890357613564,-0.014660334214568138
1761315389997483000,7.77948291015625,0.0030542362947016954,-0.008551862090826035,-0.009773556143045425
1761315390016404700,7.79840478515625,0.00916270911693573,-0.012216945178806782,-0.0006108472589403391
1761315390035326700,7.81732666015625,0.014049487188458443,-0.01038440316915512,0.009773556143045425
1761315390054248400,7.83624853515625,0.01710372418165207,-0.0030542362947016954,0.01954711228609085
1761315390073170400,7.85517041015625,0.01588202826678753,0.006108472589403391,0.024433890357613564
1761315390092092200,7.874092041015625,0.009773556143045425,0.014049487188458443,0.02626643143594265
1761315390111014100,7.89301416015625,0.004886778071522713,0.015271181240677834,0.024433890357613564
1761315390129936000,7.911935791015625,0.0018325417768210173,0.013438640162348747,0.018936265259981155
1761315390148857900,7.93085791015625,0.0018325417768210173,0.016492875292897224,0.014049487188458443
1761315390167779600,7.949779541015625,0,0.021990500390529633,0.010995250195264816
1761315390186701300,7.968701416015625,-0.0024433890357613564,0.028098974376916885,0.013438640162348747
1761315390205623300,7.987623291015625,-0.004275931045413017,0.03237490355968475,0.017714571207761765
1761315390224545000,8.006544921875,-0.004275931045413017,0.03237490355968475,0.02076880633831024
1761315390243467000,8.025467041015625,-0.0030542362947016954,0.029320668429136276,0.021990500390529633
1761315390262388700,8.044388671875,0,0.02748812735080719,0.023823043331503868
1761315390281310700,8.063310791015626,0.0030542362947016954,0.02626643143594265,0.024433890357613564
1761315390300232400,8.082232421875,0.005497625097632408,0.023823043331503868,0.023212196305394173
1761315390319154200,8.101154296875,0.006719320081174374,0.01832541823387146,0.020157959312200546
1761315390338076200,8.120076171875,0.007941014133393764,0.01038440316915512,0.01588202826678753
1761315390356998000,8.138997802734375,0.008551862090826035,0.004886778071522713,0.010995250195264816
1761315390375919900,8.157919921875,0.008551862090826035,0.0018325417768210173,0.00916270911693573
1761315390394841600,8.176841552734375,0.006719320081174374,0.0018325417768210173,0.009773556143045425
1761315390413763600,8.195763671875,0.005497625097632408,0.0030542362947016954,0.00916270911693573
1761315390432685300,8.214685302734376,0.006108472589403391,0.0018325417768210173,0.007330167107284069
1761315390451607300,8.233607177734376,0.006719320081174374,0,0.005497625097632408
1761315390470529000,8.252529052734374,0.007330167107284069,-0.005497625097632408,0.0012216945178806782
1761315390489450800,8.27145068359375,0.007941014133393764,-0.00916270911693573,-0.0024433890357613564
1761315390508372700,8.290372802734375,0.00916270911693573,-0.014660334214568138,-0.004886778071522713
1761315390527294500,8.30929443359375,0.008551862090826035,-0.013438640162348747,-0.0018325417768210173
1761315390546216400,8.328216552734375,0.005497625097632408,-0.008551862090826035,0
1761315390565138200,8.34713818359375,0.0030542362947016954,-0.0018325417768210173,0.0024433890357613564
1761315390584060200,8.36606005859375,0.0006108472589403391,0.0024433890357613564,0.005497625097632408
1761315390602982000,8.38498193359375,0.0018325417768210173,0.0024433890357613564,0.004886778071522713
1761315390621904000,8.40390380859375,0.0036650835536420345,0.0030542362947016954,0.005497625097632408
1761315390640825600,8.42282568359375,0.006719320081174374,0.0036650835536420345,0.00916270911693573
1761315390659747600,8.44174755859375,0.007330167107284069,0.007941014133393764,0.012216945178806782
1761315390678669300,8.46066943359375,0.005497625097632408,0.009773556143045425,0.014660334214568138
1761315390697591000,8.479591064453125,0.005497625097632408,0.007330167107284069,0.016492875292897224
1761315390716513000,8.498512939453125,0.004886778071522713,0.006719320081174374,0.016492875292897224
1761315390735434800,8.517434814453125,0.004886778071522713,0.007330167107284069,0.01588202826678753
1761315390754356700,8.536356689453125,0.005497625097632408,0.006719320081174374,0.014660334214568138
1761315390773278500,8.555278564453126,0.004886778071522713,0.007330167107284069,0.013438640162348747
1761315390792200400,8.574200439453126,0.0036650835536420345,0.008551862090826035,0.012827792204916477
1761315390811122200,8.5931220703125,0.0030542362947016954,0.00916270911693573,0.010995250195264816
1761315390830044000,8.6120439453125,0.0024433890357613564,0.008551862090826035,0.011606098152697086
1761315390848966000,8.6309658203125,0.0018325417768210173,0.007941014133393764,0.011606098152697086
1761315390867887600,8.6498876953125,0.0018325417768210173,0.007330167107284069,0.00916270911693573
1761315390886809600,8.6688095703125,0.0036650835536420345,0.005497625097632408,0.007941014133393764
1761315390905731300,8.6877314453125,0.007330167107284069,0.004886778071522713,0.00916270911693573
1761315390924653300,8.7066533203125,0.009773556143045425,0.004275931045413017,0.010995250195264816
1761315390943575000,8.725574951171875,0.010995250195264816,0.0036650835536420345,0.012216945178806782
1761315390962497000,8.7444970703125,0.012216945178806782,0.004275931045413017,0.014049487188458443
1761315390981418800,8.763418701171876,0.012216945178806782,0.0030542362947016954,0.015271181240677834
1761315391000340700,8.7823408203125,0.011606098152697086,0.004886778071522713,0.016492875292897224
1761315391019262500,8.801262451171874,0.010995250195264816,0.006108472589403391,0.016492875292897224
1761315391038184400,8.820184326171875,0.01038440316915512,0.007330167107284069,0.020157959312200546
1761315391057106200,8.839106201171875,0.010995250195264816,0.01038440316915512,0.024433890357613564
1761315391076028000,8.85802783203125,0.01038440316915512,0.014049487188458443,0.029320668429136276
1761315391094950000,8.876949951171875,0.011606098152697086,0.021990500390529633,0.033596597611904144
1761315391113871600,8.89587158203125,0.010995250195264816,0.024433890357613564,0.0390942245721817
1761315391132793600,8.914793701171876,0.01038440316915512,0.030542362481355667,0.04337015375494957
1761315391151715300,8.93371533203125,0.007330167107284069,0.034818295389413834,0.04214845970273018
1761315391170637300,8.95263720703125,0.005497625097632408,0.037261683493852615,0.037261683493852615
1761315391189559000,8.97155908203125,0.0036650835536420345,0.03298575058579445,0.033596597611904144
1761315391208481000,8.99048095703125,0.004275931045413017,0.02504473738372326,0.02626643143594265
1761315391227402800,9.00940283203125,0.007330167107284069,0.012216945178806782,0.01954711228609085
1761315391246324500,9.028324462890625,0.008551862090826035,0.0036650835536420345,0.016492875292897224
1761315391265246500,9.04724658203125,0.00916270911693573,0.0006108472589403391,0.01588202826678753
1761315391284168200,9.066168212890625,0.00916270911693573,0.0024433890357613564,0.014049487188458443
1761315391303090200,9.085090087890626,0.01038440316915512,-0.0024433890357613564,0.01038440316915512
1761315391322012000,9.104011962890626,0.012827792204916477,-0.012827792204916477,0.008551862090826035
1761315391340934000,9.122933837890624,0.014049487188458443,-0.021379653364419937,0.007941014133393764
1761315391359855600,9.141855712890624,0.014660334214568138,-0.023823043331503868,0.006108472589403391
1761315391378777600,9.160777587890625,0.014660334214568138,-0.024433890357613564,0.004886778071522713
1761315391397699300,9.17969921875,0.014049487188458443,-0.02076880633831024,0.004275931045413017
1761315391416621000,9.19862109375,0.012216945178806782,-0.014660334214568138,0.004275931045413017
1761315391435543000,9.21754296875,0.011606098152697086,-0.012827792204916477,0.0018325417768210173
1761315391454464800,9.23646484375,0.010995250195264816,-0.016492875292897224,-0.0018325417768210173
1761315391473386800,9.25538671875,0.011606098152697086,-0.018936265259981155,-0.004886778071522713
1761315391492308500,9.27430859375,0.013438640162348747,-0.017714571207761765,-0.004275931045413017
1761315391511230500,9.29323046875,0.01588202826678753,-0.014049487188458443,0.0024433890357613564
1761315391530152200,9.312152099609374,0.017714571207761765,-0.007941014133393764,0.013438640162348747
1761315391549074200,9.33107421875,0.018936265259981155,-0.0036650835536420345,0.021990500390529633
1761315391567996000,9.349995849609375,0.01954711228609085,0.0006108472589403391,0.028098974376916885
1761315391586918000,9.36891796875,0.023212196305394173,0.004275931045413017,0.03176405653357506
1761315391605839600,9.387839599609375,0.02626643143594265,0.00916270911693573,0.03542914241552353
1761315391624761600,9.40676171875,0.025655584409832954,0.01588202826678753,0.038483377546072006
1761315391643683300,9.425683349609375,0.022601349279284477,0.023212196305394173,0.04214845970273018
1761315391662605000,9.44460498046875,0.02076880633831024,0.02870982140302658,0.04337015375494957
1761315391681527000,9.463527099609376,0.01832541823387146,0.030542362481355667,0.04214845970273018
1761315391700448800,9.48244873046875,0.01710372418165207,0.02993151545524597,0.0390942245721817
1761315391719370800,9.501370849609375,0.017714571207761765,0.024433890357613564,0.033596597611904144
1761315391738292500,9.52029248046875,0.020157959312200546,0.020157959312200546,0.033596597611904144
1761315391757214500,9.53921435546875,0.023823043331503868,0.02076880633831024,0.037261683493852615
1761315391776136200,9.55813623046875,0.021379653364419937,0.03542914241552353,0.04459185153245926
1761315391795058200,9.57705810546875,0.017714571207761765,0.043981000781059265,0.045202698558568954
1761315391813980000,9.59597998046875,0.014660334214568138,0.04153761267662048,0.04337015375494957
1761315391832901600,9.614901611328126,0.015271181240677834,0.036039989441633224,0.03542914241552353
1761315391851823600,9.63382373046875,0.017714571207761765,0.025655584409832954,0.026877280324697495
1761315391870745300,9.652745361328124,0.017714571207761765,0.023212196305394173,0.024433890357613564
1761315391889667300,9.671667236328124,0.013438640162348747,0.02504473738372326,0.024433890357613564
1761315391908589000,9.690589111328125,0.010995250195264816,0.02870982140302658,0.025655584409832954
1761315391927511000,9.709510986328125,0.012827792204916477,0.02870982140302658,0.024433890357613564
1761315391946432800,9.728432861328125,0.010995250195264816,0.024433890357613564,0.02626643143594265
1761315391965354800,9.747354736328125,0.00916270911693573,0.021990500390529633,0.028098974376916885
1761315391984276500,9.7662763671875,0.007330167107284069,0.01954711228609085,0.028098974376916885
1761315392003198500,9.785198486328126,0.006108472589403391,0.013438640162348747,0.023212196305394173
1761315392022120200,9.8041201171875,0.006719320081174374,0.012216945178806782,0.01832541823387146
1761315392041042200,9.823042236328124,0.006719320081174374,0.007330167107284069,0.012216945178806782
1761315392059964000,9.8419638671875,0.006719320081174374,0.0036650835536420345,0.006108472589403391
1761315392078885600,9.8608857421875,0.006719320081174374,0.0012216945178806782,0.0030542362947016954
1761315392097807600,9.8798076171875,0.006719320081174374,-0.0006108472589403391,0.0012216945178806782
1761315392116729300,9.898729248046875,0.007330167107284069,-0.0030542362947016954,-0.0006108472589403391
1761315392135651300,9.9176513671875,0.007941014133393764,0,0
1761315392154573000,9.936572998046875,0.008551862090826035,0.0024433890357613564,0.0036650835536420345
1761315392173495000,9.9554951171875,0.007941014133393764,-0.0018325417768210173,0.004886778071522713
1761315392192416800,9.974416748046876,0.007330167107284069,-0.006719320081174374,0.0030542362947016954
1761315392211338500,9.99333837890625,0.006719320081174374,-0.007941014133393764,0
1761315392230260500,10.012260498046874,0.005497625097632408,-0.004275931045413017,-0.0018325417768210173
1761315392249182200,10.03118212890625,0.0036650835536420345,0.0012216945178806782,-0.0024433890357613564
1761315392268104200,10.050104248046875,0.0018325417768210173,0.007330167107284069,-0.0006108472589403391
1761315392287026000,10.06902587890625,0.0012216945178806782,0.012216945178806782,0.0012216945178806782
1761315392305948000,10.087947998046875,0.0018325417768210173,0.013438640162348747,0.006108472589403391
1761315392324869600,10.10686962890625,0.004275931045413017,0.014049487188458443,0.010995250195264816
1761315392343791600,10.12579150390625,0.004886778071522713,0.015271181240677834,0.01588202826678753
1761315392362713300,10.14471337890625,0.004275931045413017,0.01832541823387146,0.018936265259981155
1761315392381635300,10.16363525390625,0.006108472589403391,0.01588202826678753,0.01954711228609085
1761315392400557000,10.18255712890625,0.006108472589403391,0.015271181240677834,0.02076880633831024
1761315392419479000,10.20147900390625,0.0024433890357613564,0.018936265259981155,0.020157959312200546
1761315392438400800,10.22040087890625,-0.0018325417768210173,0.01832541823387146,0.011606098152697086
1761315392457322500,10.239322509765625,-0.004886778071522713,0.016492875292897224,0.004275931045413017
1761315392476244500,10.258244384765625,-0.005497625097632408,0.009773556143045425,-0.004275931045413017
1761315392495166200,10.277166259765625,-0.005497625097632408,0.0018325417768210173,-0.008551862090826035
1761315392514088200,10.296088134765625,-0.006108472589403391,-0.0024433890357613564,-0.00916270911693573
1761315392533010000,10.315010009765626,-0.004886778071522713,-0.0024433890357613564,-0.007941014133393764
1761315392551932000,10.333931884765626,-0.0030542362947016954,-0.0006108472589403391,-0.005497625097632408
1761315392570853600,10.352853515625,-0.0006108472589403391,-0.0006108472589403391,-0.0036650835536420345
1761315392589775600,10.371775634765624,0,-0.0030542362947016954,-0.0012216945178806782
1761315392608697300,10.390697265625,0,-0.004886778071522713,-0.0012216945178806782
1761315392627619300,10.409619384765625,0,-0.01038440316915512,-0.005497625097632408
1761315392646541000,10.428541015625,-0.0012216945178806782,-0.010995250195264816,-0.008551862090826035
1761315392665462800,10.447462890625,0,-0.007330167107284069,-0.013438640162348747
1761315392684384800,10.466384765625,-0.0024433890357613564,-0.006108472589403391,-0.014049487188458443
1761315392703306500,10.485306396484376,-0.004886778071522713,-0.009773556143045425,-0.013438640162348747
1761315392722228500,10.504228515625,-0.005497625097632408,-0.008551862090826035,-0.014660334214568138
1761315392741150200,10.523150146484374,-0.004275931045413017,-0.004886778071522713,-0.014049487188458443
1761315392760072200,10.542072265625,-0.004275931045413017,-0.0024433890357613564,-0.014049487188458443
1761315392778994000,10.560993896484375,-0.004886778071522713,-0.0024433890357613564,-0.012827792204916477
1761315392797916000,10.579916015625,-0.004886778071522713,-0.004886778071522713,-0.014660334214568138
1761315392816837600,10.598837646484375,-0.004275931045413017,-0.009773556143045425,-0.01710372418165207
1761315392835759600,10.617759521484375,-0.0036650835536420345,-0.012216945178806782,-0.01588202826678753
1761315392854681300,10.636681396484375,-0.0030542362947016954,-0.013438640162348747,-0.014660334214568138
1761315392873603000,10.65560302734375,-0.0030542362947016954,-0.012216945178806782,-0.014660334214568138
1761315392892525000,10.674525146484376,-0.0018325417768210173,-0.01038440316915512,-0.013438640162348747
1761315392911446800,10.69344677734375,-0.0012216945178806782,-0.007330167107284069,-0.010995250195264816
1761315392930368800,10.71236865234375,-0.0006108472589403391,-0.004886778071522713,-0.007941014133393764
1761315392949290500,10.73129052734375,0.0006108472589403391,-0.0012216945178806782,-0.004275931045413017
1761315392968212500,10.75021240234375,0.0030542362947016954,0.006719320081174374,0.0018325417768210173
1761315392987134200,10.76913427734375,0.0024433890357613564,0.012216945178806782,0.009773556143045425
1761315393006056200,10.78805615234375,0.0036650835536420345,0.01832541823387146,0.01710372418165207
1761315393024978000,10.80697802734375,0.0030542362947016954,0.02076880633831024,0.021379653364419937
1761315393043899600,10.825899658203125,0.0036650835536420345,0.026877280324697495,0.024433890357613564
1761315393062821600,10.844821533203126,0,0.033596597611904144,0.025655584409832954
1761315393081743400,10.863743408203124,-0.004275931045413017,0.03665083646774292,0.023212196305394173
1761315393100665300,10.882665283203124,-0.005497625097632408,0.03176405653357506,0.01710372418165207
1761315393119587000,10.901587158203125,-0.0024433890357613564,0.02076880633831024,0.01038440316915512
1761315393138509000,10.920509033203125,0.0012216945178806782,0.014049487188458443,0.004275931045413017
1761315393157430800,10.9394306640625,0.005497625097632408,0.009773556143045425,0.0036650835536420345
1761315393176352800,10.958352783203125,0.007330167107284069,0.005497625097632408,0.006108472589403391
1761315393195274500,10.9772744140625,0.007941014133393764,0.0036650835536420345,0.007941014133393764
1761315393214196500,10.996196533203126,0.009773556143045425,-0.0024433890357613564,0.00916270911693573
1761315393233118200,11.0151181640625,0.011606098152697086,-0.006108472589403391,0.011606098152697086
1761315393252040200,11.034040283203124,0.011606098152697086,-0.006108472589403391,0.011606098152697086
1761315393270962000,11.0529619140625,0.009773556143045425,-0.004275931045413017,0.009773556143045425
1761315393289883600,11.071883544921874,0.00916270911693573,-0.0012216945178806782,0.00916270911693573
1761315393308805600,11.0908056640625,0.007941014133393764,0,0.00916270911693573
1761315393327727400,11.109727294921875,0.006108472589403391,0.0006108472589403391,0.01038440316915512
1761315393346649300,11.1286494140625,0.006108472589403391,0.0018325417768210173,0.011606098152697086
1761315393365571000,11.147571044921875,0.006108472589403391,0.007330167107284069,0.013438640162348747
1761315393384493000,11.1664931640625,0.007941014133393764,0.013438640162348747,0.01710372418165207
1761315393403414800,11.185414794921876,0.00916270911693573,0.01588202826678753,0.021379653364419937
1761315393422336800,11.204336669921876,0.008551862090826035,0.015271181240677834,0.024433890357613564
1761315393441258500,11.223258544921874,0.00916270911693573,0.016492875292897224,0.026877280324697495
1761315393460180200,11.24218017578125,0.009773556143045425,0.016492875292897224,0.024433890357613564
1761315393479102200,11.261102294921875,0.00916270911693573,0.015271181240677834,0.023212196305394173
1761315393498024000,11.28002392578125,0.009773556143045425,0.012827792204916477,0.021990500390529633
1761315393516946000,11.29894580078125,0.008551862090826035,0.011606098152697086,0.021990500390529633
1761315393535867600,11.31786767578125,0.008551862090826035,0.00916270911693573,0.01954711228609085
1761315393554789600,11.33678955078125,0.006719320081174374,0.010995250195264816,0.01710372418165207
1761315393573711400,11.35571142578125,0.005497625097632408,0.008551862090826035,0.01588202826678753
1761315393592633300,11.37463330078125,0.006719320081174374,0.005497625097632408,0.014049487188458443
1761315393611555000,11.39355517578125,0.008551862090826035,0.004275931045413017,0.01588202826678753
1761315393630477000,11.41247705078125,0.008551862090826035,0.006719320081174374,0.018936265259981155
1761315393649398800,11.431398681640625,0.01038440316915512,0.009773556143045425,0.023823043331503868
1761315393668320800,11.45032080078125,0.012827792204916477,0.013438640162348747,0.028098974376916885
1761315393687242500,11.469242431640625,0.013438640162348747,0.02076880633831024,0.034818295389413834
1761315393706164200,11.488164306640625,0.010995250195264816,0.033596597611904144,0.04153761267662048
1761315393725086200,11.507086181640625,0.005497625097632408,0.04459185153245926,0.043981000781059265
1761315393744008000,11.526008056640626,0.0012216945178806782,0.04886778071522713,0.04581354558467865
1761315393762930000,11.544929931640626,0.0006108472589403391,0.04337015375494957,0.04153761267662048
1761315393781851600,11.5638515625,0.0030542362947016954,0.03665083646774292,0.03542914241552353
1761315393800773600,11.582773681640624,0.004275931045413017,0.031153209507465363,0.02993151545524597
1761315393819695400,11.6016953125,0.004275931045413017,0.023823043331503868,0.025655584409832954
1761315393838617300,11.620617431640625,0.005497625097632408,0.01832541823387146,0.021379653364419937
1761315393857539000,11.6395390625,0.007941014133393764,0.008551862090826035,0.015271181240677834
1761315393876460800,11.658460693359375,0.009773556143045425,0.0006108472589403391,0.014049487188458443
1761315393895382800,11.6773828125,0.01038440316915512,-0.0018325417768210173,0.012827792204916477
1761315393914304500,11.696304443359375,0.008551862090826035,-0.0018325417768210173,0.011606098152697086
1761315393933226500,11.7152265625,0.007941014133393764,0,0.00916270911693573
1761315393952148200,11.734148193359376,0.007330167107284069,0.0018325417768210173,0.007330167107284069
1761315393971070200,11.7530703125,0.006719320081174374,0.0012216945178806782,0.0036650835536420345
1761315393989992000,11.771991943359374,0.006719320081174374,0.0012216945178806782,0.0036650835536420345
1761315394008914000,11.790913818359375,0.007330167107284069,0.0018325417768210173,0.006108472589403391
1761315394027835600,11.809835693359375,0.007330167107284069,0.004275931045413017,0.00916270911693573
1761315394046757600,11.828757568359375,0.007941014133393764,0.008551862090826035,0.012827792204916477
1761315394065679400,11.847679443359375,0.007330167107284069,0.012216945178806782,0.01710372418165207
1761315394084601300,11.866601318359375,0.007941014133393764,0.016492875292897224,0.02076880633831024
1761315394103523000,11.885523193359376,0.007330167107284069,0.016492875292897224,0.021990500390529633
1761315394122444800,11.90444482421875,0.007941014133393764,0.014660334214568138,0.021990500390529633
1761315394141366800,11.92336669921875,0.007330167107284069,0.015271181240677834,0.02076880633831024
1761315394160288500,11.94228857421875,0.007330167107284069,0.013438640162348747,0.016492875292897224
1761315394179210500,11.96121044921875,0.007941014133393764,0.01710372418165207,0.014660334214568138
1761315394198132200,11.98013232421875,0.004886778071522713,0.012827792204916477,0.014049487188458443
1761315394217054200,11.99905419921875,0.0024433890357613564,0.012216945178806782,0.01038440316915512
1761315394235976000,12.017975830078125,0.0006108472589403391,0.009773556143045425,0.00916270911693573
1761315394254897700,12.036897705078125,0,0.01038440316915512,0.007941014133393764
1761315394273819600,12.055819580078126,-0.0018325417768210173,0.011606098152697086,0.007941014133393764
1761315394292741400,12.074741455078126,-0.0018325417768210173,0.014660334214568138,0.007330167107284069
1761315394311663400,12.093663330078124,-0.0006108472589403391,0.014049487188458443,0.006719320081174374
1761315394330585000,12.112585205078124,0,0.010995250195264816,0.007941014133393764
1761315394349507000,12.131507080078125,-0.0018325417768210173,0.01588202826678753,0.010995250195264816
1761315394368428800,12.1504287109375,-0.0036650835536420345,0.020157959312200546,0.011606098152697086
1761315394387350800,12.169350830078125,-0.006108472589403391,0.023212196305394173,0.010995250195264816
1761315394406272500,12.1882724609375,-0.005497625097632408,0.021990500390529633,0.009773556143045425
1761315394425194500,12.207194580078125,-0.004886778071522713,0.01710372418165207,0.008551862090826035
1761315394444116200,12.2261162109375,-0.005497625097632408,0.014049487188458443,0.007330167107284069
1761315394463038000,12.245037841796876,-0.006719320081174374,0.012216945178806782,0.005497625097632408
1761315394481960000,12.2639599609375,-0.006108472589403391,0.01038440316915512,0.0012216945178806782
1761315394500881700,12.282881591796874,-0.004275931045413017,0.004275931045413017,-0.0030542362947016954
1761315394519803600,12.3018037109375,-0.0006108472589403391,-0.0024433890357613564,-0.004886778071522713
1761315394538725400,12.320725341796875,0.0012216945178806782,-0.006719320081174374,-0.004275931045413017
1761315394557647400,12.3396474609375,0.0012216945178806782,-0.006719320081174374,-0.005497625097632408
1761315394576569000,12.358569091796875,0.0012216945178806782,-0.007941014133393764,-0.005497625097632408
1761315394595491000,12.377490966796875,0.0006108472589403391,-0.009773556143045425,-0.006108472589403391
1761315394614412800,12.396412841796876,0.0006108472589403391,-0.012827792204916477,-0.008551862090826035
1761315394633334500,12.41533447265625,-0.0006108472589403391,-0.014049487188458443,-0.00916270911693573
1761315394652256500,12.434256591796874,-0.0018325417768210173,-0.012216945178806782,-0.01038440316915512
1761315394671178200,12.45317822265625,-0.004275931045413017,-0.00916270911693573,-0.009773556143045425
1761315394690100200,12.472100341796875,-0.004275931045413017,-0.004886778071522713,-0.009773556143045425
1761315394709022000,12.49102197265625,-0.004886778071522713,0,-0.008551862090826035
1761315394727944000,12.50994384765625,-0.004886778071522713,0.004275931045413017,-0.004886778071522713
1761315394746865700,12.52886572265625,-0.006108472589403391,0.006719320081174374,-0.0030542362947016954
1761315394765787600,12.54778759765625,-0.006108472589403391,0.00916270911693573,-0.0012216945178806782
1761315394784709400,12.56670947265625,-0.005497625097632408,0.009773556143045425,0.0024433890357613564
1761315394803631000,12.585631103515626,-0.006108472589403391,0.009773556143045425,0.005497625097632408
1761315394822553000,12.604552978515626,-0.004886778071522713,0.00916270911693573,0.006719320081174374
1761315394841474800,12.623474853515624,-0.004886778071522713,0.009773556143045425,0.004275931045413017
1761315394860396800,12.642396728515624,-0.0036650835536420345,0.01038440316915512,0.0030542362947016954
1761315394879318500,12.661318603515625,-0.0018325417768210173,0.00916270911693573,0.0030542362947016954
1761315394898240500,12.680240478515625,-0.0024433890357613564,0.010995250195264816,0.004275931045413017
1761315394917162200,12.699162353515625,-0.0030542362947016954,0.013438640162348747,0.006719320081174374
1761315394936084200,12.718084228515625,-0.0036650835536420345,0.014049487188458443,0.007941014133393764
1761315394955006000,12.737005859375,-0.0024433890357613564,0.012216945178806782,0.006719320081174374
1761315394973927700,12.755927734375,-0.0018325417768210173,0.010995250195264816,0.006719320081174374
1761315394992849700,12.774849609375,-0.004275931045413017,0.011606098152697086,0.008551862090826035
1761315395011771400,12.793771484375,-0.006719320081174374,0.011606098152697086,0.006108472589403391
1761315395030693400,12.812693359375,-0.006108472589403391,0.013438640162348747,0.0024433890357613564
1761315395049615000,12.831614990234375,-0.0036650835536420345,0.012216945178806782,-0.0018325417768210173
1761315395068537000,12.850537109375,-0.0012216945178806782,0.009773556143045425,-0.0036650835536420345
1761315395087458800,12.869458740234375,-0.0030542362947016954,0.004275931045413017,-0.0030542362947016954
1761315395106380800,12.888380859375,-0.0030542362947016954,0.0012216945178806782,-0.0006108472589403391
1761315395125302500,12.907302490234375,-0.004275931045413017,0.0030542362947016954,0
1761315395144224500,12.926224609375,-0.0024433890357613564,0.0030542362947016954,0
1761315395163146200,12.945146240234376,-0.0006108472589403391,0.0006108472589403391,0.0018325417768210173
1761315395182068000,12.96406787109375,0.0018325417768210173,0.0012216945178806782,0.004275931045413017
1761315395200990000,12.982989990234374,0.0030542362947016954,0,0.0030542362947016954
1761315395219911700,13.00191162109375,0.0036650835536420345,-0.0024433890357613564,0.0018325417768210173
1761315395238833700,13.020833740234375,0.0036650835536420345,-0.004886778071522713,0
1761315395257755400,13.03975537109375,0.004275931045413017,-0.0036650835536420345,-0.0006108472589403391
1761315395276677400,13.058677490234375,0.0036650835536420345,-0.0006108472589403391,0.0024433890357613564
1761315395295599000,13.07759912109375,0.0030542362947016954,0.0018325417768210173,0.004275931045413017
1761315395314520800,13.096520751953125,0.0030542362947016954,0.004886778071522713,0.004886778071522713
1761315395333442800,13.11544287109375,0.0024433890357613564,0.007941014133393764,0.004886778071522713
1761315395352364500,13.134364501953126,0.0012216945178806782,0.01038440316915512,0.006108472589403391
1761315395371286500,13.15328662109375,0.0006108472589403391,0.010995250195264816,0.007330167107284069
1761315395390208300,13.172208251953125,-0.0006108472589403391,0.012216945178806782,0.007941014133393764
1761315395409130200,13.191130126953125,-0.0006108472589403391,0.014660334214568138,0.00916270911693573
1761315395428052000,13.210052001953125,-0.0018325417768210173,0.013438640162348747,0.009773556143045425
1761315395446973700,13.2289736328125,-0.0012216945178806782,0.01038440316915512,0.00916270911693573
1761315395465895700,13.247895751953125,0.0006108472589403391,0.008551862090826035,0.006719320081174374
1761315395484817400,13.2668173828125,0.0030542362947016954,0.00916270911693573,0.004886778071522713
1761315395503739400,13.285739501953126,0.004886778071522713,0.005497625097632408,0.004886778071522713
1761315395522661000,13.3046611328125,0.006719320081174374,0.0012216945178806782,0.007941014133393764
1761315395541583000,13.3235830078125,0.005497625097632408,0.0018325417768210173,0.010995250195264816
1761315395560504800,13.3425048828125,0.005497625097632408,0.005497625097632408,0.012827792204916477
1761315395579426800,13.3614267578125,0.004886778071522713,0.007330167107284069,0.013438640162348747
1761315395598348500,13.3803486328125,0.0036650835536420345,0.010995250195264816,0.01588202826678753
1761315395617270500,13.3992705078125,0.0006108472589403391,0.015271181240677834,0.01710372418165207
1761315395636192300,13.418192138671875,-0.0018325417768210173,0.01588202826678753,0.015271181240677834
1761315395655114000,13.437114013671875,-0.0036650835536420345,0.012827792204916477,0.012216945178806782
1761315395674036000,13.456035888671876,0.0018325417768210173,0.006719320081174374,0.00916270911693573
1761315395692957700,13.474957763671876,0.006108472589403391,-0.0006108472589403391,0.007941014133393764
1761315395711879700,13.493879638671874,0.00916270911693573,-0.007941014133393764,0.01038440316915512
1761315395730801400,13.512801513671874,0.009773556143045425,-0.010995250195264816,0.011606098152697086
1761315395749723400,13.531723388671875,0.010995250195264816,-0.010995250195264816,0.012827792204916477
1761315395768645000,13.55064501953125,0.012216945178806782,-0.006108472589403391,0.013438640162348747
1761315395787567000,13.569567138671875,0.013438640162348747,0.0012216945178806782,0.01588202826678753
1761315395806488800,13.58848876953125,0.012216945178806782,0.012827792204916477,0.021379653364419937
1761315395825410600,13.60741064453125,0.00916270911693573,0.01954711228609085,0.023212196305394173
1761315395844332500,13.62633251953125,0.006108472589403391,0.021379653364419937,0.023212196305394173
1761315395863254300,13.645254150390626,0.0030542362947016954,0.02076880633831024,0.024433890357613564
1761315395882176300,13.66417626953125,-0.0006108472589403391,0.01832541823387146,0.02626643143594265
1761315395901098000,13.683097900390624,-0.004275931045413017,0.020157959312200546,0.02870982140302658
1761315395920020000,13.70202001953125,-0.006108472589403391,0.02626643143594265,0.029320668429136276
1761315395938941700,13.720941650390625,-0.009773556143045425,0.029320668429136276,0.024433890357613564
1761315395957863700,13.73986376953125,-0.007941014133393764,0.02993151545524597,0.016492875292897224
1761315395976785400,13.758785400390625,-0.004886778071522713,0.023212196305394173,0.007941014133393764
1761315395995707100,13.77770703125,-0.0024433890357613564,0.01038440316915512,0.0006108472589403391
1761315396014629000,13.796629150390626,-0.0006108472589403391,0.0012216945178806782,-0.0012216945178806782
1761315396033550800,13.81555078125,0.0012216945178806782,-0.0024433890357613564,0.0018325417768210173
1761315396052472800,13.834472900390624,0.0018325417768210173,-0.0006108472589403391,0.006719320081174374
1761315396071394600,13.85339453125,0.0030542362947016954,0.004275931045413017,0.012827792204916477
1761315396090316500,13.872316650390625,0.004275931045413017,0.005497625097632408,0.01588202826678753
1761315396109238300,13.89123828125,0.006719320081174374,0.004275931045413017,0.014049487188458443
1761315396128160000,13.910159912109375,0.007941014133393764,-0.0006108472589403391,0.012216945178806782
1761315396147082000,13.92908203125,0.008551862090826035,-0.006108472589403391,0.007941014133393764
1761315396166003700,13.948003662109375,0.007941014133393764,-0.007941014133393764,0.006108472589403391
1761315396184925700,13.96692578125,0.009773556143045425,-0.007330167107284069,0.006108472589403391
1761315396203847400,13.985847412109376,0.00916270911693573,-0.0036650835536420345,0.009773556143045425
1761315396222769400,14.004769287109376,0.006108472589403391,0.004275931045413017,0.017714571207761765
1761315396241691100,14.023691162109374,0.0024433890357613564,0.014660334214568138,0.022601349279284477
1761315396260612900,14.04261279296875,-0.0024433890357613564,0.024433890357613564,0.025655584409832954
1761315396279534800,14.061534912109375,-0.0018325417768210173,0.03237490355968475,0.02748812735080719
1761315396298456600,14.08045654296875,0,0.03665083646774292,0.030542362481355667
1761315396317378600,14.099378662109375,0.0006108472589403391,0.03665083646774292,0.03298575058579445
1761315396336300300,14.11830029296875,0.0006108472589403391,0.036039989441633224,0.03176405653357506
1761315396355222300,14.13722216796875,-0.0012216945178806782,0.03237490355968475,0.030542362481355667
1761315396374144000,14.15614404296875,-0.0018325417768210173,0.02626643143594265,0.025655584409832954
1761315396393066000,14.17506591796875,-0.0012216945178806782,0.018936265259981155,0.02076880633831024
1761315396411987700,14.19398779296875,0.0012216945178806782,0.014049487188458443,0.01710372418165207
1761315396430909400,14.212909423828124,0.0030542362947016954,0.007941014133393764,0.011606098152697086
1761315396449831400,14.23183154296875,0.0036650835536420345,0.0012216945178806782,0.007330167107284069
1761315396468753200,14.250753173828125,0.004886778071522713,-0.0036650835536420345,0.0030542362947016954
1761315396487675100,14.269675048828125,0.006719320081174374,-0.007941014133393764,0
1761315396506596900,14.288596923828125,0.007330167107284069,-0.011606098152697086,-0.0024433890357613564
1761315396525518800,14.307518798828125,0.007330167107284069,-0.014660334214568138,-0.0030542362947016954
1761315396544440600,14.326440673828126,0.007330167107284069,-0.014660334214568138,-0.0036650835536420345
1761315396563362300,14.3453623046875,0.007941014133393764,-0.012216945178806782,-0.004886778071522713
1761315396582284300,14.3642841796875,0.007941014133393764,-0.011606098152697086,-0.004886778071522713
1761315396601206000,14.3832060546875,0.006108472589403391,-0.012216945178806782,-0.0036650835536420345
1761315396620128000,14.4021279296875,0.004275931045413017,-0.012216945178806782,-0.0036650835536420345
1761315396639049700,14.4210498046875,0.0024433890357613564,-0.007941014133393764,-0.004275931045413017
1761315396657971700,14.4399716796875,0.0018325417768210173,-0.0036650835536420345,-0.0036650835536420345
1761315396676893400,14.4588935546875,0.0030542362947016954,0.03176405653357506,0.016492875292897224
1761315396695815400,14.4778154296875,0.004275931045413017,0.016492875292897224,0.0036650835536420345
1761315396714737200,14.496737060546875,0.0018325417768210173,-0.0006108472589403391,-0.0030542362947016954
1761315396733659000,14.515658935546876,-0.0006108472589403391,-0.018936265259981155,-0.00916270911693573
1761315396752580900,14.534580810546874,-0.0024433890357613564,-0.01710372418165207,-0.005497625097632408
1761315396771502600,14.553502685546874,0.0024433890357613564,0.007330167107284069,0.007330167107284069
1761315396790424600,14.572424560546875,0.006108472589403391,0.009773556143045425,0.007330167107284069
