time,seconds_elapsed,z,y,x
1761402262028088300,0.08808837890625,0.00044965543202124536,-0.0006161945057101548,-0.0025480473414063454
1761402262038161000,0.098160888671875,-0.0004163476114626974,0.0011990811908617616,-0.0016986982664093375
1761402262058322400,0.118322509765625,0.0005495788645930588,0.0001498851488577202,-0.0002831163874361664
1761402262068403500,0.128403564453125,-0.00008326952229253948,-0.0011657733703032136,-0.0016986982664093375
1761402262078484200,0.138484130859375,0,0.00003330780964461155,0.0012823506258428097
1761402262088590800,0.1485908203125,-0.00046630934230051935,-0.0011158116394653916,0.00016653904458507895
1761402262098671600,0.158671630859375,-0.0008660030434839427,-0.00018319295486435294,-0.0011324655497446656
1761402262108752600,0.168752685546875,-0.0003663859097287059,-0.0008326952229253948,0.0009825803572311997
1761402262118834200,0.178834228515625,-0.000016653904822305776,0.00023315467115025967,-0.00038303982000797987
1761402262128910800,0.188910888671875,-0.0001498851488577202,0.00023315467115025967,-0.0005329249543137848
1761402262138996200,0.198996337890625,0.00016653904458507895,-0.0010491959983482957,0.00046630934230051935
1761402262149076700,0.20907666015625,0.00039969373028725386,0.0002664624771568924,0.0009326186846010387
1761402262159157500,0.219157470703125,0.0003663859097287059,-0.0012823506258428097,-0.0009992342675104737
1761402262169238800,0.22923876953125,0.0006161945057101548,0.00016653904458507895,0.00008326952229253948
1761402262179319800,0.23931982421875,0.0002664624771568924,0.00048296325257979333,-0.0001498851488577202
1761402262189401600,0.249401611328125,-0.0002997702977154404,-0.00044965543202124536,-0.0010158881777897477
1761402262199477500,0.2594775390625,0.0002165007608709857,0.00019984686514362693,-0.0005828866851516068
1761402262209562600,0.269562744140625,0.0002831163874361664,0.00009992343257181346,0.000016653904822305776
1761402262219644200,0.27964404296875,0.0006161945057101548,-0.00039969373028725386,-0.0004163476114626974
1761402262229725200,0.28972509765625,0.0005662327748723328,-0.00023315467115025967,0.0002165007608709857
1761402262239806700,0.299806640625,0.0005995405954308808,0.0002165007608709857,0.0008993108640424907
1761402262249887200,0.30988720703125,0.00024980856687761843,-0.0007327718194574118,-0.0001498851488577202
1761402262259964000,0.3199638671875,0.0001332312385784462,-0.0004163476114626974,0.00016653904458507895
1761402262270049000,0.330049072265625,0.0002664624771568924,0.00016653904458507895,0.0006661561783403158
1761402262280108300,0.3401083984375,-0.00044965543202124536,0.0004163476114626974,0.0001498851488577202
1761402262290212000,0.350212158203125,-0.0005329249543137848,-0.00004996171628590673,0.0003497319994494319
1761402262300292000,0.3602919921875,-0.00009992343257181346,-0.0004330015217419714,0.0004996171337552369
1761402262310374400,0.37037451171875,0.00016653904458507895,0.0006495022680610418,0.00046630934230051935
1761402262320450300,0.3804501953125,-0.00019984686514362693,-0.0003497319994494319,-0.0004163476114626974
1761402262330521300,0.390521240234375,0.0002664624771568924,-0.0002831163874361664,0.0004330015217419714
1761402262340617200,0.4006171875,0.0001498851488577202,0.00039969373028725386,0.0004163476114626974
1761402262350674000,0.410673828125,-0.0003497319994494319,0.00003330780964461155,0.0005662327748723328
1761402262360779000,0.420779052734375,0.0006828100886195898,0.0005162710440345109,0.00016653904458507895
1761402262370860300,0.4308603515625,0.0003330780891701579,0.0006994639988988638,0.0002831163874361664
1761402262380940500,0.4409404296875,-0.0003164241788908839,0.0002664624771568924,-0.0006328483577817678
1761402262391018000,0.45101806640625,-0.00019984686514362693,-0.0008660030434839427,-0.0005662327748723328
1761402262401081600,0.46108154296875,-0.00016653904458507895,0.00024980856687761843,0.0002664624771568924
1761402262411184000,0.47118408203125,0.0002997702977154404,0.0001332312385784462,0.0001332312385784462
1761402262421264400,0.481264404296875,0.0003164241788908839,-0.00008326952229253948,0.0004163476114626974
1761402262431346200,0.49134619140625,0.00011657733557512984,-0.00019984686514362693,-0.00018319295486435294
1761402262441401900,0.50140185546875,-0.0001332312385784462,-0.0002831163874361664,-0.0003330780891701579
1761402262451504000,0.511504150390625,0.00046630934230051935,-0.00023315467115025967,-0.00048296325257979333
1761402262461544200,0.521544189453125,0.0007494257297366858,-0.0007993874605745077,-0.0000666156192892231
1761402262471679200,0.53167919921875,-0.0003497319994494319,-0.0002831163874361664,0.00023315467115025967
1761402262481752000,0.541751953125,0.00023315467115025967,0.00016653904458507895,0.0007161179091781378
1761402262491832300,0.551832275390625,0.0003330780891701579,-0.0003330780891701579,-0.00008326952229253948
1761402262501913900,0.561913818359375,0.0007161179091781378,-0.0011990811908617616,-0.0001498851488577202
1761402262511994400,0.571994384765625,0.00044965543202124536,-0.0008993108640424907,0.0008160413126461208
1761402262522071000,0.582071044921875,-0.0006495022680610418,0.0002165007608709857,0.000016653904822305776
1761402262532135000,0.592135009765625,-0.0007494257297366858,-0.0003330780891701579,0
1761402262542236700,0.602236572265625,0.00003330780964461155,0.00044965543202124536,-0.0000666156192892231
1761402262552318200,0.612318115234375,0.0000666156192892231,0.0002831163874361664,-0.0006828100886195898
1761402262562374100,0.6223740234375,0.00023315467115025967,-0.0010325420880690217,-0.00009992343257181346
1761402262572481500,0.6324814453125,0.0003164241788908839,-0.0007161179091781378,-0.00016653904458507895
1761402262582557700,0.6425576171875,0.0003330780891701579,-0.0007161179091781378,0.00016653904458507895
1761402262592618800,0.65261865234375,0.0006828100886195898,0.0001498851488577202,-0.00039969373028725386
1761402262602700000,0.662699951171875,-0.0003330780891701579,-0.00018319295486435294,-0.0006661561783403158
1761402262612804900,0.672804931640625,-0.00004996171628590673,-0.00004996171628590673,-0.0005162710440345109
1761402262622885600,0.6828857421875,0.00023315467115025967,0.0000666156192892231,0.0003663859097287059
1761402262632967000,0.692966796875,-0.0000666156192892231,0.0008160413126461208,0.0005162710440345109
1761402262643022600,0.703022705078125,0.00046630934230051935,0.0006328483577817678,-0.00044965543202124536
1761402262653088300,0.713088134765625,0.00009992343257181346,-0.0002831163874361664,0.0000666156192892231
1761402262663210800,0.723210693359375,-0.00024980856687761843,0.00024980856687761843,-0.0003330780891701579
1761402262673291000,0.733291015625,-0.000016653904822305776,0.0009659265051595867,0.0009492725948803127
1761402262683372000,0.7433720703125,0.0005329249543137848,0.0003330780891701579,0.0002831163874361664
1761402262693453000,0.753453125,0.000016653904822305776,0.0003497319994494319,-0.0003663859097287059
1761402262703534000,0.7635341796875,0.000016653904822305776,-0.0005495788645930588,-0.00008326952229253948
1761402262713611300,0.773611328125,0.0001498851488577202,0.00024980856687761843,0.00004996171628590673
1761402262723696000,0.783696044921875,0.00024980856687761843,0.00039969373028725386,0.0006161945057101548
1761402262733777200,0.793777099609375,-0.00009992343257181346,-0.00048296325257979333,-0.00044965543202124536
1761402262743828700,0.803828857421875,-0.00018319295486435294,-0.0011324655497446656,-0.00046630934230051935
1761402262753939500,0.813939453125,-0.0002831163874361664,-0.0005995405954308808,0.0003663859097287059
1761402262764020200,0.824020263671875,-0.00023315467115025967,0.0012157351011410356,-0.0003330780891701579
1761402262774097700,0.83409765625,0.0006328483577817678,0.0009326186846010387,0.00044965543202124536
1761402262784169700,0.844169677734375,0.0002165007608709857,0.000016653904822305776,-0.00008326952229253948
1761402262794263600,0.854263671875,0.00016653904458507895,-0.00009992343257181346,-0.00009992343257181346
1761402262804344600,0.864344482421875,0.0006495022680610418,0.00044965543202124536,-0.0006328483577817678
1761402262814425300,0.87442529296875,-0.0002165007608709857,-0.0002831163874361664,-0.0008326952229253948
1761402262824506600,0.884506591796875,0.0003497319994494319,0.0004330015217419714,0.0000666156192892231
1761402262834587600,0.894587646484375,0.00004996171628590673,-0.0004996171337552369,-0.0001498851488577202
1761402262844664800,0.904664794921875,0.0003164241788908839,0.00018319295486435294,-0.00003330780964461155
1761402262854749700,0.914749755859375,-0.00018319295486435294,-0.00016653904458507895,-0.00019984686514362693
1761402262864831500,0.92483154296875,-0.0006161945057101548,-0.0005495788645930588,-0.0005995405954308808
1761402262874912000,0.934912109375,-0.0002165007608709857,0.0006328483577817678,-0.00039969373028725386
1761402262884993000,0.944992919921875,-0.00046630934230051935,0.000016653904822305776,-0.00008326952229253948
1761402262895073800,0.95507373046875,0,0.0005495788645930588,-0.00016653904458507895
1761402262905156900,0.965156982421875,0.00024980856687761843,0.00009992343257181346,-0.0005162710440345109
1761402262915237000,0.975237060546875,-0.0003330780891701579,0.0000666156192892231,-0.00018319295486435294
1761402262925317000,0.985317138671875,-0.0001498851488577202,0.00018319295486435294,-0.0003663859097287059
1761402262935398700,0.995398681640625,0.00023315467115025967,-0.00003330780964461155,-0.00016653904458507895
1761402262945479700,1.005479736328125,0.00011657733557512984,0.0009825803572311997,0.00023315467115025967
1761402262955560200,1.015560302734375,0.0005828866851516068,-0.00024980856687761843,-0.0000666156192892231
1761402262965641500,1.025641357421875,-0.0002165007608709857,-0.000016653904822305776,-0.0003663859097287059
1761402262975722200,1.03572216796875,0.0001498851488577202,-0.0000666156192892231,0.00004996171628590673
1761402262985803300,1.04580322265625,0.00019984686514362693,0.0004163476114626974,-0.0010158881777897477
1761402262995884300,1.05588427734375,0.00023315467115025967,0.00019984686514362693,0
1761402263005965300,1.06596533203125,0.0004163476114626974,0.00048296325257979333,0
1761402263016046600,1.076046630859375,0.00038303982000797987,-0.0004330015217419714,-0.0012323890114203095
1761402263026127400,1.08612744140625,-0.00004996171628590673,-0.0002165007608709857,-0.0003164241788908839
1761402263036209000,1.096208984375,0.00024980856687761843,0.0002165007608709857,-0.0004996171337552369
1761402263046290200,1.106290283203125,0.00016653904458507895,-0.00018319295486435294,-0.0004996171337552369
1761402263056345300,1.116345458984375,0.0001332312385784462,0.00004996171628590673,-0.0008660030434839427
1761402263066452700,1.12645263671875,-0.0002165007608709857,0.0005828866851516068,0.0005828866851516068
1761402263076532700,1.13653271484375,0.0007327718194574118,0.0012490428052842617,-0.00038303982000797987
1761402263086613800,1.14661376953125,0.00011657733557512984,-0.00048296325257979333,-0.0006828100886195898
1761402263096694800,1.15669482421875,0.0006994639988988638,-0.00046630934230051935,-0.0000666156192892231
1761402263106776300,1.1667763671875,0.0005329249543137848,0.0001332312385784462,-0.00044965543202124536
1761402263116857300,1.176857421875,-0.0001498851488577202,0.0009992342675104737,-0.00003330780964461155
1761402263126938000,1.186938232421875,-0.00011657733557512984,0,-0.0005662327748723328
1761402263137019000,1.197018798828125,0.00019984686514362693,-0.00039969373028725386,-0.00046630934230051935
1761402263147098400,1.207098388671875,-0.00004996171628590673,0.000016653904822305776,0.00023315467115025967
1761402263157178600,1.2171787109375,0.0004996171337552369,-0.0002165007608709857,-0.0006328483577817678
1761402263167257000,1.227257080078125,-0.0006328483577817678,-0.000016653904822305776,-0.00024980856687761843
1761402263182383900,1.2423837890625,0.0002997702977154404,-0.0002997702977154404,-0.0005662327748723328
1761402263192465400,1.25246533203125,-0.00039969373028725386,0.0006495022680610418,-0.0006328483577817678
1761402263202562300,1.262562255859375,-0.0007327718194574118,0.00039969373028725386,0.00008326952229253948
1761402263212590000,1.272590087890625,-0.0001498851488577202,0.0002165007608709857,0.0005995405954308808
1761402263222683000,1.282682861328125,0.00003330780964461155,-0.0003330780891701579,-0.00009992343257181346
1761402263232769000,1.29276904296875,0.0004163476114626974,-0.00019984686514362693,0.00009992343257181346
1761402263242871300,1.302871337890625,-0.0003497319994494319,-0.0000666156192892231,-0.0003330780891701579
1761402263252969000,1.312968994140625,-0.0003164241788908839,-0.0003330780891701579,-0.000016653904822305776
1761402263263023900,1.32302392578125,-0.000016653904822305776,0.0003330780891701579,0.00044965543202124536
1761402263273123000,1.333123046875,0.0002664624771568924,-0.0006328483577817678,0.0002664624771568924
1761402263283191000,1.34319091796875,0.00024980856687761843,-0.0002165007608709857,0.00038303982000797987
1761402263293250600,1.35325048828125,0.00023315467115025967,0.0001332312385784462,0.0005329249543137848
1761402263303357000,1.36335693359375,-0.0005329249543137848,0.0002831163874361664,0.00019984686514362693
1761402263313437700,1.373437744140625,-0.00044965543202124536,-0.00008326952229253948,-0.0002165007608709857
1761402263323496200,1.38349609375,0.000016653904822305776,0.00038303982000797987,-0.0005162710440345109
1761402263333562000,1.39356201171875,0.0008660030434839427,0.00009992343257181346,0
1761402263353758500,1.413758544921875,0.0005662327748723328,0.0001498851488577202,-0.0003330780891701579
1761402263363818000,1.42381787109375,0.00023315467115025967,0.0000666156192892231,-0.0003497319994494319
1761402263373923800,1.433923828125,0.0006495022680610418,-0.00048296325257979333,0.000016653904822305776
1761402263384005600,1.444005615234375,-0.0002664624771568924,0.00018319295486435294,0.00046630934230051935
1761402263394060800,1.454060791015625,0.000016653904822305776,0.0002165007608709857,0.0003164241788908839
1761402263404145200,1.464145263671875,-0.0004163476114626974,-0.0006828100886195898,-0.00011657733557512984
1761402263414223600,1.4742236328125,0.0003497319994494319,-0.0005329249543137848,-0.0008660030434839427
1761402263424330200,1.484330322265625,0.00038303982000797987,-0.0009492725948803127,-0.0003164241788908839
1761402263434410500,1.494410400390625,-0.00018319295486435294,-0.00008326952229253948,0.00046630934230051935
1761402263444455000,1.504454833984375,0.0001498851488577202,0.0000666156192892231,-0.00023315467115025967
1761402263454540300,1.514540283203125,-0.000016653904822305776,-0.0009825803572311997,0.0000666156192892231
1761402263464680400,1.524680419921875,-0.0002165007608709857,0.000016653904822305776,0
1761402263474734600,1.534734619140625,0.00003330780964461155,-0.00046630934230051935,0.000016653904822305776
1761402263484811500,1.5448115234375,0.00003330780964461155,-0.00023315467115025967,-0.0004996171337552369
1761402263494896400,1.554896484375,0.0001332312385784462,0,-0.00039969373028725386
1761402263504977700,1.564977783203125,-0.0005662327748723328,-0.0007660796400159597,-0.0007993874605745077
1761402263515033600,1.57503369140625,0,-0.0010491959983482957,-0.0005995405954308808
1761402263525132300,1.58513232421875,-0.00016653904458507895,0.00024980856687761843,-0.00016653904458507895
1761402263535195400,1.5951953125,-0.0002831163874361664,-0.0003164241788908839,-0.0003497319994494319
1761402263545277200,1.605277099609375,-0.0002165007608709857,-0.0003663859097287059,-0.0009326186846010387
1761402263555379000,1.61537890625,-0.0000666156192892231,0.00003330780964461155,-0.00019984686514362693
1761402263565463800,1.6254638671875,-0.0001332312385784462,-0.0006495022680610418,-0.00016653904458507895
1761402263575544300,1.63554443359375,-0.0004163476114626974,-0.00003330780964461155,-0.0002165007608709857
1761402263585601300,1.645601318359375,0.0003497319994494319,0.0004163476114626974,0.0001332312385784462
1761402263595698200,1.6556982421875,-0.00003330780964461155,-0.0008326952229253948,-0.00003330780964461155
1761402263605766000,1.665765869140625,-0.0005162710440345109,0.0001332312385784462,0.0000666156192892231
1761402263615869700,1.67586962890625,-0.0003663859097287059,0.0007494257297366858,-0.0004996171337552369
1761402263625951000,1.685950927734375,-0.0004330015217419714,-0.0003164241788908839,0.0002664624771568924
1761402263636008000,1.696008056640625,0.0002165007608709857,0.000016653904822305776,0.0003497319994494319
1761402263646089000,1.7060888671875,-0.00019984686514362693,-0.0003330780891701579,0.00016653904458507895
1761402263656174000,1.716174072265625,-0.00003330780964461155,-0.00023315467115025967,0.000016653904822305776
1761402263666274800,1.72627490234375,-0.0001498851488577202,-0.00009992343257181346,0.0002664624771568924
1761402263676355300,1.736355224609375,0.00009992343257181346,-0.00003330780964461155,-0.00019984686514362693
1761402263686411500,1.74641162109375,0.0007161179091781378,-0.00023315467115025967,-0.0002831163874361664
1761402263696517600,1.756517578125,0.0006328483577817678,0.0007327718194574118,-0.0009825803572311997
1761402263706587600,1.766587646484375,0.0005495788645930588,-0.00004996171628590673,-0.0001332312385784462
1761402263716656400,1.776656494140625,0.00003330780964461155,0.00019984686514362693,-0.0005329249543137848
1761402263726749400,1.78674951171875,0.0006495022680610418,-0.0002831163874361664,-0.0005828866851516068
1761402263736842200,1.79684228515625,-0.00008326952229253948,0.0001498851488577202,0.0003164241788908839
1761402263746907400,1.806907470703125,0.0006994639988988638,-0.0002997702977154404,-0.00048296325257979333
1761402263757004300,1.81700439453125,0.000016653904822305776,0.0003663859097287059,0.0001498851488577202
1761402263767085600,1.82708544921875,0.0005495788645930588,-0.000016653904822305776,-0.00008326952229253948
1761402263777136600,1.83713671875,-0.00011657733557512984,-0.0004996171337552369,-0.0007660796400159597
1761402263787225600,1.8472255859375,0.0002997702977154404,-0.00004996171628590673,-0.00016653904458507895
1761402263797302800,1.857302734375,0.0001332312385784462,0.0008993108640424907,0.00023315467115025967
1761402263807410000,1.867409912109375,-0.00009992343257181346,0.00046630934230051935,-0.00019984686514362693
1761402263817490200,1.877490234375,0.00009992343257181346,-0.000016653904822305776,-0.00004996171628590673
1761402263827574800,1.88757470703125,0.00038303982000797987,0,-0.000016653904822305776
1761402263837628200,1.897628173828125,0.0003164241788908839,-0.0002831163874361664,-0.0003497319994494319
1761402263847727400,1.907727294921875,0.0005495788645930588,-0.0000666156192892231,-0.00019984686514362693
1761402263857814300,1.917814208984375,0.00018319295486435294,0,-0.0003497319994494319
1761402263867895300,1.927895263671875,0.00011657733557512984,-0.0003663859097287059,-0.00023315467115025967
1761402263877979000,1.937978759765625,-0.0005329249543137848,-0.00024980856687761843,-0.00004996171628590673
1761402263888053500,1.948053466796875,0.0003164241788908839,-0.00038303982000797987,0.00046630934230051935
1761402263898116400,1.958116455078125,0.00046630934230051935,-0.0004330015217419714,-0.0000666156192892231
1761402263908193800,1.96819384765625,0.0002165007608709857,-0.0002165007608709857,-0.0002997702977154404
1761402263918291700,1.978291748046875,0.0002831163874361664,-0.0005662327748723328,0.0003663859097287059
1761402263928356000,1.988356201171875,0.00019984686514362693,-0.00044965543202124536,0.0006661561783403158
1761402263938449400,1.998449462890625,-0.00023315467115025967,-0.00003330780964461155,0.00046630934230051935
1761402263948544000,2.0085439453125,-0.0002997702977154404,0.00016653904458507895,0.0006328483577817678
1761402263958624800,2.018624755859375,-0.0004996171337552369,-0.0005828866851516068,-0.00018319295486435294
1761402263968680400,2.028680419921875,-0.0005662327748723328,0.0000666156192892231,-0.0005162710440345109
1761402263978781700,2.03878173828125,0,-0.0003164241788908839,0.0002997702977154404
1761402263988841500,2.048841552734375,-0.000016653904822305776,-0.0005162710440345109,0.0006495022680610418
1761402263998948900,2.058948974609375,0.0005495788645930588,0.0004163476114626974,0.00019984686514362693
1761402264009029600,2.069029541015625,0.00016653904458507895,-0.0003497319994494319,0.00008326952229253948
1761402264019087600,2.079087646484375,0.0002165007608709857,0.0008160413126461208,-0.0000666156192892231
1761402264029184800,2.089184814453125,0.0004330015217419714,-0.0010325420880690217,0.00003330780964461155
1761402264039247600,2.09924755859375,0.0006828100886195898,-0.0002664624771568924,-0.0005828866851516068
1761402264049350000,2.109349853515625,-0.00003330780964461155,0.0005828866851516068,-0.00044965543202124536
1761402264059435000,2.11943505859375,0.00044965543202124536,0.0006328483577817678,0.0001332312385784462
1761402264069491200,2.1294912109375,0.0005662327748723328,-0.00003330780964461155,-0.0006828100886195898
1761402264079597000,2.13959716796875,-0.0003497319994494319,-0.00004996171628590673,0
1761402264089656300,2.14965625,0.00008326952229253948,0.0001498851488577202,-0.0001332312385784462
1761402264099759000,2.159759033203125,0,0.0002664624771568924,0.00003330780964461155
1761402264109840000,2.16983984375,-0.00009992343257181346,0.0008493491332046688,0.0005495788645930588
1761402264119888400,2.179888427734375,-0.00039969373028725386,-0.00003330780964461155,0.0006161945057101548
1761402264130002200,2.190002197265625,-0.00009992343257181346,-0.00003330780964461155,0.0005995405954308808
1761402264140083500,2.20008349609375,0.00023315467115025967,0.0006495022680610418,0.0001498851488577202
1761402264150139100,2.21013916015625,0.0003330780891701579,0.00024980856687761843,0.00011657733557512984
1761402264160220400,2.220220458984375,-0.0005828866851516068,-0.0004996171337552369,-0.0001332312385784462
1761402264170327600,2.23032763671875,-0.00011657733557512984,-0.00009992343257181346,-0.00044965543202124536
1761402264180382200,2.24038232421875,-0.0002664624771568924,0.0002831163874361664,0.00003330780964461155
1761402264190488600,2.250488525390625,-0.00039969373028725386,-0.00009992343257181346,-0.00004996171628590673
1761402264200569600,2.260569580078125,-0.00016653904458507895,0.0002664624771568924,-0.0007161179091781378
1761402264210650600,2.270650634765625,0.0004330015217419714,-0.00048296325257979333,-0.0005162710440345109
1761402264220726000,2.28072607421875,0.0004330015217419714,-0.0006828100886195898,-0.0006328483577817678
1761402264230813700,2.290813720703125,-0.00019984686514362693,-0.00003330780964461155,0.00004996171628590673
1761402264240890600,2.300890625,0.00023315467115025967,-0.0004163476114626974,0.0007993874605745077
1761402264250975000,2.31097509765625,-0.000016653904822305776,0.00003330780964461155,0.0002997702977154404
1761402264261056000,2.321055908203125,-0.0009992342675104737,-0.0004330015217419714,0.0000666156192892231
1761402264271137500,2.331137451171875,-0.0002997702977154404,0.00016653904458507895,-0.0006495022680610418
1761402264281218800,2.34121875,-0.00024980856687761843,0.0002664624771568924,-0.00008326952229253948
1761402264291298800,2.351298828125,0.00019984686514362693,0.0008993108640424907,0.00038303982000797987
1761402264301380000,2.361380126953125,-0.000016653904822305776,-0.0001498851488577202,-0.00023315467115025967
1761402264311457000,2.37145703125,-0.00019984686514362693,-0.0000666156192892231,0.0005329249543137848
1761402264321542100,2.381542236328125,0.00039969373028725386,-0.000016653904822305776,0.00003330780964461155
1761402264331623200,2.391623046875,-0.00003330780964461155,0.0004163476114626974,-0.0002831163874361664
1761402264341704400,2.401704345703125,0.00008326952229253948,0.0000666156192892231,0.0002165007608709857
1761402264351785500,2.411785400390625,-0.00009992343257181346,-0.0004996171337552369,-0.00023315467115025967
1761402264361866200,2.4218662109375,0.00009992343257181346,-0.0003497319994494319,-0.00011657733557512984
1761402264371943700,2.431943603515625,0.0002165007608709857,-0.00019984686514362693,0.00011657733557512984
1761402264382028300,2.4420283203125,-0.0001332312385784462,-0.0006994639988988638,-0.00018319295486435294
1761402264392109600,2.452109619140625,0.0003164241788908839,-0.0002997702977154404,0.00018319295486435294
1761402264402190600,2.462190673828125,-0.00009992343257181346,-0.0006328483577817678,-0.0008160413126461208
1761402264412271600,2.472271728515625,-0.0001498851488577202,0.00004996171628590673,-0.0002165007608709857
1761402264422352600,2.4823525390625,0.0005495788645930588,0.00004996171628590673,-0.00044965543202124536
1761402264432454100,2.4924541015625,-0.0008326952229253948,0.00008326952229253948,0.0002165007608709857
1761402264442511400,2.502511474609375,-0.00044965543202124536,0.0001332312385784462,-0.0007660796400159597
1761402264452595500,2.512595458984375,-0.0002664624771568924,0.00016653904458507895,-0.00024980856687761843
1761402264462676700,2.5226767578125,0.0001332312385784462,0.0003663859097287059,-0.0003164241788908839
1761402264472757500,2.532757568359375,0.00038303982000797987,0.0002664624771568924,-0.0008160413126461208
1761402264482838800,2.5428388671875,0.0008326952229253948,0.0006661561783403158,0.0001498851488577202
1761402264492920600,2.552920654296875,-0.00023315467115025967,0.00004996171628590673,-0.0005162710440345109
1761402264502996700,2.562996826171875,-0.00003330780964461155,-0.0004163476114626974,-0.00024980856687761843
1761402264513082600,2.57308251953125,-0.00018319295486435294,-0.00048296325257979333,0.0004996171337552369
1761402264523163000,2.583162841796875,0.00011657733557512984,-0.0006328483577817678,0.000016653904822305776
1761402264533244000,2.593243896484375,-0.0005495788645930588,-0.0004996171337552369,-0.0003330780891701579
1761402264543299800,2.6032998046875,0.00038303982000797987,-0.0006661561783403158,0.00046630934230051935
1761402264553406200,2.61340625,-0.00018319295486435294,0.00023315467115025967,-0.0003164241788908839
1761402264563483600,2.623483642578125,-0.0000666156192892231,0.0000666156192892231,-0.0004330015217419714
1761402264573568000,2.633568115234375,-0.0002165007608709857,0.0002831163874361664,-0.0004163476114626974
1761402264583649000,2.64364892578125,0,0.00016653904458507895,0.0005495788645930588
1761402264593730300,2.653730224609375,0.0006828100886195898,-0.00011657733557512984,0.00003330780964461155
1761402264603811300,2.663811279296875,-0.00016653904458507895,-0.0006994639988988638,-0.0002997702977154404
1761402264613892000,2.67389208984375,0.0008326952229253948,0.00004996171628590673,-0.00039969373028725386
1761402264623973400,2.683973388671875,0.0001332312385784462,0.00048296325257979333,-0.0004330015217419714
1761402264634050000,2.694050048828125,0.0001498851488577202,-0.0009159647743217647,0.0002165007608709857
1761402264644156400,2.704156494140625,-0.0003330780891701579,-0.00024980856687761843,-0.00024980856687761843
1761402264654216400,2.714216552734375,-0.0003164241788908839,-0.0007660796400159597,-0.0002997702977154404
1761402264664297500,2.72429736328125,0.0003164241788908839,-0.00019984686514362693,0.00008326952229253948
1761402264674379500,2.734379638671875,-0.00044965543202124536,0.00044965543202124536,-0.00011657733557512984
1761402264684460300,2.744460205078125,-0.0006328483577817678,0.0006495022680610418,-0.0006495022680610418
1761402264694541300,2.754541259765625,-0.0003330780891701579,-0.0007327718194574118,0.0005329249543137848
1761402264704597000,2.764596923828125,0.0001498851488577202,-0.0002664624771568924,0.00038303982000797987
1761402264714702800,2.774702880859375,-0.00004996171628590673,0.0005495788645930588,-0.0008826569537632167
1761402264724783900,2.784783935546875,0.00024980856687761843,-0.0003330780891701579,-0.0005662327748723328
1761402264734865700,2.79486572265625,0.0007993874605745077,0.00004996171628590673,0.00039969373028725386
1761402264744946400,2.804946533203125,0.0002831163874361664,-0.00018319295486435294,-0.0005995405954308808
1761402264755027500,2.81502734375,-0.00023315467115025967,-0.0006828100886195898,0.0002831163874361664
1761402264765108200,2.825108154296875,-0.0008826569537632167,-0.0009992342675104737,-0.00009992343257181346
1761402264775189000,2.83518896484375,-0.00048296325257979333,0.00004996171628590673,0.00004996171628590673
1761402264785270000,2.84527001953125,0.0002664624771568924,-0.00016653904458507895,-0.00019984686514362693
1761402264795351300,2.855351318359375,0.0003497319994494319,-0.0005995405954308808,0.00046630934230051935
1761402264805432300,2.865432373046875,0.0006828100886195898,-0.0004330015217419714,0.0000666156192892231
1761402264815513900,2.875513916015625,-0.00004996171628590673,-0.0006161945057101548,0.00038303982000797987
1761402264825594600,2.8855947265625,-0.00044965543202124536,0.00009992343257181346,0.0009159647743217647
1761402264835675400,2.89567529296875,0,0.00044965543202124536,-0.0002831163874361664
1761402264845731300,2.9057314453125,-0.00023315467115025967,0.0001332312385784462,-0.00039969373028725386
1761402264855837200,2.915837158203125,-0.0000666156192892231,0.0003330780891701579,-0.00023315467115025967
1761402264865919000,2.9259189453125,-0.0002664624771568924,-0.000016653904822305776,-0.00009992343257181346
1761402264876000000,2.936,0.00038303982000797987,-0.00011657733557512984,-0.0002165007608709857
1761402264886080800,2.946080810546875,-0.00016653904458507895,0.00004996171628590673,0.00008326952229253948
1761402264896161500,2.95616162109375,-0.00044965543202124536,0.0003330780891701579,-0.0001498851488577202
1761402264906242600,2.96624267578125,-0.00044965543202124536,0,0.0001332312385784462
1761402264916323800,2.97632373046875,-0.00019984686514362693,0.00044965543202124536,-0.0003663859097287059
1761402264926404600,2.986404541015625,0.0006161945057101548,-0.00019984686514362693,-0.0003663859097287059
1761402264936485600,2.996485595703125,-0.00038303982000797987,0.0010491959983482957,0.0000666156192892231
1761402264946567700,3.006567626953125,-0.00018319295486435294,-0.00044965543202124536,-0.0001332312385784462
1761402264956647700,3.016647705078125,0.0003330780891701579,-0.0002165007608709857,-0.00023315467115025967
1761402264966729000,3.02672900390625,-0.0004996171337552369,-0.00044965543202124536,-0.0005329249543137848
1761402264976809700,3.036809814453125,0.0002997702977154404,-0.0005329249543137848,0.0007161179091781378
1761402264986891000,3.04689111328125,0.00024980856687761843,0.0003164241788908839,0.0005662327748723328
1761402264996973000,3.05697314453125,0.0003497319994494319,-0.0001332312385784462,0.00018319295486435294
1761402265007053000,3.067052978515625,-0.00039969373028725386,-0.0003663859097287059,0.00023315467115025967
1761402265017134000,3.077134033203125,0.00009992343257181346,-0.00003330780964461155,-0.0000666156192892231
1761402265027208000,3.0872080078125,-0.0005329249543137848,-0.00019984686514362693,0.0002997702977154404
1761402265037297200,3.097297119140625,0.00011657733557512984,0.00003330780964461155,0.00024980856687761843
1761402265047378000,3.1073779296875,0.00009992343257181346,-0.00009992343257181346,0.0003164241788908839
1761402265057458700,3.117458740234375,0.0005828866851516068,0.0005329249543137848,-0.000016653904822305776
1761402265067514400,3.127514404296875,-0.000016653904822305776,0.0001332312385784462,-0.00038303982000797987
1761402265077621000,3.13762109375,0.00019984686514362693,-0.0002831163874361664,-0.0000666156192892231
1761402265087702300,3.147702392578125,0.00004996171628590673,-0.000016653904822305776,-0.0000666156192892231
1761402265097783000,3.157782958984375,-0.0000666156192892231,0.0007993874605745077,-0.00011657733557512984
1761402265107863300,3.16786328125,0.0005162710440345109,0.0001332312385784462,0.0003663859097287059
1761402265117945300,3.1779453125,-0.0003330780891701579,0.00011657733557512984,-0.0003330780891701579
1761402265128021200,3.188021240234375,-0.000016653904822305776,0.0006161945057101548,0.0000666156192892231
1761402265138102000,3.19810205078125,-0.0003330780891701579,0.0003497319994494319,0.00019984686514362693
1761402265148165600,3.20816552734375,0.00003330780964461155,0.00039969373028725386,0.00024980856687761843
1761402265158244900,3.218244873046875,0.0007660796400159597,-0.0002165007608709857,-0.00039969373028725386
1761402265168350200,3.22835009765625,0.00048296325257979333,-0.00023315467115025967,0.0004996171337552369
1761402265178431500,3.238431396484375,-0.00011657733557512984,-0.0005162710440345109,0.0002664624771568924
1761402265188486700,3.248486572265625,0.0001332312385784462,0.00016653904458507895,0.0006994639988988638
1761402265198589400,3.25858935546875,-0.0004163476114626974,0.0005995405954308808,-0.0004330015217419714
1761402265208674300,3.26867431640625,0.00004996171628590673,0.00011657733557512984,0.0002165007608709857
1761402265218754600,3.278754638671875,0.0002664624771568924,0.0005662327748723328,-0.0001332312385784462
1761402265228835800,3.2888359375,-0.0003663859097287059,-0.00016653904458507895,-0.00019984686514362693
1761402265238917000,3.298917236328125,0.00003330780964461155,0.00023315467115025967,0.00016653904458507895
1761402265248998100,3.308998046875,0.00008326952229253948,0.00023315467115025967,0.0001498851488577202
1761402265259054000,3.31905419921875,-0.0005495788645930588,0.00008326952229253948,-0.00003330780964461155
1761402265269138400,3.329138427734375,-0.0003497319994494319,0.0005828866851516068,0.0007660796400159597
1761402265279215900,3.3392158203125,0.0000666156192892231,0.0002664624771568924,0.00008326952229253948
1761402265289297200,3.349297119140625,0.0002165007608709857,0.00018319295486435294,0.0000666156192892231
1761402265299377700,3.359377685546875,0.0002997702977154404,0.00003330780964461155,0.0004163476114626974
1761402265309468700,3.36946875,0.00048296325257979333,0.000016653904822305776,0.00016653904458507895
1761402265319555600,3.3795556640625,-0.00004996171628590673,-0.0012157351011410356,0.0006161945057101548
1761402265329627400,3.38962744140625,0,-0.00048296325257979333,0.0001332312385784462
1761402265339728400,3.399728271484375,-0.00019984686514362693,-0.00024980856687761843,0.000016653904822305776
1761402265349808400,3.409808349609375,-0.00023315467115025967,0.0001332312385784462,0.00009992343257181346
1761402265359890200,3.41989013671875,-0.0001498851488577202,-0.0003330780891701579,0.00023315467115025967
1761402265369970400,3.429970458984375,-0.00018319295486435294,0.0005329249543137848,-0.0004163476114626974
1761402265380018000,3.440017822265625,0.00038303982000797987,0.00024980856687761843,0.00038303982000797987
1761402265390132700,3.4501328125,-0.00039969373028725386,-0.00008326952229253948,0.0005828866851516068
1761402265400209400,3.46020947265625,-0.00009992343257181346,-0.0005662327748723328,0.00016653904458507895
1761402265410295600,3.470295654296875,0.00048296325257979333,0.00023315467115025967,0.0005329249543137848
1761402265420376300,3.480376220703125,-0.0005495788645930588,-0.00003330780964461155,-0.00016653904458507895
1761402265430457000,3.49045703125,-0.0004163476114626974,-0.0001498851488577202,-0.00008326952229253948
1761402265440538400,3.500538330078125,0.00019984686514362693,-0.000016653904822305776,0.0002664624771568924
1761402265450584000,3.510583984375,-0.00038303982000797987,0.0001498851488577202,0.0003164241788908839
1761402265460696300,3.5206962890625,-0.000016653904822305776,-0.00046630934230051935,-0.0003497319994494319
1761402265470782000,3.530781982421875,-0.00023315467115025967,0.0002165007608709857,-0.0006495022680610418
1761402265480836900,3.5408369140625,-0.00004996171628590673,-0.0006161945057101548,-0.00044965543202124536
1761402265490943500,3.550943603515625,-0.0005495788645930588,-0.0007161179091781378,-0.00023315467115025967
1761402265501024000,3.56102392578125,0.00048296325257979333,0.00018319295486435294,0.0001332312385784462
1761402265511106000,3.57110595703125,0.00018319295486435294,0.0003497319994494319,0.0003663859097287059
1761402265521182200,3.58118212890625,0.0004163476114626974,0.0006661561783403158,0.0005662327748723328
1761402265531267300,3.591267333984375,0.00038303982000797987,-0.00023315467115025967,0.000016653904822305776
1761402265541326300,3.601326416015625,-0.0002165007608709857,0.00004996171628590673,-0.00023315467115025967
1761402265551430400,3.611430419921875,-0.00016653904458507895,0.0002831163874361664,0.0002831163874361664
1761402265561511200,3.62151123046875,0.00019984686514362693,0.0006661561783403158,-0.0002165007608709857
1761402265571566300,3.63156640625,0.0001498851488577202,-0.0005995405954308808,0.000016653904822305776
1761402265581672700,3.641672607421875,0.00004996171628590673,0.00046630934230051935,-0.00024980856687761843
1761402265591750000,3.65175,-0.00009992343257181346,-0.0004163476114626974,-0.00039969373028725386
1761402265601835000,3.6618349609375,-0.00046630934230051935,-0.00016653904458507895,-0.0001498851488577202
1761402265611915500,3.67191552734375,-0.00016653904458507895,-0.0005162710440345109,-0.0005995405954308808
1761402265621996800,3.681996826171875,-0.0004996171337552369,0.0001498851488577202,-0.0001498851488577202
1761402265632077800,3.692077880859375,0.00018319295486435294,0.00038303982000797987,0.0002831163874361664
1761402265642158600,3.70215869140625,-0.00018319295486435294,-0.00011657733557512984,-0.000016653904822305776
1761402265652235800,3.71223583984375,0.0003663859097287059,0.00024980856687761843,-0.00011657733557512984
1761402265662321000,3.72232080078125,0.00024980856687761843,0.00011657733557512984,0.00039969373028725386
1761402265672402000,3.73240185546875,0.0006994639988988638,0.0002831163874361664,0.00003330780964461155
1761402265682483000,3.74248291015625,0.0000666156192892231,0.00018319295486435294,-0.00023315467115025967
1761402265692564000,3.75256396484375,0,-0.0002664624771568924,0.0000666156192892231
1761402265712726000,3.77272607421875,0.00004996171628590673,-0.0005329249543137848,-0.00044965543202124536
1761402265722803200,3.78280322265625,-0.00024980856687761843,-0.0003663859097287059,-0.0004996171337552369
1761402265732888600,3.792888671875,-0.00018319295486435294,0.0001498851488577202,0.0002165007608709857
1761402265742969900,3.802969970703125,0.00048296325257979333,-0.00044965543202124536,0.00023315467115025967
1761402265753050400,3.81305029296875,0.00008326952229253948,-0.00018319295486435294,0.00048296325257979333
1761402265763132200,3.823132080078125,-0.0001498851488577202,-0.00004996171628590673,-0.0001332312385784462
1761402265773212400,3.83321240234375,0,-0.00018319295486435294,0.0007327718194574118
1761402265783284700,3.84328466796875,0.0007161179091781378,0.0009492725948803127,0.0006495022680610418
1761402265793375000,3.853375,-0.00011657733557512984,-0.00048296325257979333,0.0015321592800319195
1761402265803456500,3.86345654296875,0.0002997702977154404,0.0005495788645930588,0.0003497319994494319
1761402265813512200,3.87351220703125,0.00011657733557512984,0.0003497319994494319,-0.00016653904458507895
1761402265823618000,3.8836181640625,-0.00004996171628590673,0.0005495788645930588,-0.00046630934230051935
1761402265833698600,3.893698486328125,0.0005162710440345109,0.0001332312385784462,-0.0003164241788908839
1761402265843736600,3.903736572265625,0.0000666156192892231,-0.00009992343257181346,0.0006994639988988638
1761402265853860600,3.913860595703125,-0.0000666156192892231,0.00003330780964461155,0.0007993874605745077
1761402265863941600,3.923941650390625,-0.0003330780891701579,-0.0001332312385784462,0.0008493491332046688
1761402265874023000,3.93402294921875,-0.0003663859097287059,-0.0010325420880690217,-0.00008326952229253948
1761402265884103700,3.944103759765625,0.0003164241788908839,0.00048296325257979333,0.00044965543202124536
1761402265894185000,3.95418505859375,-0.0003497319994494319,-0.0007660796400159597,-0.0002165007608709857
1761402265904240600,3.96424072265625,-0.0004996171337552369,-0.0002997702977154404,-0.00018319295486435294
1761402265914343200,3.97434326171875,0.0003663859097287059,-0.0007993874605745077,0.00016653904458507895
1761402265924428000,3.984427978515625,-0.00003330780964461155,0.00023315467115025967,0.0002165007608709857
1761402265934508800,3.9945087890625,-0.0003330780891701579,-0.00038303982000797987,0.00004996171628590673
1761402265944608300,4.004608154296875,-0.00039969373028725386,-0.0005162710440345109,-0.00008326952229253948
1761402265954638300,4.014638427734375,-0.0000666156192892231,0.00009992343257181346,0.0004163476114626974
1761402265964752400,4.02475244140625,-0.0003164241788908839,0.00009992343257181346,-0.0005662327748723328
1761402265984914200,4.0449140625,0.0001498851488577202,0.00004996171628590673,-0.0008993108640424907
1761402265994995700,4.05499560546875,0.00019984686514362693,0.0010991577291861176,-0.0000666156192892231
1761402266005076500,4.065076416015625,-0.00011657733557512984,0.00038303982000797987,-0.00009992343257181346
1761402266015157200,4.0751572265625,-0.00038303982000797987,0.0008160413126461208,-0.0002831163874361664
1761402266025239600,4.085239501953125,0.00009992343257181346,0.0001332312385784462,0.0002997702977154404
1761402266035319300,4.0953193359375,-0.0001332312385784462,0.0005995405954308808,0.00011657733557512984
1761402266045401300,4.1054013671875,-0.0002831163874361664,-0.0001498851488577202,0.0001332312385784462
1761402266055481300,4.1154814453125,0.0001332312385784462,0.00048296325257979333,-0.0005495788645930588
1761402266065540900,4.125540771484375,-0.00018319295486435294,-0.0001498851488577202,-0.0003497319994494319
1761402266075644200,4.13564404296875,-0.0005828866851516068,-0.0004163476114626974,0.00024980856687761843
1761402266085725200,4.14572509765625,-0.0002165007608709857,0.00004996171628590673,0.00019984686514362693
1761402266095786500,4.155786376953125,0.0004996171337552369,0.0012656967155635357,0.00018319295486435294
1761402266105887200,4.16588720703125,0.0000666156192892231,0.00044965543202124536,-0.00024980856687761843
1761402266115968000,4.175968017578125,0.0004996171337552369,0.00019984686514362693,-0.0006328483577817678
1761402266126026000,4.18602587890625,-0.00004996171628590673,-0.0003164241788908839,-0.00039969373028725386
1761402266136150800,4.19615087890625,-0.0003164241788908839,0.0002165007608709857,0.0001498851488577202
1761402266146211800,4.2062119140625,0.0002831163874361664,0.0004163476114626974,0.0002664624771568924
1761402266156292000,4.2162919921875,-0.000016653904822305776,-0.00003330780964461155,0.0002831163874361664
1761402266166374000,4.226373779296875,-0.00011657733557512984,0,-0.00003330780964461155
1761402266176454100,4.2364541015625,0,-0.0001332312385784462,-0.0005495788645930588
1761402266186535200,4.24653515625,0.0005329249543137848,0.0012990045361220837,0.0001332312385784462
1761402266196616200,4.2566162109375,0,0.0001498851488577202,0.0003663859097287059
1761402266206697200,4.266697265625,-0.0005828866851516068,-0.0003164241788908839,-0.0007327718194574118
1761402266216778200,4.2767783203125,0.0001498851488577202,-0.00009992343257181346,-0.00016653904458507895
1761402266226845200,4.28684521484375,-0.00039969373028725386,-0.0005828866851516068,0.00004996171628590673
1761402266236941000,4.296941162109375,0.0003164241788908839,0.00003330780964461155,0.00046630934230051935
1761402266247022000,4.30702197265625,0.00018319295486435294,-0.00019984686514362693,-0.0002831163874361664
1761402266257081300,4.317081298828125,-0.00009992343257181346,-0.00004996171628590673,0.00018319295486435294
1761402266267184400,4.327184326171875,-0.0004163476114626974,-0.00009992343257181346,-0.0002831163874361664
1761402266277265200,4.33726513671875,0.00011657733557512984,0.0001498851488577202,-0.0003497319994494319
1761402266287320600,4.347320556640625,0.0000666156192892231,0.0001332312385784462,-0.00038303982000797987
1761402266297427200,4.35742724609375,-0.0005662327748723328,0.00044965543202124536,0.00019984686514362693
1761402266307508200,4.36750830078125,0.00003330780964461155,0.0002165007608709857,0.0005162710440345109
1761402266317588500,4.37758837890625,-0.00009992343257181346,0.0005495788645930588,0.00018319295486435294
1761402266327670800,4.3876708984375,0.00046630934230051935,0.0006328483577817678,-0.0002664624771568924
1761402266337750800,4.397750732421875,-0.00008326952229253948,0.0006495022680610418,-0.00018319295486435294
1761402266347832800,4.407832763671875,0.0002831163874361664,0.0000666156192892231,-0.0001332312385784462
1761402266357913600,4.41791357421875,0.0005495788645930588,-0.00038303982000797987,0.0000666156192892231
1761402266367995100,4.4279951171875,-0.00039969373028725386,0,-0.00003330780964461155
1761402266378088400,4.43808837890625,-0.0001332312385784462,0.00011657733557512984,0.00003330780964461155
1761402266388152300,4.44815234375,-0.00023315467115025967,-0.0007827335502952337,-0.0002664624771568924
1761402266398237700,4.45823779296875,-0.0005495788645930588,-0.00019984686514362693,-0.00039969373028725386
1761402266408319200,4.4683193359375,-0.0002997702977154404,0.00048296325257979333,0.00018319295486435294
1761402266418395400,4.4783955078125,-0.00004996171628590673,-0.0006161945057101548,-0.00024980856687761843
1761402266428480000,4.48847998046875,-0.00038303982000797987,0.00048296325257979333,0.00009992343257181346
1761402266438561500,4.4985615234375,0.0003497319994494319,0.0005162710440345109,0.0005662327748723328
1761402266448638000,4.508637939453125,-0.00004996171628590673,0.00009992343257181346,0.0011491194600239396
1761402266458724000,4.51872412109375,-0.00009992343257181346,0.0006661561783403158,0.00048296325257979333
1761402266468796200,4.528796142578125,-0.000016653904822305776,-0.0002664624771568924,0.0002664624771568924
1761402266478881800,4.5388818359375,-0.00004996171628590673,0.0005995405954308808,0.00024980856687761843
1761402266488966100,4.548966064453125,-0.0004996171337552369,-0.0003164241788908839,0.00004996171628590673
1761402266499048200,4.559048095703125,0.00008326952229253948,0,0.00009992343257181346
1761402266509129500,4.56912939453125,-0.0003164241788908839,-0.0002664624771568924,0.000016653904822305776
1761402266519184600,4.5791845703125,-0.00004996171628590673,-0.0005995405954308808,0.00039969373028725386
1761402266529290500,4.58929052734375,-0.000016653904822305776,-0.00048296325257979333,-0.0005162710440345109
1761402266539371500,4.59937158203125,0.00019984686514362693,0.0005495788645930588,0.00004996171628590673
1761402266549449500,4.609449462890625,-0.00011657733557512984,-0.0006161945057101548,0.00023315467115025967
1761402266559497700,4.619497802734375,-0.00023315467115025967,-0.00024980856687761843,0.0005162710440345109
1761402266569589200,4.62958935546875,0.0000666156192892231,0.00018319295486435294,-0.00039969373028725386
1761402266579696400,4.6396962890625,-0.0002664624771568924,0.00019984686514362693,0.0005495788645930588
1761402266589784800,4.649784912109375,-0.0003663859097287059,0.00009992343257181346,0.0003663859097287059
1761402266599858000,4.65985791015625,-0.0002664624771568924,0.0007993874605745077,-0.00011657733557512984
1761402266609936000,4.669935791015625,0.0001332312385784462,0.0006994639988988638,0.0000666156192892231
1761402266620020000,4.68002001953125,-0.00038303982000797987,-0.00048296325257979333,-0.0003497319994494319
1761402266630100700,4.690100830078125,0.00011657733557512984,0.0001332312385784462,-0.00004996171628590673
1761402266640182000,4.70018212890625,-0.00003330780964461155,0.00004996171628590673,-0.00038303982000797987
1761402266650263000,4.710262939453125,0.0002165007608709857,0.00023315467115025967,-0.0000666156192892231
1761402266660319200,4.7203193359375,-0.00038303982000797987,0.00004996171628590673,-0.00044965543202124536
1761402266670425000,4.730425048828125,-0.00018319295486435294,0.0003497319994494319,0.00016653904458507895
1761402266680502500,4.74050244140625,0.00003330780964461155,-0.0006994639988988638,0.00009992343257181346
1761402266690588000,4.750587890625,-0.0005828866851516068,-0.00046630934230051935,0.00038303982000797987
1761402266700669000,4.7606689453125,-0.000016653904822305776,-0.0004330015217419714,0
1761402266710750200,4.770750244140625,0.00004996171628590673,-0.0009159647743217647,0.000016653904822305776
1761402266720805400,4.780805419921875,-0.0006328483577817678,-0.00048296325257979333,-0.00023315467115025967
1761402266730911200,4.7909111328125,-0.0003497319994494319,-0.0002831163874361664,0.0007494257297366858
1761402266740988700,4.80098876953125,-0.0005662327748723328,-0.0007161179091781378,0.0008326952229253948
1761402266751073500,4.811073486328125,-0.00019984686514362693,-0.00039969373028725386,0.0002831163874361664
1761402266761130500,4.821130615234375,-0.00023315467115025967,-0.00039969373028725386,0.0004330015217419714
1761402266771236600,4.831236572265625,-0.0004330015217419714,-0.000016653904822305776,0.00018319295486435294
1761402266781317000,4.841317138671875,0.0002997702977154404,0.0007494257297366858,-0.00004996171628590673
1761402266791398700,4.851398681640625,0,-0.00039969373028725386,-0.00011657733557512984
1761402266801475300,4.861475341796875,-0.0002664624771568924,-0.00039969373028725386,-0.0000666156192892231
1761402266811551700,4.8715517578125,0.00009992343257181346,0.00018319295486435294,0.0007993874605745077
1761402266821650000,4.88164990234375,0.00009992343257181346,-0.0001332312385784462,-0.0001498851488577202
1761402266831697000,4.89169677734375,0.0002831163874361664,0.00038303982000797987,0.00018319295486435294
1761402266841759200,4.90175927734375,0.00016653904458507895,-0.0005162710440345109,0.00019984686514362693
1761402266851884000,4.911884033203125,-0.0006994639988988638,-0.00004996171628590673,0.0005828866851516068
1761402266861943300,4.921943359375,-0.00023315467115025967,0.0005995405954308808,0.0000666156192892231
1761402266872042500,4.93204248046875,-0.00011657733557512984,0.00011657733557512984,-0.00008326952229253948
1761402266882128000,4.9421279296875,-0.0003497319994494319,0.00018319295486435294,0.0003663859097287059
1761402266892209200,4.952209228515625,-0.0006495022680610418,0.000016653904822305776,0.0004330015217419714
1761402266902267400,4.962267333984375,-0.00004996171628590673,0.0002831163874361664,-0.0003330780891701579
1761402266912370700,4.97237060546875,0.00003330780964461155,-0.00024980856687761843,-0.00003330780964461155
1761402266922452200,4.9824521484375,-0.00018319295486435294,-0.00044965543202124536,-0.00004996171628590673
1761402266932529200,4.992529052734375,0.0001498851488577202,0.0005329249543137848,0.0006661561783403158
1761402266942595600,5.002595703125,-0.00003330780964461155,0.0008660030434839427,0.00009992343257181346
1761402266952669700,5.012669677734375,0.00046630934230051935,-0.00019984686514362693,0.0001332312385784462
1761402266962775800,5.02277587890625,0.0012157351011410356,0.0004996171337552369,0.00039969373028725386
1761402266972831200,5.032831298828125,0.0003164241788908839,-0.0002831163874361664,0.00019984686514362693
1761402266982938000,5.042938232421875,-0.00011657733557512984,-0.00003330780964461155,-0.00019984686514362693
1761402266993019100,5.05301904296875,0.00016653904458507895,0.0002997702977154404,-0.00011657733557512984
1761402267003096000,5.063095947265625,-0.0008660030434839427,0.000016653904822305776,-0.0012323890114203095
1761402267013181400,5.073181396484375,-0.00004996171628590673,-0.00011657733557512984,-0.0001498851488577202
1761402267023261700,5.08326171875,0.0003663859097287059,-0.00019984686514362693,0.0002165007608709857
1761402267033343500,5.093343505859375,0.0001332312385784462,0.00024980856687761843,-0.0002664624771568924
1761402267043400400,5.103400390625,-0.0006994639988988638,0,0.0003330780891701579
1761402267053505500,5.113505615234375,-0.00011657733557512984,0.00024980856687761843,0.00024980856687761843
1761402267063582200,5.123582275390625,0.00018319295486435294,0.00024980856687761843,0.00038303982000797987
1761402267073667600,5.13366748046875,-0.0005162710440345109,0.00003330780964461155,-0.00011657733557512984
1761402267083748600,5.14374853515625,0,-0.0007494257297366858,0.0003663859097287059
1761402267093830000,5.153829833984375,-0.0001332312385784462,-0.0003663859097287059,0.0001332312385784462
1761402267103910100,5.16391015625,0.00039969373028725386,0.0006994639988988638,0.0002997702977154404
1761402267113991000,5.173990966796875,0.00008326952229253948,-0.0000666156192892231,-0.0001498851488577202
1761402267124068400,5.184068359375,-0.00004996171628590673,0.0002165007608709857,-0.0002664624771568924
1761402267134153200,5.1941533203125,-0.00004996171628590673,-0.00018319295486435294,0.00009992343257181346
1761402267144235000,5.204235107421875,-0.0001332312385784462,0.00004996171628590673,-0.0005495788645930588
1761402267154316000,5.21431591796875,-0.00011657733557512984,0.00019984686514362693,-0.00019984686514362693
1761402267164396500,5.224396484375,0.0002997702977154404,0.00019984686514362693,0.0007327718194574118
1761402267174452200,5.2344521484375,-0.00008326952229253948,0.0008660030434839427,-0.00003330780964461155
1761402267184558800,5.244558837890625,0.00038303982000797987,0.0008326952229253948,0.00023315467115025967
1761402267194615300,5.254615234375,-0.00008326952229253948,0.0002165007608709857,0.0006161945057101548
1761402267204721200,5.26472119140625,0.00038303982000797987,0.00048296325257979333,0
1761402267214789400,5.274789306640625,0.00018319295486435294,-0.0000666156192892231,0.00004996171628590673
1761402267224882400,5.28488232421875,-0.0005329249543137848,-0.0000666156192892231,0.0003164241788908839
1761402267234963700,5.294963623046875,-0.00039969373028725386,0.0004996171337552369,0.00008326952229253948
1761402267245045200,5.305045166015625,0.00003330780964461155,0.0006495022680610418,0.00038303982000797987
1761402267255126800,5.315126708984375,0.0008326952229253948,0.00019984686514362693,-0.0002165007608709857
1761402267265206800,5.325206787109375,-0.0002664624771568924,0.00046630934230051935,-0.0001498851488577202
1761402267275288300,5.335288330078125,-0.0003164241788908839,0.00019984686514362693,0.00003330780964461155
1761402267285368800,5.345368896484375,0.00008326952229253948,0.0006828100886195898,0.0001332312385784462
1761402267295443000,5.35544287109375,-0.00016653904458507895,0,0
1761402267305531600,5.36553173828125,0.00008326952229253948,-0.0000666156192892231,0.0003663859097287059
1761402267315612400,5.3756123046875,0.0002997702977154404,0.00003330780964461155,0.0001498851488577202
1761402267325693200,5.385693115234375,0.00018319295486435294,-0.0003330780891701579,0.00009992343257181346
1761402267335775000,5.39577490234375,0.0002831163874361664,0.00008326952229253948,-0.0000666156192892231
1761402267345830400,5.405830322265625,-0.00024980856687761843,-0.0002831163874361664,0.00009992343257181346
1761402267355936000,5.41593603515625,-0.0006994639988988638,-0.0001498851488577202,-0.0000666156192892231
1761402267366017500,5.426017578125,0.00004996171628590673,-0.0006328483577817678,0.0003164241788908839
1761402267376098300,5.436098388671875,0.0003497319994494319,0.00004996171628590673,0.00046630934230051935
1761402267386180000,5.44618017578125,-0.00044965543202124536,-0.00008326952229253948,0.000016653904822305776
1761402267396260000,5.456260009765625,-0.00008326952229253948,-0.0003330780891701579,-0.00009992343257181346
1761402267406341000,5.466341064453125,0.00004996171628590673,0.00039969373028725386,-0.0005329249543137848
1761402267416423700,5.476423583984375,0.00011657733557512984,0.0011324655497446656,-0.00048296325257979333
1761402267426503400,5.48650341796875,0.00023315467115025967,-0.0004996171337552369,0.0003164241788908839
1761402267436585200,5.496585205078125,0.0002165007608709857,0.0008993108640424907,-0.0005495788645930588
1761402267446666200,5.506666259765625,-0.00023315467115025967,0.00038303982000797987,-0.0006661561783403158
1761402267456739800,5.51673974609375,0.00011657733557512984,0.00023315467115025967,-0.0001332312385784462
1761402267466827800,5.526827880859375,-0.00009992343257181346,0.0000666156192892231,-0.0010325420880690217
1761402267476909000,5.536908935546875,-0.00018319295486435294,0.00039969373028725386,0.00023315467115025967
1761402267486964000,5.5469638671875,0.00008326952229253948,0.0006328483577817678,0.0006161945057101548
1761402267497071600,5.557071533203125,0.00019984686514362693,0.0002831163874361664,0.00038303982000797987
1761402267507126500,5.56712646484375,-0.0007161179091781378,0.0000666156192892231,-0.0003330780891701579
1761402267517233700,5.577233642578125,0.00003330780964461155,-0.0003330780891701579,0.00011657733557512984
1761402267527313700,5.587313720703125,0.0005828866851516068,-0.00023315467115025967,0.0002664624771568924
1761402267537396200,5.597396240234375,0.00039969373028725386,-0.0006828100886195898,0.00009992343257181346
1761402267547476500,5.6074765625,0.0005495788645930588,0.00009992343257181346,0.0008326952229253948
1761402267557558000,5.61755810546875,0.0003330780891701579,-0.00003330780964461155,-0.0001332312385784462
1761402267567638000,5.627637939453125,0.00044965543202124536,-0.00011657733557512984,0.0009659265051595867
1761402267577720000,5.637719970703125,0.0000666156192892231,-0.00044965543202124536,-0.0003663859097287059
1761402267587800800,5.64780078125,-0.0001332312385784462,-0.0003497319994494319,0.00018319295486435294
1761402267597836500,5.65783642578125,0.00038303982000797987,-0.00039969373028725386,0.00039969373028725386
1761402267607962600,5.667962646484375,0.0006828100886195898,0.0002165007608709857,-0.0000666156192892231
1761402267618041600,5.67804150390625,0.00008326952229253948,-0.0001498851488577202,-0.0003164241788908839
1761402267628120300,5.688120361328125,-0.0001332312385784462,0.0003663859097287059,-0.0002831163874361664
1761402267638201600,5.69820166015625,-0.0002165007608709857,0.00018319295486435294,0.0005162710440345109
1761402267648285400,5.708285400390625,-0.0002664624771568924,0.0003497319994494319,-0.0004330015217419714
1761402267658368300,5.7183681640625,0.0004163476114626974,-0.0006161945057101548,-0.0010158881777897477
1761402267668448500,5.728448486328125,-0.0003663859097287059,-0.00024980856687761843,-0.00003330780964461155
1761402267678529800,5.73852978515625,-0.00009992343257181346,-0.0005329249543137848,-0.0003497319994494319
1761402267688610600,5.748610595703125,0.0006161945057101548,-0.0001332312385784462,-0.0002831163874361664
1761402267698687500,5.7586875,-0.0001332312385784462,-0.0001332312385784462,-0.00016653904458507895
1761402267708751000,5.768751220703125,0.0002165007608709857,-0.0002831163874361664,-0.00024980856687761843
1761402267718853400,5.778853271484375,0,-0.0004996171337552369,0.00011657733557512984
1761402267728921000,5.788921142578125,-0.00004996171628590673,0.000016653904822305776,0.00023315467115025967
1761402267739015700,5.799015625,0.00009992343257181346,0.00018319295486435294,-0.00003330780964461155
1761402267749097500,5.809097412109375,-0.00008326952229253948,0.00016653904458507895,-0.0005495788645930588
1761402267759174100,5.819174072265625,-0.0003497319994494319,-0.00024980856687761843,-0.00011657733557512984
1761402267769259000,5.829259033203125,-0.0004163476114626974,0.00023315467115025967,-0.00011657733557512984
1761402267779340800,5.8393408203125,-0.0003663859097287059,0.0001498851488577202,0
1761402267789421000,5.849421142578125,0.00038303982000797987,0.0001498851488577202,-0.00008326952229253948
1761402267799503000,5.859503173828125,0.00004996171628590673,-0.00039969373028725386,0.0002831163874361664
1761402267809583400,5.869583251953125,-0.00024980856687761843,0.0004330015217419714,0.0003330780891701579
1761402267819665000,5.879664794921875,-0.0006161945057101548,0.0002165007608709857,-0.00019984686514362693
1761402267829741300,5.8897412109375,0,-0.0002165007608709857,-0.0003330780891701579
1761402267839826200,5.899826171875,-0.0010158881777897477,0.0004163476114626974,-0.0000666156192892231
1761402267849908200,5.909908203125,-0.00044965543202124536,-0.0003164241788908839,0.0005828866851516068
1761402267859975200,5.91997509765625,-0.0002664624771568924,-0.00003330780964461155,-0.00044965543202124536
1761402267870070300,5.9300703125,-0.00003330780964461155,-0.0011324655497446656,-0.00019984686514362693
1761402267880151000,5.940151123046875,-0.00009992343257181346,-0.00004996171628590673,0.0007327718194574118
1761402267890227500,5.9502275390625,0.0003330780891701579,-0.0005828866851516068,0.0007993874605745077
1761402267900287000,5.960286865234375,0.0000666156192892231,0.00019984686514362693,0.0002664624771568924
1761402267910393300,5.970393310546875,0.00003330780964461155,-0.00003330780964461155,0.00019984686514362693
1761402267920475400,5.980475341796875,0.0003330780891701579,0.00048296325257979333,0.0000666156192892231
1761402267930556400,5.990556396484375,0.00039969373028725386,-0.0002664624771568924,0.0002664624771568924
1761402267940637400,6.000637451171875,0.0007161179091781378,-0.00038303982000797987,-0.00039969373028725386
1761402267950718200,6.01071826171875,0.00009992343257181346,-0.0002997702977154404,-0.0002831163874361664
1761402267960773600,6.020773681640625,-0.0009492725948803127,-0.00023315467115025967,0.0005995405954308808
1761402267970880800,6.030880859375,0.0003497319994494319,-0.00024980856687761843,0.0009825803572311997
1761402267980934700,6.0409345703125,-0.0003497319994494319,-0.0003497319994494319,-0.00023315467115025967
1761402267991022600,6.051022705078125,-0.00003330780964461155,0.0001498851488577202,0.0002165007608709857
1761402268001097700,6.06109765625,-0.0001332312385784462,-0.0002997702977154404,0.0004996171337552369
1761402268011204000,6.0712041015625,-0.0003330780891701579,-0.0002831163874361664,-0.00023315467115025967
1761402268021281500,6.081281494140625,0.00019984686514362693,-0.00024980856687761843,-0.0006828100886195898
1761402268031366100,6.0913662109375,0.0001332312385784462,0.0002831163874361664,0.00009992343257181346
1761402268041447200,6.101447265625,-0.0005495788645930588,0.0003330780891701579,-0.0005162710440345109
1761402268051528200,6.111528076171875,-0.00038303982000797987,0.00009992343257181346,-0.0004330015217419714
1761402268061610000,6.12160986328125,0.00003330780964461155,0.00038303982000797987,-0.0000666156192892231
1761402268071690200,6.131690185546875,0.0004163476114626974,0.00023315467115025967,-0.00046630934230051935
1761402268081767400,6.141767333984375,0.00009992343257181346,0.0004996171337552369,0.00023315467115025967
1761402268091851800,6.151851806640625,-0.00039969373028725386,0.0003330780891701579,-0.0008160413126461208
1761402268101933600,6.16193359375,0.0005662327748723328,0.00018319295486435294,-0.0004330015217419714
1761402268112014800,6.172014892578125,-0.0002997702977154404,-0.00019984686514362693,-0.0002664624771568924
1761402268122095600,6.182095703125,0.00009992343257181346,-0.00009992343257181346,-0.0003330780891701579
1761402268132177700,6.192177734375,0.0002831163874361664,0.0003164241788908839,-0.0003164241788908839
1761402268142255900,6.202255859375,0.00044965543202124536,-0.0002165007608709857,-0.0003663859097287059
1761402268152334800,6.2123349609375,0.0001498851488577202,-0.0002997702977154404,0.0002997702977154404
1761402268162420500,6.22242041015625,0,0.0003330780891701579,-0.00009992343257181346
1761402268172500700,6.232500732421875,0.00016653904458507895,-0.0006828100886195898,-0.00008326952229253948
1761402268182582800,6.242582763671875,0.00046630934230051935,0.0003330780891701579,-0.00019984686514362693
1761402268192662800,6.252662841796875,-0.0001498851488577202,-0.00016653904458507895,0.0003164241788908839
1761402268202745000,6.2627451171875,-0.00004996171628590673,0.0000666156192892231,-0.000016653904822305776
1761402268212821000,6.272821044921875,0.000016653904822305776,-0.0003164241788908839,0.0004996171337552369
1761402268222906000,6.282906005859375,0,0.00023315467115025967,0.00004996171628590673
1761402268232987400,6.2929873046875,-0.0002831163874361664,0.0007660796400159597,-0.0001498851488577202
1761402268243068200,6.303068115234375,0.0002997702977154404,0.0000666156192892231,0.00018319295486435294
1761402268253126000,6.3131259765625,0.00011657733557512984,0,-0.00003330780964461155
1761402268263231000,6.32323095703125,-0.0003164241788908839,0.0002831163874361664,-0.0002997702977154404
1761402268273269800,6.333269775390625,0.00011657733557512984,0.00048296325257979333,0.0001498851488577202
1761402268283389000,6.343388916015625,-0.00018319295486435294,0.0009825803572311997,0.00023315467115025967
1761402268293473500,6.3534736328125,-0.0002997702977154404,-0.0005162710440345109,-0.00019984686514362693
1761402268303529500,6.363529541015625,0.0006994639988988638,-0.00016653904458507895,0.00003330780964461155
1761402268313636000,6.373635986328125,-0.00003330780964461155,-0.0009992342675104737,-0.00018319295486435294
1761402268323672600,6.383672607421875,-0.0001332312385784462,-0.0001332312385784462,-0.0001498851488577202
1761402268333772500,6.3937724609375,-0.0002664624771568924,-0.0005995405954308808,0.0003663859097287059
1761402268343864800,6.40386474609375,-0.0003663859097287059,0.0002997702977154404,-0.00023315467115025967
1761402268353959400,6.41395947265625,0.00009992343257181346,0.00003330780964461155,0.00009992343257181346
1761402268364015400,6.424015380859375,0.0005495788645930588,-0.0005828866851516068,-0.00019984686514362693
1761402268374122500,6.43412255859375,-0.00024980856687761843,-0.0004163476114626974,-0.000016653904822305776
1761402268384203800,6.444203857421875,0.000016653904822305776,0.0003497319994494319,-0.00003330780964461155
1761402268394244600,6.45424462890625,0,-0.00048296325257979333,-0.0002165007608709857
1761402268404365800,6.46436572265625,-0.0006495022680610418,-0.00008326952229253948,0.00016653904458507895
1761402268414445600,6.474445556640625,0.00016653904458507895,-0.0002831163874361664,-0.0003164241788908839
1761402268424528000,6.48452783203125,0.0002831163874361664,-0.00004996171628590673,0.00016653904458507895
1761402268434607900,6.49460791015625,0.00048296325257979333,-0.0005329249543137848,0.0008326952229253948
1761402268444689000,6.50468896484375,0.00023315467115025967,-0.0006161945057101548,0.0002664624771568924
1761402268454770700,6.514770751953125,0.0001498851488577202,-0.00003330780964461155,0.0001498851488577202
1761402268464825900,6.524825927734375,0.00019984686514362693,-0.0002165007608709857,0.00019984686514362693
1761402268474907100,6.5349072265625,0.00008326952229253948,-0.00023315467115025967,0.00008326952229253948
1761402268484988200,6.54498828125,0.00044965543202124536,-0.0001332312385784462,0.00018319295486435294
1761402268495068700,6.555068603515625,-0.00003330780964461155,0.0006495022680610418,0.0005162710440345109
1761402268505150200,6.565150146484375,-0.0002664624771568924,-0.0000666156192892231,0.0006661561783403158
1761402268515257000,6.575257080078125,0.0003497319994494319,0.0001498851488577202,0.0002997702977154404
1761402268525337600,6.585337646484375,-0.00024980856687761843,0.0010825038189068437,0.000016653904822305776
1761402268535418400,6.59541845703125,0.00018319295486435294,-0.0003330780891701579,-0.0004163476114626974
1761402268545476400,6.605476318359375,-0.0002664624771568924,-0.0003497319994494319,0.00038303982000797987
1761402268555581200,6.615581298828125,-0.00008326952229253948,0.00004996171628590673,0.0005329249543137848
1761402268565662000,6.625661865234375,-0.00048296325257979333,0.0004330015217419714,-0.0003330780891701579
1761402268575742500,6.635742431640625,0.0000666156192892231,-0.0004330015217419714,0.00008326952229253948
1761402268585823700,6.64582373046875,-0.00016653904458507895,0.00016653904458507895,-0.0004163476114626974
1761402268595904500,6.655904541015625,-0.00003330780964461155,-0.00009992343257181346,-0.00044965543202124536
1761402268605963300,6.66596337890625,0,-0.00024980856687761843,-0.0006495022680610418
1761402268616054500,6.676054443359375,-0.0005828866851516068,-0.00046630934230051935,0.0003330780891701579
1761402268626147800,6.68614794921875,0.00004996171628590673,-0.0011158116394653916,0.00016653904458507895
1761402268636229600,6.696229736328125,0.0000666156192892231,-0.0006828100886195898,0.00004996171628590673
1761402268646310700,6.706310546875,-0.00004996171628590673,0.0005662327748723328,0.0001332312385784462
1761402268656390700,6.716390625,0.00018319295486435294,-0.0002664624771568924,0.0003330780891701579
1761402268666473500,6.726473388671875,0.00044965543202124536,-0.0005495788645930588,0.0002831163874361664
1761402268676553500,6.736553466796875,-0.0006161945057101548,-0.00009992343257181346,-0.0003164241788908839
1761402268686634500,6.746634521484375,0.00046630934230051935,-0.00003330780964461155,-0.0002664624771568924
1761402268696715500,6.756715576171875,-0.0003330780891701579,-0.0002165007608709857,-0.0007161179091781378
1761402268706764500,6.7667646484375,-0.00023315467115025967,-0.0001332312385784462,-0.0001498851488577202
1761402268716877800,6.7768779296875,-0.0001332312385784462,0.0002831163874361664,0.00016653904458507895
1761402268737042700,6.797042724609375,0.0002664624771568924,-0.00004996171628590673,0.0004330015217419714
1761402268747121400,6.807121337890625,0,0.00046630934230051935,0.00009992343257181346
1761402268757202400,6.817202392578125,0.0004330015217419714,-0.0007327718194574118,-0.0004996171337552369
1761402268767282700,6.82728271484375,0.0002664624771568924,-0.0001332312385784462,-0.0010491959983482957
1761402268777364500,6.837364501953125,0.000016653904822305776,0.0002997702977154404,-0.0007993874605745077
1761402268787444500,6.847444580078125,0.0004996171337552369,0.00019984686514362693,-0.00019984686514362693
1761402268797525800,6.85752587890625,-0.00018319295486435294,-0.0003164241788908839,0.0005329249543137848
1761402268807607000,6.86760693359375,0.0001498851488577202,-0.00046630934230051935,-0.00003330780964461155
1761402268817687800,6.877687744140625,0.00019984686514362693,-0.00023315467115025967,-0.0001332312385784462
1761402268827769000,6.88776904296875,0.00011657733557512984,-0.0011491194600239396,0
1761402268837850000,6.89785009765625,0.000016653904822305776,0.0005828866851516068,-0.0005329249543137848
1761402268847906300,6.90790625,0.0003164241788908839,-0.00003330780964461155,-0.0007827335502952337
1761402268858009900,6.918009765625,-0.0003164241788908839,-0.0001332312385784462,-0.0004330015217419714
1761402268868089600,6.928089599609375,-0.0003663859097287059,-0.0002165007608709857,-0.0003663859097287059
1761402268878146000,6.93814599609375,0.00019984686514362693,-0.00044965543202124536,0.00019984686514362693
1761402268888256000,6.948256103515625,-0.00018319295486435294,0,0.0000666156192892231
1761402268898336000,6.9583359375,-0.0004163476114626974,-0.00048296325257979333,-0.0002831163874361664
1761402268908417800,6.968417724609375,0.0001332312385784462,-0.0010825038189068437,-0.0007827335502952337
1761402268918474500,6.978474609375,0.00011657733557512984,0.00016653904458507895,-0.00023315467115025967
1761402268928555500,6.988555419921875,-0.000016653904822305776,-0.0002831163874361664,0.0004330015217419714
1761402268938661000,6.9986611328125,-0.0000666156192892231,0.000016653904822305776,-0.00009992343257181346
1761402268948741600,7.00874169921875,0.00023315467115025967,-0.0001332312385784462,0.00018319295486435294
1761402268958822700,7.01882275390625,-0.0002664624771568924,-0.0003497319994494319,-0.00044965543202124536
1761402268968864300,7.0288642578125,0.00008326952229253948,0.0002831163874361664,-0.00003330780964461155
1761402268978981000,7.038981201171875,0.00008326952229253948,0.00023315467115025967,0.0004163476114626974
1761402268989040400,7.049040283203125,-0.00008326952229253948,-0.00016653904458507895,-0.00011657733557512984
1761402268999147000,7.05914697265625,-0.00003330780964461155,-0.00046630934230051935,0.0007827335502952337
1761402269009241300,7.069241455078125,0.0002997702977154404,-0.0006828100886195898,0.0001332312385784462
1761402269019308500,7.07930859375,0.0003330780891701579,-0.00023315467115025967,0.00024980856687761843
1761402269029390800,7.089390869140625,-0.00044965543202124536,0.0004996171337552369,-0.00004996171628590673
1761402269039466800,7.099466796875,0.0000666156192892231,0.0005162710440345109,-0.00048296325257979333
1761402269049552400,7.109552490234375,-0.00016653904458507895,0.00009992343257181346,-0.0005828866851516068
1761402269059613000,7.119613037109375,0.0001332312385784462,-0.0002997702977154404,0.00024980856687761843
1761402269069714000,7.1297138671875,0.00009992343257181346,0.0002664624771568924,0
1761402269079795200,7.139795166015625,-0.0005162710440345109,-0.0006661561783403158,0.00046630934230051935
1761402269089875700,7.149875732421875,0.00023315467115025967,-0.00023315467115025967,-0.00018319295486435294
1761402269099957000,7.15995703125,-0.0002831163874361664,-0.0008493491332046688,0
1761402269110034000,7.170033935546875,-0.0001332312385784462,-0.00024980856687761843,-0.0002831163874361664
1761402269120119000,7.180119140625,-0.0005995405954308808,-0.0005495788645930588,-0.00008326952229253948
1761402269130200000,7.190199951171875,0.00008326952229253948,0.0001332312385784462,0.00046630934230051935
1761402269140281300,7.20028125,0.0001332312385784462,0.0006661561783403158,-0.0003663859097287059
1761402269150363000,7.21036279296875,0.000016653904822305776,-0.00024980856687761843,-0.0009659265051595867
1761402269160443400,7.220443359375,0.0005995405954308808,0.0002831163874361664,0.00009992343257181346
1761402269170520000,7.23052001953125,0.0002831163874361664,0.00038303982000797987,0.0003497319994494319
1761402269180605700,7.240605712890625,0.00009992343257181346,0.0003663859097287059,0.0001498851488577202
1761402269190686000,7.25068603515625,0.0000666156192892231,-0.00011657733557512984,-0.00018319295486435294
1761402269200767500,7.260767578125,0.0007327718194574118,0.000016653904822305776,0.00008326952229253948
1761402269210849000,7.27084912109375,0.0005495788645930588,0.0011158116394653916,0.00019984686514362693
1761402269220907800,7.28090771484375,0.0002165007608709857,0.0004996171337552369,0.0002997702977154404
1761402269231007500,7.291007568359375,0.0002664624771568924,-0.00018319295486435294,-0.0005329249543137848
1761402269241087700,7.301087646484375,-0.0003663859097287059,-0.0003663859097287059,-0.00024980856687761843
1761402269251173000,7.311173095703125,0.00024980856687761843,0.0005329249543137848,-0.0003497319994494319
1761402269261264100,7.32126416015625,-0.00011657733557512984,0.0005495788645930588,-0.00008326952229253948
1761402269271334700,7.331334716796875,-0.0005828866851516068,0.0005495788645930588,0.0003164241788908839
1761402269281416000,7.341416015625,0.0003663859097287059,-0.00048296325257979333,-0.00016653904458507895
1761402269291497500,7.35149755859375,-0.00009992343257181346,0.0003330780891701579,0.0007161179091781378
1761402269301574000,7.361573974609375,0.0000666156192892231,0.00003330780964461155,0.0002664624771568924
1761402269311659000,7.371658935546875,-0.00039969373028725386,-0.00004996171628590673,-0.00008326952229253948
1761402269321740300,7.381740234375,0.0001332312385784462,0.00019984686514362693,-0.0006495022680610418
1761402269331821600,7.391821533203125,0.00011657733557512984,0.0005995405954308808,-0.0008493491332046688
1761402269341903000,7.401903076171875,0.0003497319994494319,-0.0001498851488577202,-0.0005828866851516068
1761402269351983900,7.41198388671875,0.00044965543202124536,-0.0002997702977154404,-0.0008326952229253948
1761402269362060800,7.422060791015625,0.00023315467115025967,-0.00024980856687761843,-0.00016653904458507895
1761402269372145200,7.432145263671875,-0.0003497319994494319,0.0006828100886195898,-0.0006828100886195898
1761402269382201300,7.442201416015625,0,-0.0002165007608709857,-0.00016653904458507895
1761402269392307700,7.4523076171875,-0.0004330015217419714,-0.0008993108640424907,-0.0001498851488577202
1761402269402389000,7.462388916015625,0.0002997702977154404,-0.0003330780891701579,-0.0004163476114626974
1761402269412444200,7.472444091796875,-0.0002664624771568924,-0.0007327718194574118,-0.00016653904458507895
1761402269422550800,7.48255078125,0.0001332312385784462,-0.0012323890114203095,0.0007993874605745077
1761402269432627700,7.492627685546875,-0.0002664624771568924,-0.00018319295486435294,-0.0004330015217419714
1761402269442713000,7.502713134765625,-0.00004996171628590673,-0.00039969373028725386,0.0004163476114626974
1761402269452793300,7.51279345703125,-0.00011657733557512984,-0.00046630934230051935,0.0002165007608709857
1761402269462874600,7.52287451171875,0.00011657733557512984,-0.00003330780964461155,0.00004996171628590673
1761402269472956000,7.532955810546875,-0.00039969373028725386,-0.0001332312385784462,-0.00038303982000797987
1761402269483011600,7.543011474609375,-0.00024980856687761843,-0.0006994639988988638,-0.00024980856687761843
1761402269493114600,7.553114501953125,0.00004996171628590673,0.00011657733557512984,0.00024980856687761843
1761402269503188700,7.563188720703125,0.0003497319994494319,-0.00024980856687761843,0.00003330780964461155
1761402269513280500,7.573280517578125,-0.00024980856687761843,0.0003663859097287059,0.0002831163874361664
1761402269523335400,7.58333544921875,-0.0006161945057101548,0.0007494257297366858,0.0002831163874361664
1761402269533442600,7.593442626953125,-0.0002831163874361664,0.0004996171337552369,-0.0002664624771568924
1761402269543494400,7.603494384765625,-0.00003330780964461155,0.0006994639988988638,-0.0005828866851516068
1761402269553579000,7.6135791015625,0.0004996171337552369,-0.0003497319994494319,0
1761402269563681300,7.623681396484375,0.0003330780891701579,0.0004330015217419714,0.0005162710440345109
1761402269573766100,7.63376611328125,-0.00011657733557512984,-0.00019984686514362693,-0.00039969373028725386
1761402269583847400,7.643847412109375,0.00044965543202124536,0.00008326952229253948,-0.00018319295486435294
1761402269593928200,7.65392822265625,0.0006828100886195898,-0.00024980856687761843,-0.00009992343257181346
1761402269604009200,7.66400927734375,0.00018319295486435294,0.00038303982000797987,-0.0003164241788908839
1761402269614090800,7.6740908203125,0,-0.0002831163874361664,-0.0002831163874361664
1761402269624167400,7.68416748046875,-0.00024980856687761843,0.0002997702977154404,-0.000016653904822305776
1761402269634253600,7.694253662109375,0.00018319295486435294,0.0005495788645930588,-0.00016653904458507895
1761402269644333800,7.704333740234375,-0.0004330015217419714,0.0010325420880690217,0.00024980856687761843
1761402269654382600,7.714382568359375,0.00004996171628590673,0,-0.00009992343257181346
1761402269664495000,7.7244951171875,0.0004996171337552369,0.0006495022680610418,-0.0002997702977154404
1761402269674576600,7.73457666015625,0.0002997702977154404,-0.00011657733557512984,-0.0002664624771568924
1761402269684658200,7.744658203125,0.0004330015217419714,0.0007161179091781378,0.0003663859097287059
1761402269694738700,7.75473876953125,-0.00004996171628590673,0.0015321592800319195,-0.0000666156192892231
1761402269704820200,7.7648203125,-0.00048296325257979333,0.0008660030434839427,0.0000666156192892231
1761402269714900700,7.774900634765625,-0.000016653904822305776,0.00019984686514362693,0.0001498851488577202
1761402269724981500,7.7849814453125,-0.0001332312385784462,-0.00046630934230051935,0.0004163476114626974
1761402269735062800,7.795062744140625,-0.0001498851488577202,0.0001498851488577202,-0.0002664624771568924
1761402269745144600,7.80514453125,0.00008326952229253948,-0.00039969373028725386,-0.00018319295486435294
1761402269755225600,7.8152255859375,0.0003164241788908839,0.0006994639988988638,-0.0004163476114626974
1761402269765306000,7.82530615234375,-0.0004330015217419714,-0.00018319295486435294,0.0004330015217419714
1761402269775387400,7.835387451171875,-0.00011657733557512984,0.00003330780964461155,-0.00023315467115025967
1761402269785468400,7.845468505859375,0.00023315467115025967,0.000016653904822305776,-0.00004996171628590673
1761402269795549700,7.8555498046875,-0.0002831163874361664,-0.00024980856687761843,0.0002997702977154404
1761402269805630200,7.865630126953125,0.00011657733557512984,-0.0010158881777897477,-0.0002664624771568924
1761402269815709000,7.875708984375,-0.00048296325257979333,0.00004996171628590673,-0.00011657733557512984
1761402269825768400,7.8857685546875,-0.0003497319994494319,-0.0006495022680610418,0.00008326952229253948
1761402269835874300,7.895874267578125,-0.0002831163874361664,0.0003164241788908839,-0.000016653904822305776
1761402269845929200,7.90592919921875,0.00018319295486435294,-0.00046630934230051935,0.0002831163874361664
1761402269866116000,7.9261162109375,0.0000666156192892231,-0.0002165007608709857,-0.0003330780891701579
1761402269876197600,7.93619775390625,-0.0006495022680610418,0.0006161945057101548,0.00004996171628590673
1761402269886236700,7.946236572265625,0.0001498851488577202,-0.0002165007608709857,-0.0004330015217419714
1761402269896360200,7.956360107421875,0.0002831163874361664,-0.0002165007608709857,-0.0000666156192892231
1761402269906441500,7.96644140625,0.00004996171628590673,0.0007161179091781378,-0.00018319295486435294
1761402269916522200,7.976522216796875,-0.00003330780964461155,-0.00016653904458507895,-0.00011657733557512984
1761402269926603000,7.98660302734375,0.00011657733557512984,0.0000666156192892231,0.0001498851488577202
1761402269936684000,7.99668408203125,-0.0001498851488577202,-0.00024980856687761843,-0.00008326952229253948
1761402269946765600,8.006765625,0.00011657733557512984,0.0003330780891701579,-0.0005162710440345109
1761402269956866600,8.016866455078125,-0.0001332312385784462,0.00044965543202124536,-0.00008326952229253948
1761402269966927600,8.026927734375,-0.0001498851488577202,-0.0008160413126461208,-0.0005329249543137848
1761402269977009200,8.037009033203125,-0.0003497319994494319,0.00019984686514362693,-0.0010158881777897477
1761402269987081700,8.047081787109375,0.00039969373028725386,0.00011657733557512984,-0.000016653904822305776
1761402269997171000,8.0571708984375,0.0002664624771568924,-0.0004330015217419714,-0.00023315467115025967
1761402270007251200,8.067251220703126,-0.0003497319994494319,-0.00016653904458507895,-0.0000666156192892231
1761402270017332700,8.077332763671874,0,-0.0005995405954308808,-0.0004330015217419714
1761402270027413000,8.0874130859375,-0.000016653904822305776,0.0008660030434839427,0.00019984686514362693
1761402270037494300,8.097494384765625,0.0002165007608709857,-0.0005995405954308808,-0.0002831163874361664
1761402270047575300,8.1075751953125,0.00011657733557512984,-0.00009992343257181346,0.0002831163874361664
1761402270057656000,8.117656005859375,0.0001332312385784462,0.0008826569537632167,-0.0006495022680610418
1761402270067738400,8.12773828125,0.00018319295486435294,-0.00019984686514362693,-0.0002165007608709857
1761402270077793300,8.137793212890625,-0.00009992343257181346,0.0003164241788908839,-0.00003330780964461155
1761402270087900200,8.147900146484375,-0.00023315467115025967,0.00016653904458507895,0.0003663859097287059
1761402270097983500,8.1579833984375,0.0003330780891701579,0.00019984686514362693,0.00009992343257181346
1761402270108057900,8.168057861328125,-0.00016653904458507895,0.0004163476114626974,-0.0004163476114626974
1761402270118141700,8.1781416015625,-0.0002165007608709857,0.0006661561783403158,-0.00004996171628590673
1761402270128219600,8.1882197265625,-0.0001498851488577202,0.0007161179091781378,0.00011657733557512984
1761402270138282000,8.198281982421875,0.0001332312385784462,0.0003497319994494319,-0.0007327718194574118
1761402270148385800,8.2083857421875,0.0006661561783403158,-0.0005162710440345109,-0.0002165007608709857
1761402270158467300,8.21846728515625,-0.00023315467115025967,-0.0001498851488577202,0.0003663859097287059
1761402270168547800,8.2285478515625,0.00038303982000797987,-0.00046630934230051935,-0.00019984686514362693
1761402270178629400,8.23862939453125,0.00003330780964461155,0.00008326952229253948,-0.0001498851488577202
1761402270188710700,8.248710693359374,0.00039969373028725386,0.0007327718194574118,-0.0004996171337552369
1761402270198787800,8.258787841796876,0.00018319295486435294,0.0002997702977154404,-0.0006328483577817678
1761402270208872700,8.268872802734375,0.0005162710440345109,0.0006161945057101548,0.0002664624771568924
1761402270218953700,8.27895361328125,0.0005995405954308808,-0.00004996171628590673,0.0003663859097287059
1761402270229034800,8.28903466796875,-0.00048296325257979333,-0.0006161945057101548,0.00024980856687761843
1761402270239116000,8.299115966796874,-0.000016653904822305776,0.00009992343257181346,0.00023315467115025967
1761402270249196500,8.309196533203124,0.00009992343257181346,0.0006328483577817678,-0.0009992342675104737
1761402270259274000,8.31927392578125,-0.0002664624771568924,0.00018319295486435294,-0.0001332312385784462
1761402270269314300,8.329314208984375,-0.00018319295486435294,-0.0001332312385784462,-0.0001332312385784462
1761402270279439000,8.339439208984375,-0.00024980856687761843,-0.00019984686514362693,-0.0002997702977154404
1761402270289520000,8.34952001953125,0.0002831163874361664,0.0006495022680610418,-0.00023315467115025967
1761402270299602200,8.359602294921874,0.00016653904458507895,0.00024980856687761843,-0.00016653904458507895
1761402270309683200,8.36968310546875,0.0006328483577817678,-0.0004330015217419714,-0.0001332312385784462
1761402270319760600,8.3797607421875,0.00016653904458507895,-0.00023315467115025967,0.0004330015217419714
1761402270329844500,8.389844482421875,0.00003330780964461155,0.0001498851488577202,-0.0004330015217419714
1761402270339902500,8.39990234375,0.0004330015217419714,-0.0007327718194574118,-0.00009992343257181346
1761402270350007000,8.410007080078126,0.0005329249543137848,0.00044965543202124536,0.0004163476114626974
1761402270360087800,8.420087890625,-0.0005995405954308808,-0.0000666156192892231,0.00008326952229253948
1761402270370165200,8.430165283203126,0.0003330780891701579,0,0.00016653904458507895
1761402270380250000,8.44025,0.0006328483577817678,-0.00023315467115025967,-0.000016653904822305776
1761402270390319000,8.450319091796874,0.00039969373028725386,0.0012323890114203095,-0.0001498851488577202
1761402270400413000,8.460412841796876,0,-0.000016653904822305776,0.0000666156192892231
1761402270410493000,8.470492919921876,-0.00009992343257181346,0.00011657733557512984,-0.0005162710440345109
1761402270420574000,8.480573974609374,0.00011657733557512984,-0.000016653904822305776,0.00004996171628590673
1761402270430655000,8.490655029296875,0.00023315467115025967,0.0002997702977154404,0.0004330015217419714
1761402270440736000,8.500736083984375,-0.00044965543202124536,-0.0000666156192892231,-0.00003330780964461155
1761402270450813400,8.5108134765625,-0.0000666156192892231,0.00003330780964461155,0.0002997702977154404
1761402270460898000,8.52089794921875,-0.0001498851488577202,-0.0004330015217419714,-0.0002664624771568924
1761402270470980400,8.53098046875,0.0004163476114626974,-0.0007660796400159597,0.00011657733557512984
1761402270481060400,8.541060302734374,-0.00048296325257979333,0.0004996171337552369,-0.0001498851488577202
1761402270491142000,8.551141845703125,-0.00023315467115025967,0.00038303982000797987,-0.00018319295486435294
1761402270501217000,8.561217041015626,0.0002997702977154404,0.0001332312385784462,0.00009992343257181346
1761402270511303400,8.571303466796875,0.00016653904458507895,-0.0001332312385784462,0.0002997702977154404
1761402270521380900,8.581380859375,0.0003330780891701579,0.00018319295486435294,-0.0001498851488577202
1761402270531465500,8.591465576171874,0.0005828866851516068,-0.0002165007608709857,-0.00011657733557512984
1761402270541547300,8.60154736328125,0.00039969373028725386,-0.00004996171628590673,0.0006328483577817678
1761402270551627800,8.611627685546875,-0.00018319295486435294,0.000016653904822305776,0.0002165007608709857
1761402270561709300,8.621709228515625,0.0006828100886195898,-0.0002831163874361664,0.0003330780891701579
1761402270571790600,8.63179052734375,0.0006328483577817678,0.00018319295486435294,0.00004996171628590673
1761402270581867500,8.641867431640625,0.0007494257297366858,-0.0003164241788908839,0.00044965543202124536
1761402270591952600,8.65195263671875,0.0001332312385784462,-0.0002664624771568924,0.00048296325257979333
1761402270602033000,8.662032958984375,-0.0001332312385784462,-0.00009992343257181346,0.0000666156192892231
1761402270612114200,8.6721142578125,0.00009992343257181346,0.0005329249543137848,0.0003497319994494319
1761402270622194700,8.682194580078125,0.0001332312385784462,0.00004996171628590673,-0.0003164241788908839
1761402270632275700,8.692275634765625,-0.0002664624771568924,-0.0006828100886195898,0.0004996171337552369
1761402270642353200,8.702353271484375,-0.00046630934230051935,0.00004996171628590673,-0.00003330780964461155
1761402270652420000,8.712420166015624,0.00019984686514362693,0.00011657733557512984,0.0002831163874361664
1761402270662520000,8.72252001953125,0.0004163476114626974,-0.0001498851488577202,0.0005329249543137848
1761402270672600800,8.732600830078125,0.0005162710440345109,0.00016653904458507895,0.00018319295486435294
1761402270682681900,8.742681884765625,0.00004996171628590673,0.0006328483577817678,0.00019984686514362693
1761402270692763400,8.752763427734376,0.00008326952229253948,0,-0.000016653904822305776
1761402270702843400,8.762843505859376,0.00003330780964461155,-0.0001498851488577202,0.00008326952229253948
1761402270712920800,8.7729208984375,-0.00038303982000797987,-0.0001332312385784462,0.0005995405954308808
1761402270722980900,8.78298095703125,0.000016653904822305776,0.000016653904822305776,0.0003330780891701579
1761402270733087200,8.793087158203125,0.00009992343257181346,0.0003164241788908839,-0.0005162710440345109
1761402270743168000,8.80316796875,-0.00024980856687761843,-0.0009159647743217647,0.0002997702977154404
1761402270753238000,8.813238037109375,0.0004330015217419714,-0.0002664624771568924,-0.00023315467115025967
1761402270763330000,8.823330078125,0.00048296325257979333,0.00003330780964461155,0.0003663859097287059
1761402270773407000,8.833406982421875,0.000016653904822305776,0.000016653904822305776,-0.00024980856687761843
1761402270783492000,8.8434921875,0,-0.00024980856687761843,-0.00023315467115025967
1761402270793572600,8.853572509765625,-0.0002997702977154404,-0.0003330780891701579,0.0002165007608709857
1761402270803654000,8.86365380859375,0.0003663859097287059,-0.000016653904822305776,0.0003497319994494319
1761402270813735400,8.8737353515625,0.0001332312385784462,0.0011158116394653916,-0.00039969373028725386
1761402270823790800,8.883790771484374,-0.00008326952229253948,0.0005495788645930588,-0.0005995405954308808
1761402270833897500,8.8938974609375,0.00024980856687761843,0.0002165007608709857,0.00019984686514362693
1761402270843953000,8.903952880859375,-0.0006495022680610418,0.0002664624771568924,0.0004330015217419714
1761402270854059000,8.91405908203125,-0.0004163476114626974,0.0002831163874361664,-0.0003164241788908839
1761402270864108300,8.9241083984375,-0.0004163476114626974,0,-0.00019984686514362693
1761402270874221800,8.934221923828124,0.000016653904822305776,-0.00046630934230051935,0.0004996171337552369
1761402270884303000,8.94430322265625,-0.000016653904822305776,0.00003330780964461155,-0.00018319295486435294
1761402270894345500,8.954345458984376,0.000016653904822305776,-0.0008160413126461208,-0.0007993874605745077
1761402270904464600,8.964464599609375,-0.00018319295486435294,-0.0002997702977154404,0.00019984686514362693
1761402270914545400,8.97454541015625,0.00019984686514362693,0.0008660030434839427,-0.0003164241788908839
1761402270924627200,8.984627197265626,0.00048296325257979333,-0.0004996171337552369,0.0004996171337552369
1761402270934707200,8.994707275390626,0.00009992343257181346,0.0005162710440345109,0.00023315467115025967
1761402270944789200,9.004789306640625,0.00038303982000797987,0.00011657733557512984,0.0004330015217419714
1761402270954869800,9.014869873046875,-0.00011657733557512984,-0.00018319295486435294,0.0003663859097287059
1761402270964925400,9.024925537109375,-0.00011657733557512984,-0.0003663859097287059,-0.0001498851488577202
1761402270975031800,9.03503173828125,-0.0007161179091781378,0.00048296325257979333,0.00004996171628590673
1761402270985113300,9.04511328125,-0.00016653904458507895,0.0003330780891701579,0.0007660796400159597
1761402270995194000,9.055194091796874,0.0002831163874361664,0.000016653904822305776,0.0004330015217419714
1761402271005274600,9.065274658203125,-0.00024980856687761843,-0.0006328483577817678,0.0008993108640424907
1761402271015355400,9.07535546875,0.0002664624771568924,-0.0001332312385784462,0.0007494257297366858
1761402271025412400,9.085412353515625,0.0004163476114626974,-0.00018319295486435294,-0.0004996171337552369
1761402271035518700,9.095518798828126,0.00004996171628590673,0.0001498851488577202,0.0005329249543137848
1761402271045574000,9.105573974609374,-0.00008326952229253948,0.00018319295486435294,0.0002165007608709857
1761402271055680000,9.115679931640624,-0.0003497319994494319,-0.0007660796400159597,-0.00044965543202124536
1761402271065761800,9.12576171875,-0.0002664624771568924,0.0005495788645930588,-0.0003497319994494319
1761402271075842600,9.135842529296875,-0.00046630934230051935,0.0002831163874361664,-0.00008326952229253948
1761402271085923600,9.145923583984375,-0.00003330780964461155,0.0011824272805824876,-0.0004163476114626974
1761402271096004900,9.1560048828125,-0.0007494257297366858,0.0005495788645930588,0.0008993108640424907
1761402271106059500,9.1660595703125,-0.00024980856687761843,0.00019984686514362693,0.0003164241788908839
1761402271116166700,9.176166748046874,-0.0004163476114626974,0.0007494257297366858,-0.00023315467115025967
1761402271126248200,9.186248291015625,-0.0004330015217419714,-0.0005495788645930588,-0.0003497319994494319
1761402271136319200,9.1963193359375,0.0001332312385784462,0.0002831163874361664,-0.0002664624771568924
1761402271146410500,9.206410400390626,-0.00003330780964461155,-0.0001498851488577202,0.0005828866851516068
1761402271156490200,9.216490234375,-0.0001332312385784462,0.0003663859097287059,0.0000666156192892231
1761402271166572800,9.22657275390625,-0.0003497319994494319,-0.0008826569537632167,-0.00008326952229253948
1761402271176652300,9.23665234375,-0.0006994639988988638,-0.0004330015217419714,0.00019984686514362693
1761402271186733600,9.246733642578125,-0.00008326952229253948,-0.00003330780964461155,-0.00008326952229253948
1761402271196815600,9.256815673828125,0.0000666156192892231,-0.0002664624771568924,-0.0002997702977154404
1761402271206872600,9.26687255859375,-0.000016653904822305776,0.000016653904822305776,-0.00023315467115025967
1761402271216977400,9.276977294921876,0.00003330780964461155,0.00048296325257979333,0.0007827335502952337
1761402271227057400,9.287057373046874,0.00024980856687761843,-0.000016653904822305776,-0.0001498851488577202
1761402271237139500,9.297139404296875,-0.00018319295486435294,-0.0001498851488577202,-0.0003330780891701579
1761402271247179000,9.307178955078125,0.0002664624771568924,0.0001498851488577202,-0.00009992343257181346
1761402271267382500,9.327382568359376,-0.0003497319994494319,-0.00023315467115025967,-0.00009992343257181346
1761402271277437000,9.33743701171875,-0.00038303982000797987,0.00046630934230051935,0.00004996171628590673
1761402271287545300,9.34754541015625,0.0002165007608709857,-0.0005495788645930588,0.00004996171628590673
1761402271297625000,9.357625,0.0003663859097287059,-0.00003330780964461155,-0.00023315467115025967
1761402271307706000,9.3677060546875,0.0001332312385784462,0.0006828100886195898,-0.00016653904458507895
1761402271317787100,9.377787109375,0.00046630934230051935,-0.0003497319994494319,-0.0003497319994494319
1761402271327868200,9.3878681640625,-0.0005495788645930588,-0.0002165007608709857,0.0006828100886195898
1761402271337950200,9.3979501953125,0.00011657733557512984,0.0003330780891701579,-0.00011657733557512984
1761402271348026600,9.408026611328125,-0.00019984686514362693,-0.00008326952229253948,-0.00018319295486435294
1761402271358107400,9.418107421875,-0.00018319295486435294,0.00038303982000797987,-0.0005995405954308808
1761402271368190000,9.42818994140625,-0.00009992343257181346,-0.0003330780891701579,-0.00004996171628590673
1761402271378273800,9.438273681640625,-0.00019984686514362693,-0.00023315467115025967,-0.00046630934230051935
1761402271388355300,9.448355224609376,-0.00003330780964461155,0.000016653904822305776,0.0005995405954308808
1761402271398436000,9.45843603515625,0.0004996171337552369,-0.00019984686514362693,0.0002997702977154404
1761402271408491500,9.468491455078125,0.00004996171628590673,0.00003330780964461155,0.0002664624771568924
1761402271418598400,9.478598388671875,-0.0001498851488577202,-0.000016653904822305776,0.00004996171628590673
1761402271428679400,9.488679443359375,-0.00018319295486435294,0.0003330780891701579,-0.0003164241788908839
1761402271438760400,9.498760498046876,0.0003164241788908839,0.00018319295486435294,-0.0003164241788908839
1761402271448815900,9.50881591796875,-0.00003330780964461155,-0.0010991577291861176,-0.00008326952229253948
1761402271458896600,9.518896728515625,-0.00024980856687761843,0.00023315467115025967,0.00008326952229253948
1761402271468977400,9.528977294921875,0,0.0005329249543137848,-0.00009992343257181346
1761402271479080400,9.53908056640625,-0.0004330015217419714,-0.00011657733557512984,0.00044965543202124536
1761402271489165800,9.549165771484375,-0.0003663859097287059,0.0005995405954308808,0.00044965543202124536
1761402271499246800,9.559246826171876,-0.00019984686514362693,0.00023315467115025967,0.0002664624771568924
1761402271509327400,9.569327392578124,0.00048296325257979333,-0.0003330780891701579,0.00011657733557512984
1761402271519407600,9.57940771484375,0.0001498851488577202,-0.00039969373028725386,-0.0005329249543137848
1761402271529489200,9.5894892578125,-0.0000666156192892231,0.00023315467115025967,0.0005828866851516068
1761402271539566800,9.59956689453125,-0.0000666156192892231,-0.00018319295486435294,0.0007827335502952337
1761402271549651500,9.6096513671875,-0.0003164241788908839,-0.00023315467115025967,0.0006161945057101548
1761402271559732200,9.619732177734376,-0.0003497319994494319,-0.00019984686514362693,0.00003330780964461155
1761402271569813200,9.629813232421874,0.00008326952229253948,0.00023315467115025967,0.0000666156192892231
1761402271579869000,9.639868896484375,-0.0001332312385784462,-0.0005329249543137848,0.00018319295486435294
1761402271589975800,9.649975830078125,-0.0001332312385784462,0.0003164241788908839,0.0006661561783403158
1761402271600053200,9.66005322265625,-0.00039969373028725386,-0.0001498851488577202,0.00004996171628590673
1761402271610112300,9.6701123046875,0.00009992343257181346,0.0004163476114626974,-0.00044965543202124536
1761402271620218600,9.680218505859376,0.00016653904458507895,0.0005828866851516068,0.0004163476114626974
1761402271630299400,9.69029931640625,0.00011657733557512984,-0.00023315467115025967,0.0005495788645930588
1761402271640381200,9.700381103515625,0.00019984686514362693,-0.00038303982000797987,0.00003330780964461155
1761402271650436600,9.7104365234375,0.0003330780891701579,0.0002831163874361664,0.00016653904458507895
1761402271660518000,9.720517822265625,0.0002165007608709857,-0.00004996171628590673,0.0002165007608709857
1761402271670599000,9.730598876953126,-0.00008326952229253948,-0.00004996171628590673,-0.00046630934230051935
1761402271680679700,9.7406796875,0.000016653904822305776,0.0005495788645930588,0.00048296325257979333
1761402271690760400,9.750760498046875,-0.00023315467115025967,-0.0003663859097287059,0.0000666156192892231
1761402271700850200,9.76085009765625,-0.00011657733557512984,-0.0003164241788908839,-0.0006495022680610418
1761402271710948900,9.770948974609375,0.00009992343257181346,-0.0002664624771568924,-0.0001498851488577202
1761402271721004000,9.781004150390626,0.0002997702977154404,-0.0006828100886195898,0.0002165007608709857
1761402271731106800,9.79110693359375,0.00039969373028725386,-0.0006828100886195898,0.0005495788645930588
1761402271741191000,9.80119091796875,0.00023315467115025967,-0.0006328483577817678,-0.00039969373028725386
1761402271751272200,9.811272216796874,0.00024980856687761843,-0.0008493491332046688,-0.0001332312385784462
1761402271761354000,9.82135400390625,-0.0004163476114626974,-0.0001332312385784462,-0.0006661561783403158
1761402271771388400,9.831388427734375,-0.00024980856687761843,-0.00024980856687761843,0.0001498851488577202
1761402271781515800,9.841515869140625,-0.00044965543202124536,-0.00009992343257181346,0.0004330015217419714
1761402271791596300,9.85159619140625,-0.000016653904822305776,0.00011657733557512984,0.0004330015217419714
1761402271801674000,9.861674072265625,-0.0002664624771568924,0.0008660030434839427,0.0000666156192892231
1761402271811758300,9.87175830078125,0.0001498851488577202,0.0007161179091781378,0.00019984686514362693
1761402271821840100,9.881840087890625,-0.00023315467115025967,-0.0002997702977154404,-0.00011657733557512984
1761402271831940900,9.89194091796875,-0.0005329249543137848,0.00039969373028725386,-0.00011657733557512984
1761402271842001200,9.902001220703125,-0.0001332312385784462,-0.0006495022680610418,0.0000666156192892231
1761402271852057900,9.912057861328124,-0.0003497319994494319,0.00008326952229253948,0.0006328483577817678
1761402271862160100,9.92216015625,0.0000666156192892231,-0.0008493491332046688,0.0004996171337552369
1761402271872245500,9.93224560546875,-0.0002165007608709857,-0.0001332312385784462,-0.0002165007608709857
1761402271882325800,9.94232568359375,-0.0001498851488577202,-0.00024980856687761843,0.0003663859097287059
1761402271892406800,9.95240673828125,0.0007993874605745077,-0.0003330780891701579,0.000016653904822305776
1761402271902488300,9.96248828125,0.00004996171628590673,-0.0004330015217419714,0.0006161945057101548
1761402271912557000,9.97255712890625,-0.00008326952229253948,-0.00016653904458507895,0.0008826569537632167
1761402271922646800,9.982646728515626,-0.0002831163874361664,0.00038303982000797987,-0.00009992343257181346
1761402271932731100,9.992731201171875,0.0002664624771568924,-0.0002664624771568924,-0.00004996171628590673
1761402271942812700,10.002812744140625,-0.0005162710440345109,-0.00039969373028725386,0.0005828866851516068
1761402271952893400,10.0128935546875,0.0001332312385784462,0.0002165007608709857,0.0009659265051595867
1761402271962974200,10.02297412109375,-0.00011657733557512984,-0.00019984686514362693,-0.00008326952229253948
1761402271973055700,10.0330556640625,-0.00016653904458507895,-0.0005329249543137848,0.0003497319994494319
1761402271983136500,10.043136474609375,-0.00023315467115025967,0.0003663859097287059,0.00003330780964461155
1761402271993213700,10.053213623046876,0.0000666156192892231,0.0003663859097287059,-0.00024980856687761843
1761402272003298300,10.06329833984375,0.0002664624771568924,0.00003330780964461155,0.0004996171337552369
1761402272013340700,10.073340576171875,0.000016653904822305776,0.00024980856687761843,0.00009992343257181346
1761402272023460900,10.0834609375,-0.0004330015217419714,0.00003330780964461155,0.0005828866851516068
1761402272033541400,10.093541259765624,-0.0000666156192892231,-0.0003330780891701579,0.0005662327748723328
1761402272043597300,10.103597412109375,-0.00008326952229253948,0.00023315467115025967,-0.000016653904822305776
1761402272053682700,10.1136826171875,-0.00018319295486435294,-0.00008326952229253948,-0.00008326952229253948
1761402272063784400,10.123784423828125,-0.0005662327748723328,0.00024980856687761843,-0.00011657733557512984
1761402272073865500,10.133865478515625,-0.0009159647743217647,0.000016653904822305776,0.00024980856687761843
1761402272083946500,10.143946533203126,-0.00046630934230051935,-0.0005495788645930588,-0.0001332312385784462
1761402272094027500,10.154027587890624,-0.00048296325257979333,0.00018319295486435294,-0.00004996171628590673
1761402272104108800,10.16410888671875,-0.00046630934230051935,-0.00044965543202124536,0.00011657733557512984
1761402272114189600,10.174189453125,-0.00016653904458507895,0.0004163476114626974,-0.0010491959983482957
1761402272124267000,10.18426708984375,-0.0002664624771568924,-0.0001498851488577202,0.00009992343257181346
1761402272134352000,10.194351806640626,0.00023315467115025967,0.0003497319994494319,-0.00023315467115025967
1761402272144433700,10.20443359375,-0.0003164241788908839,0.000016653904822305776,0.0001332312385784462
1761402272154490600,10.21449072265625,-0.00023315467115025967,0.0010491959983482957,0.0004996171337552369
1761402272164572200,10.224572265625,0.00019984686514362693,0.00009992343257181346,0.00003330780964461155
1761402272174676500,10.234676513671875,0.00019984686514362693,-0.00024980856687761843,0.00024980856687761843
1761402272184733200,10.244733154296876,0.00008326952229253948,-0.00018319295486435294,0.0002165007608709857
1761402272194838500,10.254838623046876,0.00038303982000797987,-0.000016653904822305776,0.0005828866851516068
1761402272204919300,10.264919189453124,-0.0000666156192892231,0.00023315467115025967,0.000016653904822305776
1761402272215001000,10.2750009765625,0.0005662327748723328,-0.0004996171337552369,0.0001498851488577202
1761402272225068300,10.285068359375,-0.000016653904822305776,0.00004996171628590673,0.00044965543202124536
1761402272235162400,10.295162353515625,-0.00003330780964461155,-0.0003497319994494319,-0.00008326952229253948
1761402272245244000,10.305243896484376,-0.00016653904458507895,0.0011824272805824876,-0.0002664624771568924
1761402272255325400,10.315325439453124,-0.00018319295486435294,-0.0004996171337552369,0.00019984686514362693
1761402272265406500,10.325406494140625,-0.0003663859097287059,-0.0006661561783403158,0
1761402272275455000,10.335455078125,0.00009992343257181346,0.0002165007608709857,-0.0004163476114626974
1761402272285567500,10.3455673828125,-0.0004163476114626974,0.00009992343257181346,-0.0002831163874361664
1761402272295623400,10.35562353515625,-0.0002997702977154404,-0.00009992343257181346,-0.0004330015217419714
1761402272305730600,10.36573046875,0.0003330780891701579,-0.00023315467115025967,0.00023315467115025967
1761402272315810800,10.375810791015626,-0.00004996171628590673,-0.00024980856687761843,0.0005329249543137848
1761402272325891800,10.385891845703124,-0.00019984686514362693,0.00018319295486435294,0.0007660796400159597
1761402272335972600,10.39597265625,0.000016653904822305776,0.0003663859097287059,-0.00018319295486435294
1761402272346037800,10.406037841796875,-0.0005662327748723328,-0.00024980856687761843,0.00008326952229253948
1761402272356135400,10.416135498046875,0,-0.00004996171628590673,0.0002831163874361664
1761402272366215700,10.426215576171876,0,-0.0000666156192892231,0.0008493491332046688
1761402272376298200,10.43629833984375,-0.00016653904458507895,-0.00009992343257181346,0.00016653904458507895
1761402272386378200,10.446378173828125,-0.00009992343257181346,0.0008993108640424907,0.0001498851488577202
1761402272396460000,10.4564599609375,0.0002831163874361664,0.0005495788645930588,0.0002664624771568924
1761402272406540800,10.466540771484375,-0.0002831163874361664,0.00038303982000797987,-0.0003497319994494319
1761402272416621800,10.476621826171876,0,0.0002664624771568924,0.00004996171628590673
1761402272426702600,10.48670263671875,-0.000016653904822305776,0.00019984686514362693,-0.0003164241788908839
1761402272436809000,10.49680908203125,-0.0005162710440345109,0.0001498851488577202,0.0004163476114626974
1761402272446822000,10.50682177734375,-0.0002831163874361664,-0.00024980856687761843,-0.00039969373028725386
1761402272456946200,10.5169462890625,-0.00024980856687761843,-0.0003663859097287059,0
1761402272467027000,10.52702685546875,0.00008326952229253948,-0.00008326952229253948,-0.00011657733557512984
1761402272477084400,10.53708447265625,0.00008326952229253948,0.0006328483577817678,-0.000016653904822305776
1761402272487188700,10.547188720703126,0.0002165007608709857,-0.0006161945057101548,-0.00038303982000797987
1761402272497269500,10.55726953125,0,0.00038303982000797987,-0.00018319295486435294
1761402272507351600,10.5673515625,-0.0008160413126461208,-0.0006994639988988638,0.0001332312385784462
1761402272517409000,10.577408935546876,0.0004330015217419714,-0.00016653904458507895,0.0005828866851516068
1761402272527513300,10.587513427734375,-0.0001498851488577202,0.0003330780891701579,-0.00003330780964461155
1761402272537593900,10.59759375,-0.00038303982000797987,-0.0006661561783403158,-0.0005162710440345109
1761402272547675000,10.6076748046875,-0.0002831163874361664,0.00009992343257181346,-0.00023315467115025967
1761402272557756700,10.617756591796875,-0.0006328483577817678,-0.0007827335502952337,-0.0000666156192892231
1761402272567837400,10.62783740234375,0.00019984686514362693,-0.0002165007608709857,-0.00008326952229253948
1761402272577918500,10.63791845703125,0.0001332312385784462,-0.0002664624771568924,0.0004996171337552369
1761402272587974000,10.647973876953126,0.0005162710440345109,-0.00018319295486435294,-0.0003663859097287059
1761402272598076200,10.658076171875,0.0002997702977154404,-0.0002165007608709857,-0.0005995405954308808
1761402272608160000,10.668159912109376,0.0002165007608709857,-0.00038303982000797987,-0.0005495788645930588
1761402272618241500,10.678241455078124,-0.00038303982000797987,-0.0005162710440345109,-0.0002664624771568924
1761402272628319700,10.68831982421875,0.0005995405954308808,-0.0007327718194574118,0.00023315467115025967
1761402272638404000,10.698404052734375,0.0008160413126461208,-0.0006661561783403158,0.0003164241788908839
1761402272648460300,10.708460205078126,-0.000016653904822305776,-0.0001332312385784462,-0.0003497319994494319
1761402272658566100,10.718566162109376,-0.0005495788645930588,-0.00009992343257181346,-0.0003497319994494319
1761402272668647400,10.7286474609375,-0.00003330780964461155,0.0007327718194574118,0.00003330780964461155
1761402272678728200,10.738728271484375,-0.0003663859097287059,0.000016653904822305776,-0.00016653904458507895
1761402272688805000,10.74880517578125,0.00008326952229253948,0.00039969373028725386,0.00009992343257181346
1761402272698891300,10.758891357421875,0.00009992343257181346,-0.00024980856687761843,0.0002831163874361664
1761402272708972000,10.768971923828126,-0.00018319295486435294,-0.0006161945057101548,-0.0001332312385784462
1761402272719053300,10.77905322265625,-0.0003330780891701579,-0.0002997702977154404,0.0001332312385784462
1761402272729133600,10.789133544921874,0.0008993108640424907,-0.00009992343257181346,0.00044965543202124536
1761402272739216000,10.7992158203125,-0.0001332312385784462,-0.0006161945057101548,-0.0002664624771568924
1761402272749295600,10.809295654296875,0.0006661561783403158,0.0003330780891701579,0.0001332312385784462
1761402272759372800,10.819372802734375,-0.0000666156192892231,-0.0002165007608709857,0.00004996171628590673
1761402272769457700,10.829457763671876,0.0003497319994494319,0.0006495022680610418,0.0002997702977154404
1761402272779539000,10.8395390625,-0.00008326952229253948,-0.00023315467115025967,0.00009992343257181346
1761402272789620200,10.8496201171875,-0.00024980856687761843,-0.00024980856687761843,0
1761402272799676000,10.859676025390625,-0.00038303982000797987,0.0004330015217419714,-0.00011657733557512984
1761402272809782800,10.86978271484375,0.0005662327748723328,-0.0000666156192892231,0.0003164241788908839
1761402272819859200,10.879859130859375,0.00011657733557512984,-0.0002664624771568924,-0.0005162710440345109
1761402272829937000,10.88993701171875,-0.0002831163874361664,0.000016653904822305776,-0.00016653904458507895
1761402272840025900,10.90002587890625,0.00038303982000797987,-0.00016653904458507895,-0.0001332312385784462
1761402272850107000,10.91010693359375,0.00018319295486435294,-0.0006495022680610418,0.0006161945057101548
1761402272860163800,10.920163818359375,-0.00019984686514362693,-0.0003164241788908839,-0.00004996171628590673
1761402272870268700,10.9302685546875,0.00044965543202124536,-0.0004163476114626974,-0.0002664624771568924
1761402272880345300,10.940345458984375,-0.0000666156192892231,0.00008326952229253948,-0.00016653904458507895
1761402272890431200,10.95043115234375,0.00019984686514362693,0.0005162710440345109,0.000016653904822305776
1761402272900502300,10.960502197265624,0.0002831163874361664,0.00019984686514362693,0.00003330780964461155
1761402272910593300,10.97059326171875,-0.0006161945057101548,-0.000016653904822305776,0.00004996171628590673
1761402272920673300,10.98067333984375,0.00008326952229253948,-0.0007494257297366858,0
1761402272930754800,10.9907548828125,0.0001332312385784462,0.00003330780964461155,0.00046630934230051935
1761402272940836900,11.0008369140625,0.00003330780964461155,-0.00046630934230051935,0.00038303982000797987
1761402272950913000,11.0109130859375,-0.00008326952229253948,-0.00048296325257979333,0.000016653904822305776
1761402272960998000,11.020997802734374,-0.000016653904822305776,-0.0002165007608709857,0.0003663859097287059
1761402272971061500,11.0310615234375,-0.0002165007608709857,-0.00038303982000797987,-0.0001332312385784462
1761402272981160200,11.04116015625,0.00039969373028725386,0.0005828866851516068,0.0003663859097287059
1761402272991241500,11.051241455078125,0.0003663859097287059,-0.00023315467115025967,-0.00008326952229253948
1761402273001300200,11.06130029296875,0.00009992343257181346,0.00038303982000797987,0.00011657733557512984
1761402273011398700,11.071398681640625,0.00024980856687761843,0.00046630934230051935,0.0006661561783403158
1761402273021484000,11.081484130859375,-0.00004996171628590673,-0.00018319295486435294,-0.0002165007608709857
1761402273031565600,11.091565673828125,0.0001498851488577202,0.00038303982000797987,0.0001332312385784462
1761402273041646000,11.10164599609375,-0.00039969373028725386,0.0001498851488577202,0
1761402273051727000,11.11172705078125,0.0002664624771568924,-0.00003330780964461155,0
1761402273061807900,11.121807861328126,-0.00008326952229253948,0.0001332312385784462,-0.00003330780964461155
1761402273071889000,11.131888916015624,-0.00003330780964461155,0.0011491194600239396,0.0002664624771568924
1761402273081966300,11.14196630859375,0.00018319295486435294,0.000016653904822305776,-0.0005495788645930588
1761402273092051200,11.15205126953125,-0.0002831163874361664,0.0005495788645930588,-0.0005995405954308808
1761402273102133000,11.162133056640625,0.0003330780891701579,0.0001332312385784462,0.0001332312385784462
1761402273112188000,11.17218798828125,-0.0006661561783403158,-0.0002664624771568924,-0.00003330780964461155
1761402273122295000,11.182294921875,-0.0008660030434839427,0.00003330780964461155,0.00018319295486435294
1761402273132376000,11.1923759765625,-0.00016653904458507895,-0.0005662327748723328,-0.0003497319994494319
1761402273142431200,11.20243115234375,-0.00016653904458507895,0.00003330780964461155,-0.00008326952229253948
1761402273152538000,11.2125380859375,-0.0002831163874361664,-0.0005828866851516068,-0.00038303982000797987
1761402273162618400,11.222618408203125,0.00039969373028725386,0.0005662327748723328,0
1761402273172700400,11.232700439453126,0.0002997702977154404,0.000016653904822305776,-0.0005995405954308808
1761402273182768600,11.2427685546875,-0.0001498851488577202,-0.00039969373028725386,-0.0004163476114626974
1761402273192862500,11.252862548828125,-0.0003497319994494319,-0.0002165007608709857,-0.00016653904458507895
1761402273202939100,11.262939208984376,0.0005495788645930588,0.0005995405954308808,-0.0002165007608709857
1761402273213024300,11.273024169921875,0.0000666156192892231,-0.0003164241788908839,0.0002831163874361664
1761402273223106000,11.28310595703125,0.0010991577291861176,-0.00009992343257181346,-0.0003164241788908839
1761402273233186600,11.2931865234375,-0.00024980856687761843,0.0002664624771568924,0.0009159647743217647
1761402273243242500,11.303242431640625,0.00018319295486435294,0.00009992343257181346,0.0000666156192892231
1761402273253348000,11.31334814453125,0.0004163476114626974,-0.0006661561783403158,0.00018319295486435294
1761402273263429000,11.32342919921875,-0.0002664624771568924,-0.0002997702977154404,-0.00048296325257979333
1761402273273506300,11.33350634765625,-0.0001332312385784462,0.00039969373028725386,-0.0002997702977154404
1761402273283591200,11.343591064453125,-0.0001498851488577202,0.0006828100886195898,-0.00048296325257979333
1761402273293672700,11.353672607421874,-0.0003164241788908839,-0.000016653904822305776,-0.0004330015217419714
1761402273303764000,11.363763916015625,0.0000666156192892231,-0.0007161179091781378,-0.0006328483577817678
1761402273313834200,11.373834228515625,-0.00009992343257181346,0.00018319295486435294,-0.00039969373028725386
1761402273323915500,11.38391552734375,0.00008326952229253948,-0.0004996171337552369,-0.0004996171337552369
1761402273333992200,11.3939921875,-0.0001498851488577202,-0.0006828100886195898,-0.0006328483577817678
1761402273344052500,11.404052490234376,0.0002997702977154404,0.00004996171628590673,-0.0002664624771568924
1761402273354158300,11.414158447265624,0.00016653904458507895,0.0010325420880690217,-0.0004996171337552369
1761402273364239400,11.4242392578125,0.0005828866851516068,0.0004330015217419714,-0.0003330780891701579
1761402273374320400,11.4343203125,-0.000016653904822305776,-0.0001498851488577202,-0.00018319295486435294
1761402273384401700,11.444401611328125,0.00048296325257979333,-0.0005329249543137848,0.0006161945057101548
1761402273394482700,11.454482666015625,0.00009992343257181346,-0.00046630934230051935,-0.0003330780891701579
1761402273404560100,11.46456005859375,-0.00038303982000797987,-0.00039969373028725386,0.0000666156192892231
1761402273414645000,11.47464501953125,0.0002165007608709857,0.000016653904822305776,-0.0000666156192892231
1761402273424726500,11.4847265625,0.00024980856687761843,0.0005662327748723328,-0.0001332312385784462
1761402273434781700,11.49478173828125,-0.0005162710440345109,0.00044965543202124536,-0.0003497319994494319
1761402273444888300,11.504888427734375,-0.0002997702977154404,-0.0006495022680610418,0.00016653904458507895
1761402273454934300,11.514934326171876,-0.0006994639988988638,0.0009659265051595867,-0.0003164241788908839
1761402273465050400,11.52505029296875,0.00019984686514362693,0.0004996171337552369,-0.00018319295486435294
1761402273475131100,11.535131103515624,0.0006661561783403158,0.00008326952229253948,0.00009992343257181346
1761402273485189400,11.545189453125,0.00024980856687761843,-0.0010491959983482957,0.0001498851488577202
1761402273495293000,11.55529296875,0.00008326952229253948,-0.0007827335502952337,-0.0002165007608709857
1761402273505374200,11.565374267578125,0.0000666156192892231,-0.0005329249543137848,-0.00048296325257979333
1761402273515455200,11.575455322265626,-0.0004330015217419714,0.00024980856687761843,0.0002831163874361664
1761402273525536300,11.585536376953126,0.0008826569537632167,-0.0003164241788908839,0.0002997702977154404
1761402273535617000,11.595616943359374,-0.00011657733557512984,0.0003164241788908839,0.00044965543202124536
1761402273545680000,11.605679931640625,-0.00008326952229253948,-0.0004330015217419714,-0.0003164241788908839
1761402273555779300,11.615779296875,0.0001498851488577202,-0.0003330780891701579,-0.00008326952229253948
1761402273565860600,11.625860595703125,0.00016653904458507895,0.00009992343257181346,-0.0004163476114626974
1761402273575941000,11.635941162109376,0.00044965543202124536,-0.0000666156192892231,-0.0004163476114626974
1761402273586022400,11.6460224609375,0.000016653904822305776,-0.0009159647743217647,-0.0004996171337552369
1761402273596103700,11.656103759765625,-0.00019984686514362693,-0.0002997702977154404,0.0002165007608709857
1761402273606184200,11.66618408203125,-0.00048296325257979333,0.00046630934230051935,0.0000666156192892231
1761402273616265500,11.676265380859375,-0.0007827335502952337,-0.0004163476114626974,0.000016653904822305776
