time,seconds_elapsed,z,y,x
1761399809746576600,0.08157666015625,-0.02959398925304413,-0.048829250037670135,-0.08140428364276886
1761399809756653800,0.09165380859375,-0.029044410213828087,-0.04797989875078201,-0.07640811800956726
1761399809766735000,0.101735107421875,-0.02484762668609619,-0.042733918875455856,-0.07472606748342514
1761399809776828700,0.11182861328125,-0.021600114181637764,-0.04513208195567131,-0.07529230415821075
1761399809786913800,0.121913818359375,-0.021366959437727928,-0.04759686067700386,-0.07867304980754852
1761399809797003000,0.1320029296875,-0.02609666809439659,-0.046614278107881546,-0.0865669995546341
1761399809807082200,0.142082275390625,-0.03454019874334335,-0.04708058759570122,-0.09652603417634964
1761399809817173500,0.152173583984375,-0.04095195233821869,-0.04731374233961105,-0.10257139801979065
1761399809827233800,0.16223388671875,-0.04566500708460808,-0.04809647798538208,-0.10591883212327957
1761399809837312800,0.172312744140625,-0.051876913756132126,-0.04236753284931183,-0.10805053263902664
1761399809847389200,0.18238916015625,-0.05580723658204079,-0.033257849514484406,-0.11104823648929596
1761399809867570000,0.20256982421875,-0.06300172209739685,-0.007943912409245968,-0.11321324855089188
1761399809877640000,0.212639892578125,-0.06548315286636353,0.009725880809128284,-0.11244716495275497
1761399809887719200,0.22271923828125,-0.06673219799995422,0.02020118571817875,-0.10526933521032333
1761399809897808100,0.23280810546875,-0.06518338620662689,0.029294218868017197,-0.09551014751195908
1761399809907892000,0.24289208984375,-0.06461714953184128,0.036005742847919464,-0.0890650823712349
1761399809917974800,0.252974853515625,-0.0649835392832756,0.04554842785000801,-0.08628387749195099
1761399809928068400,0.263068359375,-0.059687595814466476,0.0543583445250988,-0.08558441698551178
1761399809938137000,0.27313720703125,-0.05127737298607826,0.06121975556015968,-0.08210375159978867
1761399809948212700,0.283212646484375,-0.04446592554450035,0.06596611440181732,-0.0746261477470398
1761399809958286000,0.2932861328125,-0.03850382938981056,0.06250210851430893,-0.06586619466543198
1761399809968377000,0.303377197265625,-0.0333244651556015,0.05452488362789154,-0.06105321645736694
1761399809978461000,0.3134609375,-0.028294984251260757,0.04466577246785164,-0.05415849760174751
1761399809988542000,0.3235419921875,-0.02313227392733097,0.02429804764688015,-0.04421611875295639
1761399809998615000,0.333614990234375,-0.017220137640833855,-0.0016320826252922416,-0.03598908707499504
1761399810008704300,0.343704345703125,-0.01342304702848196,-0.03787098079919815,-0.024864280596375465
1761399810018772000,0.35377197265625,-0.013722817413508892,-0.06549980491399765,-0.011757656931877136
1761399810028865500,0.363865478515625,-0.01530493889003992,-0.08311963826417923,0.0021316998172551394
1761399810038944500,0.373944580078125,-0.017469946295022964,-0.10486964136362076,0.015604709275066853
1761399810049027300,0.38402734375,-0.019851455464959145,-0.12528732419013977,0.02667955495417118
1761399810059108600,0.394108642578125,-0.01712021417915821,-0.1437065452337265,0.03362423554062843
1761399810069189600,0.404189697265625,-0.015038476325571537,-0.1617593765258789,0.032458461821079254
1761399810079270700,0.414270751953125,-0.009742534719407558,-0.16047702729701996,0.020051300525665283
1761399810089351700,0.4243515625,-0.010924961417913437,-0.1333644688129425,0.005212672054767609
1761399810099430700,0.4344306640625,-0.014655436389148235,-0.10210508853197098,-0.00704460171982646
1761399810109520600,0.444520751953125,-0.011507848277688026,-0.06709858030080795,-0.020151223987340927
1761399810119592200,0.45459228515625,-0.015121745876967907,-0.05364222824573517,-0.02584685944020748
1761399810129678600,0.4646787109375,-0.01375612523406744,-0.05520769581198692,-0.03520635515451431
1761399810139754800,0.474754638671875,-0.029444104060530663,-0.04671420156955719,-0.04055225849151611
1761399810149837600,0.484837646484375,-0.06273525953292847,-0.0374879390001297,-0.0338074266910553
1761399810159911700,0.49491162109375,-0.09524368494749069,-0.023015696555376053,-0.025230666622519493
1761399810169999400,0.504999267578125,-0.13139930367469788,0.012007465586066246,-0.014971860684454441
1761399810180080600,0.51508056640625,-0.15927794575691223,0.04048564285039902,-0.005828866735100746
1761399810190161400,0.525161376953125,-0.16447396576404572,0.06000401824712753,-0.011990811675786972
1761399810200243000,0.535242919921875,-0.1576625108718872,0.05890486016869545,-0.03147587925195694
1761399810210310400,0.545310302734375,-0.14833633601665497,0.04624789208173752,-0.06596611440181732
1761399810220404200,0.555404296875,-0.1614096462726593,0.01911868341267109,-0.10050631314516068
1761399810230459600,0.565459716796875,-0.18595750629901886,-0.022099731490015984,-0.13171572983264923
1761399810240566000,0.57556591796875,-0.21185432374477386,-0.06148621812462807,-0.15721286833286285
1761399810250647000,0.58564697265625,-0.23746803402900696,-0.10268797725439072,-0.17739740014076233
1761399810260711000,0.5957109375,-0.2619492709636688,-0.1434900462627411,-0.19803158938884735
1761399810270809600,0.6058095703125,-0.2915599048137665,-0.18162748217582703,-0.2204144299030304
1761399810280861400,0.615861328125,-0.3237685561180115,-0.22724252939224243,-0.23670195043087006
1761399810290961200,0.625961181640625,-0.34839969873428345,-0.2814509868621826,-0.24577832221984863
1761399810301052200,0.63605224609375,-0.3665024936199188,-0.3424542546272278,-0.251740425825119
1761399810311125000,0.646125,-0.38573774695396423,-0.40593892335891724,-0.25710299611091614
1761399810321225500,0.6562255859375,-0.3997436761856079,-0.4637945890426636,-0.25841864943504333
1761399810331282400,0.666282470703125,-0.4032076895236969,-0.5030645132064819,-0.2525564730167389
1761399810341375700,0.676375732421875,-0.39942726492881775,-0.5272126793861389,-0.24126511812210083
1761399810351457000,0.68645703125,-0.3895348310470581,-0.553892195224762,-0.2161843329668045
1761399810361524200,0.696524169921875,-0.3641209602355957,-0.5756921768188477,-0.18054498732089996
1761399810371623000,0.706622802734375,-0.3219199776649475,-0.5740600824356079,-0.14004269242286682
1761399810381688600,0.7166884765625,-0.2847151458263397,-0.5764915943145752,-0.10691806674003601
1761399810391780900,0.72678076171875,-0.2683943212032318,-0.5960599184036255,-0.08238686621189117
1761399810401862100,0.736862060546875,-0.26801130175590515,-0.6125972270965576,-0.07096228748559952
1761399810411930400,0.746930419921875,-0.27350708842277527,-0.6146956086158752,-0.06982982158660889
1761399810422022400,0.7570224609375,-0.2816675007343292,-0.5995405912399292,-0.07467611134052277
1761399810432105000,0.76710498046875,-0.29647281765937805,-0.5819873809814453,-0.08271994441747665
1761399810442184700,0.777184814453125,-0.30203521251678467,-0.5840524435043335,-0.08273659646511078
1761399810452266800,0.787266845703125,-0.271808385848999,-0.6315826773643494,-0.06073679029941559
1761399810462322700,0.79732275390625,-0.20585891604423523,-0.7102890610694885,-0.023398736491799355
1761399810472428300,0.80742822265625,-0.12800191342830658,-0.820970892906189,0.01983480155467987
1761399810482508000,0.817508056640625,-0.08916500955820084,-0.8959967494010925,0.06330148875713348
1761399810492591400,0.82759130859375,-0.07432637363672256,-0.9491060376167297,0.11066519469022751
1761399810502670800,0.8376708984375,-0.012040773406624794,-0.9916900992393494,0.16150957345962524
1761399810512740000,0.847739990234375,0.0649835392832756,-0.9454588294029236,0.2126370519399643
1761399810522833700,0.857833740234375,0.11924196034669876,-0.84292072057724,0.27833670377731323
1761399810532901600,0.867901611328125,0.17343376576900482,-0.7175002098083496,0.37451300024986267
1761399810542980900,0.87798095703125,0.26329824328422546,-0.6548981666564941,0.5131234526634216
1761399810553074700,0.88807470703125,0.36345481872558594,-0.6957501769065857,0.7160845994949341
1761399810563146500,0.898146484375,0.4602639675140381,-0.7776041030883789,0.9287216663360596
1761399810573238300,0.90823828125,0.5622192025184631,-0.8360427021980286,1.1139130592346191
1761399810583307300,0.918307373046875,0.7027614712715149,-0.8639379739761353,1.2581526041030884
1761399810593400300,0.928400390625,0.8777607083320618,-0.8704829216003418,1.3989613056182861
1761399810603481300,0.9384814453125,1.0624191761016846,-0.7856646180152893,1.5445996522903442
1761399810613551900,0.9485517578125,1.2387007474899292,-0.5824869871139526,1.5849188566207886
1761399810623643100,0.95864306640625,1.4033912420272827,-0.3072645366191864,1.4394968748092651
1761399810633718500,0.968718505859375,1.4816312789916992,-0.10806718468666077,1.2438968420028687
1761399810643805200,0.97880517578125,1.439030647277832,-0.06771478056907654,1.1901047229766846
1761399810653886000,0.988885986328125,1.325750708580017,-0.09579326212406158,1.2725415229797363
1761399810663959600,0.99895947265625,1.1901713609695435,-0.15414854884147644,1.374996304512024
1761399810674048000,1.009048095703125,1.071312427520752,-0.24984188377857208,1.403257966041565
1761399810684114400,1.019114501953125,1.0043137073516846,-0.381674200296402,1.3267333507537842
1761399810694210000,1.0292099609375,0.9441931247711182,-0.46794140338897705,1.2101060152053833
1761399810704291000,1.039291015625,0.9010928273200989,-0.4711722731590271,1.1044203042984009
1761399810714359600,1.049359619140625,0.9014425873756409,-0.35039815306663513,1.0074446201324463
1761399810724446000,1.059446044921875,0.9489395022392273,-0.11392936110496521,0.9134167432785034
1761399810734531800,1.06953173828125,1.035906195640564,0.14427277445793152,0.8166408538818359
1761399810744610800,1.07961083984375,1.174133539199829,0.29598984122276306,0.7237787246704102
1761399810754694400,1.0896943359375,1.3037842512130737,0.3428206443786621,0.6709025502204895
1761399810764761000,1.099760986328125,1.371016025543213,0.20374387502670288,0.6202247142791748
1761399810774846700,1.1098466796875,1.3795762062072754,-0.05177699029445648,0.5320423245429993
1761399810784938800,1.119938720703125,1.2953240871429443,-0.30861350893974304,0.4103688597679138
1761399810795008300,1.13000830078125,1.1279356479644775,-0.5056625008583069,0.29495730996131897
1761399810805099000,1.14009912109375,0.9058058857917786,-0.6359127163887024,0.23377086222171783
1761399810815179000,1.150178955078125,0.7818175554275513,-0.733504593372345,0.2456950545310974
1761399810825262600,1.1602626953125,0.7186160087585449,-0.7767381072044373,0.28424885869026184
1761399810835311400,1.170311279296875,0.6634915471076965,-0.7886956334114075,0.28972798585891724
1761399810845405400,1.180405517578125,0.6124140620231628,-0.7352365851402283,0.2421477735042572
1761399810855495000,1.190494873046875,0.5727277994155884,-0.6975488066673279,0.14976856112480164
1761399810865584400,1.20058447265625,0.5375381112098694,-0.6507180333137512,0.037304747849702835
1761399810875653000,1.210653076171875,0.5021818280220032,-0.5892817974090576,-0.08590084314346313
1761399810885748700,1.220748779296875,0.47961580753326416,-0.5622524619102478,-0.20406030118465424
1761399810895829500,1.23082958984375,0.41283366084098816,-0.4975520670413971,-0.29377487301826477
1761399810905907000,1.240906982421875,0.305865615606308,-0.42987060546875,-0.35611045360565186
1761399810915991600,1.250991455078125,0.18532465398311615,-0.3727476894855499,-0.40394046902656555
1761399810936141600,1.2711416015625,-0.025197358801960945,-0.1859075427055359,-0.5378378629684448
1761399810946234400,1.281234375,-0.11597779393196106,-0.10850019007921219,-0.5982082486152649
1761399810956302600,1.291302490234375,-0.2140359878540039,-0.035506125539541245,-0.6169605851173401
1761399810966361900,1.30136181640625,-0.3118443787097931,0.024098200723528862,-0.6173436045646667
1761399810976486000,1.31148583984375,-0.4050229787826538,0.046647585928440094,-0.6077343225479126
1761399810986547500,1.32154736328125,-0.4895581901073456,0.041851263493299484,-0.5667324066162109
1761399810996624600,1.331624755859375,-0.5281453132629395,-0.02901110239326954,-0.4608968198299408
1761399811006712300,1.34171240234375,-0.49688589572906494,-0.15136733651161194,-0.3158246576786041
1761399811016801300,1.35180126953125,-0.41316673159599304,-0.32298582792282104,-0.2791527509689331
1761399811026870000,1.3618701171875,-0.2883623540401459,-0.5422844290733337,-0.3009360730648041
1761399811036955400,1.371955322265625,-0.11597779393196106,-0.8039172887802124,-0.27911943197250366
1761399811047018800,1.382018798828125,0.09645941853523254,-0.9407957196235657,-0.21573469042778015
1761399811057123300,1.392123291015625,0.27412328124046326,-0.9004433155059814,-0.12610337138175964
1761399811067194400,1.4021943359375,0.3972289264202118,-0.7828667759895325,-0.042600687593221664
1761399811077287000,1.412286865234375,0.4821471869945526,-0.6115313768386841,-0.015887824818491936
1761399811087368200,1.4223681640625,0.534074068069458,-0.4181962013244629,-0.06634915620088577
1761399811097436000,1.432435791015625,0.5439498424530029,-0.25766921043395996,-0.20464318990707397
1761399811107530000,1.442530029296875,0.49806833267211914,-0.0811544805765152,-0.37506258487701416
1761399811117598500,1.452598388671875,0.4048897325992584,0.11019888520240784,-0.49243929982185364
1761399811127692000,1.462692138671875,0.2407654970884323,0.2159012258052826,-0.4918064773082733
1761399811137773300,1.472773193359375,-0.04912902042269707,0.1700197160243988,-0.5229659080505371
1761399811147844000,1.482843994140625,-0.4083370864391327,0.05081106349825859,-0.6975488066673279
1761399811157934000,1.49293408203125,-0.7133866548538208,-0.036971669644117355,-0.8064320087432861
1761399811167995400,1.502995361328125,-0.8705995082855225,-0.0864337682723999,-0.6650237441062927
1761399811178096600,1.5130966796875,-0.7439965605735779,-0.27217477560043335,-0.35409530997276306
1761399811188165600,1.52316552734375,-0.34082216024398804,-0.21473544836044312,0.0576891265809536
1761399811198248000,1.533248046875,0.029927067458629608,0.0008160413126461208,0.4490392506122589
1761399811208339700,1.543339599609375,0.058255359530448914,0.13887691497802734,0.5179364681243896
1761399811218408400,1.553408447265625,-0.17061924934387207,0.2358359396457672,0.16852086782455444
1761399811228512000,1.563511962890625,-0.496652752161026,0.24474579095840454,-0.354678213596344
1761399811238575900,1.573575927734375,-0.8159914016723633,0.05360892042517662,-0.7480267882347107
1761399811248661800,1.583661865234375,-1.0670490264892578,-0.2814509868621826,-0.9198784232139587
1761399811258732000,1.59373193359375,-1.1696703433990479,-0.7612500190734863,-0.9591816663742065
1761399811268821800,1.60382177734375,-1.0274792909622192,-1.2613667249679565,-0.972987711429596
1761399811278906400,1.61390625,-0.6944844722747803,-1.611232042312622,-0.9913736581802368
1761399811288985600,1.623985595703125,-0.31342649459838867,-1.6618598699569702,-0.9599477052688599
1761399811299084500,1.63408447265625,-0.12139031291007996,-1.451221227645874,-0.8623891472816467
1761399811309138000,1.644137939453125,-0.202361598610878,-1.1224231719970703,-0.7826336026191711
1761399811319228200,1.654228271484375,-0.32679957151412964,-0.7415817379951477,-0.8292478919029236
1761399811329311500,1.6643115234375,-0.38254019618034363,-0.4867270290851593,-0.9718385934829712
1761399811339390700,1.674390625,-0.4061887264251709,-0.349465548992157,-1.125620722770691
1761399811349482200,1.684482177734375,-0.4224262833595276,-0.22414490580558777,-1.2186994552612305
1761399811359538200,1.6945380859375,-0.4157147705554962,-0.17914605140686035,-1.2322057485580444
1761399811369633500,1.704633544921875,-0.40990257263183594,-0.13434705138206482,-1.1526501178741455
1761399811379713300,1.71471337890625,-0.4109850525856018,-0.06684877723455429,-0.9953372478485107
1761399811389785000,1.72478515625,-0.3916998505592346,-0.029210949316620827,-0.7976720929145813
1761399811399878700,1.734878662109375,-0.37617841362953186,-0.017603177577257156,-0.6070848107337952
1761399811409947100,1.744947021484375,-0.34172147512435913,-0.025030819699168205,-0.48919180035591125
1761399811420027400,1.75502734375,-0.3196716904640198,-0.02551378309726715,-0.45886504650115967
1761399811430108400,1.7651083984375,-0.34048908948898315,-0.04305034503340721,-0.47238799929618835
1761399811440198400,1.775198486328125,-0.40553924441337585,-0.10944946110248566,-0.5009494423866272
1761399811450263000,1.785262939453125,-0.4837459623813629,-0.2203478217124939,-0.5336244106292725
1761399811460351500,1.7953515625,-0.5313095450401306,-0.3384906053543091,-0.5747762322425842
1761399811470445000,1.805445068359375,-0.5385539531707764,-0.4531360864639282,-0.6152119040489197
1761399811480527600,1.815527587890625,-0.5399861931800842,-0.5516605973243713,-0.6489693522453308
1761399811490594600,1.825594482421875,-0.5465478301048279,-0.604320228099823,-0.672934353351593
1761399811500685000,1.83568505859375,-0.5471307635307312,-0.5660329461097717,-0.6721516251564026
1761399811510765000,1.84576513671875,-0.5372216701507568,-0.490207701921463,-0.6352298855781555
1761399811520850200,1.85585009765625,-0.5349234342575073,-0.4301536977291107,-0.6064519286155701
1761399811530929400,1.865929443359375,-0.5409687757492065,-0.438680499792099,-0.6096994280815125
1761399811541000000,1.876,-0.5703129768371582,-0.5161710977554321,-0.6564469933509827
1761399811551102700,1.886102783203125,-0.6081173419952393,-0.6286349296569824,-0.7352199554443359
1761399811561173800,1.896173828125,-0.6463879942893982,-0.7341541051864624,-0.8240851759910583
1761399811571243000,1.906242919921875,-0.6879228353500366,-0.8064153790473938,-0.8983615636825562
1761399811581314600,1.916314453125,-0.7136531472206116,-0.8196552395820618,-0.938697338104248
1761399811591416800,1.926416748046875,-0.7182662487030029,-0.7884458303451538,-0.9488062858581543
1761399811601498000,1.936498046875,-0.6951839327812195,-0.7386506199836731,-0.9173137545585632
1761399811611579100,1.9465791015625,-0.645205557346344,-0.6528996825218201,-0.8361759185791016
1761399811621641200,1.95664111328125,-0.589714765548706,-0.5692970752716064,-0.7223297953605652
1761399811631741000,1.966740966796875,-0.48912519216537476,-0.5613864660263062,-0.5759752988815308
1761399811641820000,1.97681982421875,-0.35387882590293884,-0.6241716742515564,-0.3980782926082611
1761399811651889700,1.9868896484375,-0.27758729457855225,-0.6205577850341797,-0.19663265347480774
1761399811661984000,1.99698388671875,-0.23165582120418549,-0.6200914978981018,-0.0197515320032835
1761399811672051700,2.0070517578125,-0.17191825807094574,-0.6390769481658936,0.0922626331448555
1761399811682145800,2.017145751953125,-0.12265601009130478,-0.68657386302948,0.1625254601240158
1761399811692204300,2.027204345703125,-0.09172970801591873,-0.7489594221115112,0.25683653354644775
1761399811702295300,2.03729541015625,-0.046580970287323,-0.7591183185577393,0.38811925053596497
1761399811712382000,2.0473818359375,0.03487327694892883,-0.723495602607727,0.5357061624526978
1761399811722456800,2.057456787109375,0.13601243495941162,-0.6961998343467712,0.6745331287384033
1761399811732539600,2.06753955078125,0.24975861608982086,-0.7676118016242981,0.8128771185874939
1761399811742631700,2.077631591796875,0.40637192130088806,-0.951803982257843,0.998251736164093
1761399811752700000,2.087699951171875,0.6364456415176392,-1.2218303680419922,1.1734508275985718
1761399811762780000,2.09777978515625,0.8378080129623413,-1.4028583765029907,1.284399151802063
1761399811772862200,2.1078623046875,0.9941215515136719,-1.4734375476837158,1.390717625617981
1761399811782955800,2.117955810546875,1.1171939373016357,-1.5553747415542603,1.545715570449829
1761399811793036800,2.128036865234375,1.1827104091644287,-1.5981086492538452,1.7626659870147705
1761399811803104500,2.1381044921875,1.1731010675430298,-1.5969096422195435,2.011408567428589
1761399811813197300,2.148197265625,1.2022453546524048,-1.5099928379058838,2.274373769760132
1761399811823264800,2.1582646484375,1.358142614364624,-1.2546385526657104,2.5277464389801025
1761399811833358600,2.168358642578125,1.5365558862686157,-0.8795260190963745,2.6941022872924805
1761399811843441000,2.17844091796875,1.7201818227767944,-0.5597211122512817,2.603088617324829
1761399811853522200,2.188522216796875,1.8100630044937134,-0.3818240761756897,2.1729016304016113
1761399811863603200,2.198603271484375,1.7171175479888916,-0.4344337582588196,1.5124577283859253
1761399811873672400,2.20867236328125,1.547564148902893,-0.5601374506950378,0.8550781011581421
1761399811893824800,2.22882470703125,1.68276047706604,-0.2815675735473633,0.20532599091529846
1761399811903932400,2.238932373046875,1.7524571418762207,0.0201678778976202,0.22476109862327576
1761399811913997300,2.248997314453125,1.7749398946762085,0.1726510375738144,0.2375013381242752
1761399811924088800,2.2590888671875,1.9074716567993164,0.021316997706890106,0.10988246649503708
1761399811934163700,2.269163818359375,2.036472797393799,-0.33249521255493164,-0.09071382135152817
1761399811944243000,2.279242919921875,2.0120415687561035,-0.7176001071929932,-0.3132432997226715
1761399811954332200,2.289332275390625,1.9093369245529175,-1.3779773712158203,-0.5811046957969666
1761399811964400000,2.299400146484375,1.7842661142349243,-2.050462007522583,-0.8036341667175293
1761399811974492400,2.309492431640625,1.614296317100525,-2.4711062908172607,-0.9563505053520203
1761399811984572700,2.31957275390625,1.492106556892395,-2.5929296016693115,-1.0294277667999268
1761399811994654200,2.329654296875,1.4745700359344482,-2.6213412284851074,-1.0372217893600464
1761399812004737000,2.339737060546875,1.4426778554916382,-2.53507399559021,-0.9499720335006714
1761399812014803000,2.349802978515625,1.414732575416565,-2.3663365840911865,-0.7443296313285828
1761399812024886000,2.359885986328125,1.4293713569641113,-2.2012298107147217,-0.46759167313575745
1761399812034972200,2.36997216796875,1.5093600749969482,-2.067782163619995,-0.23698507249355316
1761399812045060900,2.380060791015625,1.6146960258483887,-1.9629790782928467,-0.13729478418827057
1761399812055137000,2.390136962890625,1.6196922063827515,-1.8812084197998047,-0.16885393857955933
1761399812065223000,2.400222900390625,1.540686011314392,-1.8257676362991333,-0.2541719079017639
1761399812075301600,2.410301513671875,1.4378981590270996,-1.7084407806396484,-0.311078280210495
1761399812085377800,2.420377685546875,1.3059659004211426,-1.5294779539108276,-0.32971400022506714
1761399812095478500,2.430478515625,1.1542655229568481,-1.2830168008804321,-0.3069814145565033
1761399812105534000,2.440533935546875,1.0028315782546997,-1.011558175086975,-0.2448457032442093
1761399812115627800,2.450627685546875,0.8545451760292053,-0.745778501033783,-0.16727182269096375
1761399812125708300,2.460708251953125,0.7147356271743774,-0.5323920249938965,-0.11552813649177551
1761399812135776800,2.47077685546875,0.5892651081085205,-0.3734971284866333,-0.1210738867521286
1761399812145871600,2.48087158203125,0.4853281080722809,-0.29187634587287903,-0.17926263809204102
1761399812155937800,2.490937744140625,0.4113181531429291,-0.2946908473968506,-0.26772817969322205
1761399812166032600,2.50103271484375,0.342670738697052,-0.40310776233673096,-0.3353763222694397
1761399812176127200,2.511127197265625,0.25160717964172363,-0.5327417850494385,-0.37434646487236023
1761399812186172700,2.521172607421875,0.12335547059774399,-0.6029379963874817,-0.4354330003261566
1761399812196275500,2.531275390625,-0.06091998517513275,-0.6135631799697876,-0.5583388209342957
1761399812206354200,2.541354248046875,-0.2596510350704193,-0.5458983182907104,-0.7773543000221252
1761399812216417000,2.5514169921875,-0.41949519515037537,-0.4112515151500702,-1.0549249649047852
1761399812226511000,2.561510986328125,-0.5583055019378662,-0.24364662170410156,-1.311345100402832
1761399812236587000,2.5715869140625,-0.6912036538124084,-0.11066519469022751,-1.4705064296722412
1761399812246680300,2.581680419921875,-0.7854813933372498,-0.07427641749382019,-1.4760189056396484
1761399812256761000,2.591760986328125,-0.8277990221977234,-0.10785068571567535,-1.3576929569244385
1761399812266838500,2.601838623046875,-0.8430206775665283,-0.17338380217552185,-1.1535160541534424
1761399812276908500,2.611908447265625,-0.8892685770988464,-0.27065926790237427,-0.9744532704353333
1761399812286993200,2.6219931640625,-0.9621959924697876,-0.39108365774154663,-0.8728644847869873
1761399812297085000,2.6320849609375,-1.021783709526062,-0.488725483417511,-0.7736737728118896
1761399812307153700,2.642153564453125,-1.0250145196914673,-0.6124306917190552,-0.6852248907089233
1761399812317234400,2.652234375,-0.9492725729942322,-0.6780470609664917,-0.5993573665618896
1761399812327327700,2.66232763671875,-0.856160581111908,-0.6297674179077148,-0.5369385480880737
1761399812337381000,2.672381103515625,-0.7884291410446167,-0.4740700423717499,-0.4496387839317322
1761399812347490000,2.682489990234375,-0.781601071357727,-0.20071285963058472,-0.31993815302848816
1761399812357558800,2.692558837890625,-0.8324454426765442,0.18572434782981873,-0.338457316160202
1761399812367652000,2.702652099609375,-0.8614898324012756,0.598624587059021,-0.3739301264286041
1761399812377732900,2.71273291015625,-0.7394000887870789,1.018885850906372,-0.24123181402683258
1761399812387803100,2.72280322265625,-0.3830564618110657,1.4196953773498535,-0.1913367062807083
1761399812397892900,2.732892822265625,0.14437270164489746,1.637545108795166,-0.2959398925304413
1761399812407968300,2.74296826171875,0.5961765050888062,1.6990647315979004,-0.22349540889263153
1761399812418057000,2.753056884765625,0.7231957912445068,1.48609459400177,0.034423619508743286
1761399812428138000,2.763137939453125,0.5237985849380493,1.0849353075027466,0.15421515703201294
1761399812438206500,2.77320654296875,0.14125841856002808,0.6173102855682373,0.0014155819080770016
1761399812448299800,2.7832998046875,-0.33026358485221863,-0.03182561323046684,-0.24091538786888123
1761399812458368000,2.793367919921875,-0.7617496252059937,-0.8084638118743896,-0.47508594393730164
1761399812468449000,2.803448974609375,-1.0242317914962769,-1.5220003128051758,-0.6941680312156677
1761399812478542300,2.813542236328125,-1.0039973258972168,-1.8998608589172363,-0.9070216417312622
1761399812488623000,2.823623046875,-0.8030846118927002,-1.8631722927093506,-1.0423179864883423
1761399812498704600,2.83370458984375,-0.5760419368743896,-1.4078545570373535,-1.0753593444824219
1761399812508785700,2.84378564453125,-0.43969640135765076,-0.8286150097846985,-1.063285231590271
1761399812518866700,2.85386669921875,-0.4265897572040558,-0.4883091449737549,-1.104187250137329
1761399812528945400,2.8639453125,-0.519052267074585,-0.3148920238018036,-1.1577295064926147
1761399812539016400,2.874016357421875,-0.6041536927223206,-0.2647637724876404,-1.2079743146896362
1761399812549096400,2.884096435546875,-0.6465878486633301,-0.27105894684791565,-1.2478604316711426
1761399812559201300,2.894201171875,-0.6633417010307312,-0.2686774432659149,-1.257836103439331
1761399812569259000,2.904259033203125,-0.6655399799346924,-0.2640809714794159,-1.212687373161316
1761399812579352300,2.914352294921875,-0.668737530708313,-0.20885662734508514,-1.1267199516296387
1761399812599511300,2.93451123046875,-0.5802386999130249,-0.09819142520427704,-0.9571165442466736
1761399812609581300,2.944581298828125,-0.5450323224067688,-0.04768012836575508,-0.9089701175689697
1761399812619657700,2.95465771484375,-0.5711456537246704,0.00997568853199482,-0.8789764642715454
1761399812629745000,2.964744873046875,-0.6291678547859192,0.039269909262657166,-0.8505815267562866
1761399812639838500,2.97483837890625,-0.6635915040969849,0.060803405940532684,-0.8033010959625244
1761399812649906400,2.984906494140625,-0.6678715348243713,0.08764950186014175,-0.7363024353981018
1761399812659996400,2.994996337890625,-0.6676217317581177,0.0766412690281868,-0.6676716804504395
1761399812670081300,3.005081298828125,-0.6815610527992249,-0.024431278929114342,-0.6240717768669128
1761399812680162300,3.015162353515625,-0.7162011861801147,-0.15291614830493927,-0.622639536857605
1761399812690239200,3.0252392578125,-0.7510078549385071,-0.23060661554336548,-0.6694703102111816
1761399812700323800,3.03532373046875,-0.7779371738433838,-0.26501357555389404,-0.7322888374328613
1761399812710404900,3.04540478515625,-0.8031012415885925,-0.2824668884277344,-0.7859310507774353
1761399812720469000,3.055468994140625,-0.8288981318473816,-0.3291477859020233,-0.8239519596099854
1761399812730554600,3.0655546875,-0.8591915965080261,-0.4050063192844391,-0.8545451760292053
1761399812740648200,3.075648193359375,-0.8915834426879883,-0.47523581981658936,-0.8929490447044373
1761399812750706200,3.0857060546875,-0.8802088499069214,-0.5881659388542175,-0.9286883473396301
1761399812760797400,3.09579736328125,-0.8535792231559753,-0.6837427020072937,-0.9535526037216187
1761399812770891300,3.105891357421875,-0.8607071042060852,-0.6699532866477966,-0.9558342099189758
1761399812780951300,3.115951416015625,-0.958732008934021,-0.467425137758255,-0.9559841156005859
1761399812791051300,3.12605126953125,-0.9388472437858582,-0.33334454894065857,-0.940679132938385
1761399812801133800,3.1361337890625,-0.8490493893623352,-0.29430779814720154,-0.8891186714172363
1761399812811214600,3.146214599609375,-0.735902726650238,-0.3179563581943512,-0.7935585379600525
1761399812821288400,3.156288330078125,-0.5711956024169922,-0.4290212392807007,-0.6443728804588318
1761399812831364000,3.166364013671875,-0.45150402188301086,-0.5469974875450134,-0.4426441490650177
1761399812841455900,3.176455810546875,-0.3667522966861725,-0.602205216884613,-0.22304575145244598
1761399812851537000,3.186536865234375,-0.27377355098724365,-0.5802553296089172,-0.01836925745010376
1761399812861598700,3.1965986328125,-0.17325057089328766,-0.5055292844772339,0.17246784269809723
1761399812871700500,3.206700439453125,-0.1017053946852684,-0.35834208130836487,0.3177398443222046
1761399812881781500,3.216781494140625,-0.06190256401896477,-0.21983154118061066,0.3970790505409241
1761399812891852000,3.22685205078125,-0.029160987585783005,-0.22772549092769623,0.4252907633781433
1761399812901943000,3.236943115234375,0.01573793962597847,-0.4190455675125122,0.42968741059303284
1761399812912024800,3.24702490234375,0.12318893522024155,-0.6945511102676392,0.45851531624794006
1761399812922090500,3.257090576171875,0.3779936730861664,-0.9667258858680725,0.4884756803512573
1761399812932192500,3.267192626953125,0.5825369358062744,-1.202178716659546,0.5793393850326538
1761399812942267400,3.277267333984375,0.7902610898017883,-1.4699236154556274,0.7513242363929749
1761399812952338000,3.287337890625,1.0113083124160767,-1.6413089036941528,0.8707160949707031
1761399812962417200,3.297417236328125,1.1783803701400757,-1.6806954145431519,0.9637115001678467
1761399812972485000,3.307485107421875,1.2708594799041748,-1.7261439561843872,1.101006269454956
1761399812982566000,3.31756591796875,1.312111258506775,-1.7457289695739746,1.3463016748428345
1761399812992647000,3.32764697265625,1.3341609239578247,-1.6380780935287476,1.6913039684295654
1761399813002728000,3.33772802734375,1.340639352798462,-1.3356099128723145,2.0757761001586914
1761399813012809000,3.34780908203125,1.402108907699585,-0.9908074140548706,2.3322794437408447
1761399813022889700,3.3578896484375,1.569996953010559,-0.702911376953125,2.2891292572021484
1761399813032959200,3.367959228515625,1.6894387006759644,-0.37601184844970703,2.0296945571899414
1761399813043040300,3.378040283203125,1.6814781427383423,-0.12042438238859177,1.7574032545089722
1761399813053141800,3.388141845703125,1.5873836278915405,-0.05895482376217842,1.5759257078170776
1761399813063222800,3.398222900390625,1.5107423067092896,-0.11749330163002014,1.4864776134490967
1761399813073299200,3.40829931640625,1.496503233909607,-0.15000171959400177,1.461113691329956
1761399813083401200,3.418401123046875,1.5040473937988281,-0.14319027960300446,1.4127341508865356
1761399813093482200,3.428482177734375,1.4698070287704468,-0.10275459289550781,1.2920266389846802
1761399813103563000,3.43856298828125,1.40986967086792,-0.05973755568265915,1.1110485792160034
1761399813113642200,3.448642333984375,1.3811416625976562,-0.042983729392290115,0.893481969833374
1761399813123724800,3.458724853515625,1.3562273979187012,-0.1535656601190567,0.6468876004219055
1761399813133810700,3.468810791015625,1.3638548851013184,-0.2698598802089691,0.44199463725090027
1761399813143886600,3.478886474609375,1.378027319908142,-0.36984992027282715,0.30056968331336975
1761399813153967600,3.488967529296875,1.4516209363937378,-0.7438133358955383,0.10806718468666077
1761399813164049000,3.499048828125,1.5151389837265015,-1.3589420318603516,-0.13136599957942963
1761399813174140700,3.509140625,1.4520705938339233,-1.7818845510482788,-0.29917073249816895
1761399813184210700,3.519210693359375,1.2937586307525635,-1.988376259803772,-0.4509710967540741
1761399813194292000,3.5292919921875,1.185258388519287,-2.0195024013519287,-0.5631351470947266
1761399813204359700,3.539359619140625,1.121040940284729,-1.954835295677185,-0.6089999675750732
1761399813214455000,3.549455078125,1.0427342653274536,-1.841155767440796,-0.6306500434875488
1761399813234595000,3.569594970703125,0.8769446611404419,-1.6682716608047485,-0.7038439512252808
1761399813244681700,3.579681640625,0.8223364949226379,-1.5053797960281372,-0.7621326446533203
1761399813254765300,3.589765380859375,0.8229860067367554,-1.3898016214370728,-0.8309299349784851
1761399813264848100,3.59984814453125,0.7532228231430054,-1.3023186922073364,-0.8559607267379761
1761399813274926800,3.6099267578125,0.6400262117385864,-1.253506064414978,-0.8538956642150879
1761399813285020400,3.6200205078125,0.5575560927391052,-1.193901777267456,-0.870915949344635
1761399813295105300,3.630105224609375,0.4686908423900604,-1.0194520950317383,-0.9257739186286926
1761399813305180400,3.640180419921875,0.33500996232032776,-0.717933177947998,-0.985411524772644
1761399813315263200,3.65026318359375,0.1595943719148636,-0.32624998688697815,-1.0217503309249878
1761399813325314800,3.660314697265625,-0.043400075286626816,0.06586619466543198,-1.0168874263763428
1761399813335412500,3.67041259765625,-0.2595677673816681,0.37902623414993286,-0.9688242673873901
1761399813345506300,3.68050634765625,-0.4959033131599426,0.5328250527381897,-0.8777940273284912
1761399813355585800,3.690585693359375,-0.7451789975166321,0.5265964865684509,-0.7316060662269592
1761399813365670700,3.700670654296875,-0.9322856068611145,0.39156660437583923,-0.5678815245628357
1761399813375749400,3.710749267578125,-0.9843456745147705,0.17947913706302643,-0.448323130607605
1761399813385830400,3.720830322265625,-0.8616563677787781,-0.0980914980173111,-0.40310776233673096
1761399813395911400,3.730911376953125,-0.5695801973342896,-0.518219530582428,-0.33952316641807556
1761399813405992000,3.740991943359375,-0.17151856422424316,-0.920861005783081,-0.21511848270893097
1761399813416073000,3.751072998046875,0.1876561939716339,-0.9959201812744141,-0.093378446996212
1761399813426139100,3.76113916015625,0.4102356433868408,-0.7123208045959473,-0.05610700696706772
1761399813436235500,3.771235595703125,0.5604871511459351,-0.3407888412475586,-0.12733575701713562
1761399813446315800,3.781315673828125,0.6514841318130493,0.021050535142421722,-0.2604670822620392
1761399813456377300,3.79137744140625,0.6705361604690552,0.2732406258583069,-0.37687787413597107
1761399813466465800,3.8014658203125,0.6175934076309204,0.3910503387451172,-0.422076553106308
1761399813476558800,3.811558837890625,0.48113131523132324,0.379342645406723,-0.3770444095134735
1761399813486638000,3.82163818359375,0.2322220504283905,0.19165313243865967,-0.2953903079032898
1761399813496719600,3.8317197265625,-0.13587920367717743,-0.019968030974268913,-0.43753138184547424
1761399813506801700,3.8418017578125,-0.5480133891105652,-0.2049262970685959,-0.7809515595436096
1761399813516882400,3.85188232421875,-0.8645541667938232,-0.16100995242595673,-0.9649605751037598
1761399813526964000,3.8619638671875,-0.9662595391273499,-0.1189255341887474,-0.8313462734222412
1761399813537032200,3.8720322265625,-0.7254607677459717,-0.09224598109722137,-0.21072185039520264
1761399813547125800,3.882125732421875,-0.06025382876396179,-0.06828100979328156,0.43463361263275146
1761399813557205500,3.89220556640625,0.5070114731788635,0.06320156902074814,0.6066018342971802
1761399813567288000,3.9022880859375,0.4169471561908722,0.3412218689918518,0.40663838386535645
1761399813577368800,3.912368896484375,-0.13824406266212463,0.5238319039344788,0.03598908707499504
1761399813587449600,3.92244970703125,-0.7318058609962463,0.5342572927474976,-0.3509477376937866
1761399813597518300,3.932518310546875,-1.1115648746490479,0.31404268741607666,-0.5892817974090576
1761399813607611400,3.942611328125,-1.2380512952804565,-0.07377679646015167,-0.6853747963905334
1761399813617691000,3.95269091796875,-1.0858012437820435,-0.4338175654411316,-0.7635648846626282
1761399813627773700,3.962773681640625,-0.7486263513565063,-0.4230424761772156,-0.8564770221710205
1761399813637854700,3.972854736328125,-0.3704327940940857,-0.028661370277404785,-0.930736780166626
1761399813647935500,3.982935546875,-0.011141462251543999,0.303017795085907,-1.0008829832077026
1761399813658016300,3.993016357421875,0.04723047465085983,0.48273009061813354,-1.0138564109802246
1761399813668086500,4.00308642578125,-0.17443299293518066,0.7152019143104553,-1.0153719186782837
1761399813678175700,4.01317578125,-0.4485562741756439,0.9509546160697937,-1.0903477668762207
1761399813688233500,4.0232333984375,-0.6711856722831726,1.1492359638214111,-1.1845755577087402
1761399813698340400,4.03334033203125,-0.8315794467926025,1.204943299293518,-1.201029658317566
1761399813708421000,4.043421142578125,-0.9063721299171448,1.1313663721084595,-1.1073181629180908
1761399813718502100,4.053502197265625,-0.865969717502594,0.9719218611717224,-0.9647274017333984
1761399813728583000,4.0635830078125,-0.7389670610427856,0.8635382652282715,-0.8092299103736877
1761399813738652700,4.073652587890625,-0.6284018158912659,0.866935670375824,-0.6659730076789856
1761399813748742700,4.08374267578125,-0.5959766507148743,0.911051869392395,-0.5332747101783752
1761399813758826000,4.093825927734375,-0.6204745173454285,0.9527032971382141,-0.41866251826286316
1761399813768894500,4.10389453125,-0.6531828045845032,0.9694570899009705,-0.33697509765625
1761399813778988500,4.113988525390625,-0.6764150261878967,0.959214985370636,-0.3026181161403656
1761399813789068800,4.12406884765625,-0.6932021379470825,0.9295377135276794,-0.3155082166194916
1761399813799150300,4.134150390625,-0.7086402773857117,0.908786952495575,-0.3591914176940918
1761399813809209300,4.144209228515625,-0.7358527779579163,0.8686843514442444,-0.4195118546485901
1761399813819311400,4.154311279296875,-0.774256706237793,0.7568033933639526,-0.4912402331829071
1761399813829392600,4.164392578125,-0.8180398344993591,0.618659257888794,-0.5597211122512817
1761399813849545200,4.184545166015625,-0.8865706324577332,0.41962844133377075,-0.634513795375824
1761399813859634200,4.19463427734375,-0.9124841094017029,0.3194884955883026,-0.6432904005050659
1761399813869716500,4.204716552734375,-0.9302371740341187,0.17176836729049683,-0.67588210105896
1761399813879793700,4.214793701171875,-0.9351833462715149,-0.00008326952229253948,-0.7387006282806396
1761399813889878800,4.224878662109375,-0.9403960704803467,-0.10741768777370453,-0.8080141544342041
1761399813899942400,4.2349423828125,-0.9725547432899475,-0.13924330472946167,-0.842304527759552
1761399813910040600,4.24504052734375,-0.966542661190033,-0.12575364112854004,-0.8165243268013
1761399813920122000,4.2551220703125,-1.0358062982559204,0.007810681592673063,-0.7680614590644836
1761399813930174700,4.2651748046875,-1.0181530714035034,0.13244850933551788,-0.6964330077171326
1761399813940279800,4.27527978515625,-0.8734306693077087,0.1802119016647339,-0.576058566570282
1761399813950364700,4.28536474609375,-0.7799856066703796,0.11457886546850204,-0.41266709566116333
1761399813960433400,4.295433349609375,-0.7175834774971008,0.01538820844143629,-0.2534724175930023
1761399813970501400,4.30550146484375,-0.5933619737625122,-0.01878560520708561,-0.14493893086910248
1761399813980607500,4.315607421875,-0.4344504177570343,-0.07049597799777985,-0.090530626475811
1761399813990688500,4.3256884765625,-0.2888619899749756,-0.19565007090568542,-0.058838244527578354
1761399814000766500,4.335766357421875,-0.14881929755210876,-0.34868279099464417,-0.022616002708673477
1761399814010843400,4.345843505859375,-0.012323889881372452,-0.36888399720191956,0.023531967774033546
1761399814020931300,4.355931396484375,0.068447545170784,-0.22349540889263153,0.06666558235883713
1761399814031000800,4.366000732421875,0.06769812107086182,-0.02709590271115303,0.0968424528837204
1761399814041081300,4.376081298828125,-0.13970960676670074,0.16990314424037933,0.15727947652339935
1761399814051162600,4.38616259765625,-0.23338782787322998,0.22171343863010406,0.2486094981431961
1761399814061255200,4.396255126953125,-0.10370386391878128,0.14368988573551178,0.35534435510635376
1761399814071334700,4.406334716796875,0.06123640760779381,-0.005895482376217842,0.48238036036491394
1761399814081417700,4.416417724609375,0.15121746063232422,-0.2782367765903473,0.6459383368492126
1761399814091504000,4.426504150390625,0.29647281765937805,-0.6057857871055603,0.7902277708053589
1761399814101566700,4.436566650390625,0.5169038772583008,-0.7264932990074158,0.8896016478538513
1761399814111644200,4.44664404296875,0.7670288681983948,-0.686790406703949,0.9994674324989319
1761399814121741000,4.456740966796875,0.997901976108551,-0.7839825749397278,1.0876498222351074
1761399814131804000,4.466803955078125,1.1177101135253906,-0.9050564765930176,1.1879230737686157
1761399814141902600,4.476902587890625,1.179229736328125,-1.0284452438354492,1.3612568378448486
1761399814151985400,4.4869853515625,1.2540557384490967,-1.0674487352371216,1.6828603744506836
1761399814162065400,4.4970654296875,1.3093632459640503,-0.8472673892974854,2.1405763626098633
1761399814172133000,4.507133056640625,1.2582857608795166,-0.3874531090259552,2.5890660285949707
1761399814182227000,4.51722705078125,1.4064722061157227,-0.08590084314346313,2.817107915878296
1761399814192307700,4.5273076171875,1.7059926986694336,0.04768012836575508,2.6840598583221436
1761399814202374000,4.537373779296875,1.7917935848236084,0.3044833540916443,2.259918212890625
1761399814212457200,4.547457275390625,1.65183424949646,0.33744141459465027,1.787913203239441
1761399814222550800,4.55755078125,1.4347338676452637,0.09166309237480164,1.4477072954177856
1761399814232619000,4.567618896484375,1.297822117805481,-0.0737268403172493,1.2892286777496338
1761399814242712300,4.57771240234375,1.3198719024658203,0.0021983154583722353,1.2585022449493408
1761399814252793900,4.5877939453125,1.3835065364837646,0.15707963705062866,1.2226797342300415
1761399814262878200,4.597878173828125,1.4405627250671387,0.2284749150276184,1.138594150543213
1761399814272944600,4.607944580078125,1.500483512878418,0.20131240785121918,1.0253143310546875
1761399814283036700,4.61803662109375,1.5067620277404785,0.08913169801235199,0.8845721483230591
1761399814293117400,4.628117431640625,1.4535361528396606,-0.2137528657913208,0.6865572333335876
1761399814303199000,4.638198974609375,1.3963966369628906,-0.5603039860725403,0.5077276229858398
1761399814313280000,4.648280029296875,1.2800191640853882,-0.748043417930603,0.3955802023410797
1761399814323359000,4.65835888671875,1.1392103433609009,-1.0071449279785156,0.23010700941085815
1761399814333429000,4.668428955078125,1.0486630201339722,-1.390451192855835,0.02851148508489132
1761399814343522600,4.6785224609375,0.9890087842941284,-1.5615533590316772,-0.08255340903997421
1761399814353603800,4.688603759765625,0.9453422427177429,-1.5016826391220093,-0.12432140111923218
1761399814363688400,4.6986884765625,0.9487562775611877,-1.4054063558578491,-0.1505679488182068
1761399814373765400,4.708765380859375,0.9616630673408508,-1.3506816625595093,-0.17837996780872345
1761399814383830000,4.718830078125,0.9758688807487488,-1.3395568132400513,-0.2111881673336029
1761399814393924400,4.72892431640625,1.0017657279968262,-1.300020456314087,-0.2371516078710556
1761399814403997400,4.73899755859375,1.0418848991394043,-1.2812681198120117,-0.27612173557281494
1761399814414075000,4.749074951171875,0.9987346529960632,-1.2243285179138184,-0.3208041787147522
1761399814424170000,4.759169921875,0.899793803691864,-1.1995973587036133,-0.3733472526073456
1761399814434251300,4.769251220703125,0.786880373954773,-1.1597613096237183,-0.44517552852630615
1761399814444332000,4.77933203125,0.6718018651008606,-1.0300606489181519,-0.5623690485954285
1761399814454400500,4.789400390625,0.5438998937606812,-0.7601175308227539,-0.7183994650840759
1761399814464492500,4.799492431640625,0.36012405157089233,-0.4221098721027374,-0.8455020785331726
1761399814474561500,4.8095615234375,0.1372448354959488,-0.10473641008138657,-0.8855880498886108
1761399814484654000,4.819654052734375,-0.0944109857082367,0.18470846116542816,-0.8324620723724365
1761399814494736600,4.829736572265625,-0.31687384843826294,0.42156028747558594,-0.7340708374977112
1761399814504817400,4.8398173828125,-0.5313095450401306,0.593278706073761,-0.6465545296669006
1761399814514897400,4.8498974609375,-0.7324720621109009,0.6693037748336792,-0.6024217009544373
1761399814524977400,4.859977294921875,-0.9244915843009949,0.6668223738670349,-0.5690139532089233
1761399814535042300,4.870042236328125,-1.09524405002594,0.6169772148132324,-0.48945826292037964
1761399814545142000,4.88014208984375,-1.179779291152954,0.45495137572288513,-0.37526243925094604
1761399814555211500,4.89021142578125,-1.0910139083862305,0.2502748668193817,-0.33535969257354736
1761399814565304000,4.900303955078125,-0.8038340210914612,-0.007843988947570324,-0.3866370618343353
1761399814575383300,4.91038330078125,-0.38873544335365295,-0.3373914659023285,-0.3663525879383087
1761399814585446000,4.92044580078125,0.05472473055124283,-0.5747095942497253,-0.19703234732151031
1761399814595546600,4.930546630859375,0.365103542804718,-0.42372530698776245,-0.03125938028097153
1761399814605627600,4.940627685546875,0.5223664045333862,-0.003630551276728511,-0.057888973504304886
1761399814615698200,4.9506982421875,0.592928946018219,0.3448357582092285,-0.21012231707572937
1761399814625771500,4.960771484375,0.5796558260917664,0.48376262187957764,-0.3425208628177643
1761399814635856100,4.970856201171875,0.522549569606781,0.42525747418403625,-0.3894016146659851
1761399814645952000,4.980951904296875,0.40637192130088806,0.30848029255867004,-0.3101956248283386
1761399814656032500,4.991032470703125,0.12205646932125092,0.202361598610878,-0.2124372124671936
1761399814666103000,5.00110302734375,-0.306864857673645,0.011224731802940369,-0.3090132176876068
1761399814676194600,5.011194580078125,-0.7900112867355347,-0.27682119607925415,-0.4580489993095398
1761399814686275600,5.021275634765625,-1.0683313608169556,-0.28090140223503113,-0.5575061440467834
1761399814696343800,5.03134375,-0.882307231426239,0.0963594913482666,-0.7525399923324585
1761399814706435300,5.041435302734375,-0.3010692894458771,0.46494370698928833,-0.7757222056388855
1761399814716518700,5.0515185546875,0.3941646218299866,0.4649770259857178,-0.5142725706100464
1761399814726582500,5.06158251953125,0.7104389071464539,0.49558690190315247,-0.22024789452552795
1761399814736668000,5.07166796875,0.4488060772418976,0.557472825050354,-0.18317629396915436
1761399814746761000,5.081760986328125,-0.08699999749660492,0.5640177726745605,-0.32396841049194336
1761399814756829400,5.091829345703125,-0.6492358446121216,0.6591448783874512,-0.5142725706100464
1761399814766921200,5.101921142578125,-1.1320991516113281,0.745778501033783,-0.6094829440116882
1761399814777004500,5.112004638671875,-1.4554513692855835,0.6097161173820496,-0.6201414465904236
1761399814787085000,5.1220849609375,-1.4827138185501099,0.2357693314552307,-0.6293677091598511
1761399814797154800,5.13215478515625,-1.184425711631775,-0.2832662761211395,-0.6418747901916504
1761399814817328000,5.152328125,-0.2547714412212372,-0.11939184367656708,-0.6555643081665039
1761399814827409000,5.162408935546875,-0.11507847905158997,0.16277526319026947,-0.7407656908035278
1761399814837475600,5.1724755859375,-0.2325717806816101,0.4032243490219116,-0.8122442364692688
1761399814847550000,5.182550048828125,-0.36055704951286316,0.6778305768966675,-0.8827235698699951
1761399814857651700,5.192651611328125,-0.42220979928970337,0.8919332027435303,-0.9446594715118408
1761399814877813800,5.212813720703125,-0.5175200700759888,1.0624858140945435,-0.9034410119056702
1761399814887895000,5.22289501953125,-0.5785233378410339,1.0323922634124756,-0.8081307411193848
1761399814897974000,5.23297412109375,-0.6715686917304993,0.9596645832061768,-0.703177809715271
1761399814908043800,5.243043701171875,-0.6894217133522034,0.9009762406349182,-0.6402426958084106
1761399814918137600,5.2531376953125,-0.652133584022522,0.8541620969772339,-0.611598014831543
1761399814928219100,5.26321923828125,-0.6227894425392151,0.7958235144615173,-0.5772076845169067
1761399814938295800,5.2732958984375,-0.6204912066459656,0.7170671820640564,-0.5228660106658936
1761399814948381200,5.283381103515625,-0.6148788332939148,0.6521169543266296,-0.4677582383155823
1761399814958459400,5.29345947265625,-0.6105321645736694,0.6092830896377563,-0.4371649920940399
1761399814968527000,5.303527099609375,-0.6142959594726562,0.5624523162841797,-0.4282051920890808
1761399814978598400,5.313598388671875,-0.6310664415359497,0.5097593665122986,-0.43816423416137695
1761399814988704800,5.323704833984375,-0.6522501707077026,0.4866437613964081,-0.45851531624794006
1761399814998785800,5.333785888671875,-0.6889054179191589,0.520700991153717,-0.505329430103302
1761399815008856800,5.34385693359375,-0.7011793255805969,0.5509278178215027,-0.5579057931900024
1761399815018935800,5.353935791015625,-0.6952838897705078,0.5529762506484985,-0.5826202034950256
1761399815029026300,5.3640263671875,-0.7045767307281494,0.5300271511077881,-0.5699299573898315
1761399815039109400,5.374109375,-0.7307733297348022,0.48347949981689453,-0.5382542014122009
1761399815049190400,5.3841904296875,-0.7667458057403564,0.4296540915966034,-0.5154383778572083
1761399815059257600,5.394257568359375,-0.7962898015975952,0.3766946792602539,-0.49890103936195374
1761399815069358000,5.404358154296875,-0.8170239329338074,0.33917343616485596,-0.47705110907554626
1761399815079433500,5.41443359375,-0.829064667224884,0.32708269357681274,-0.4555009603500366
1761399815089510400,5.424510498046875,-0.8439699411392212,0.3757120966911316,-0.4466743767261505
1761399815099593200,5.43459326171875,-0.8567934632301331,0.4449257254600525,-0.43768128752708435
1761399815109651500,5.4446513671875,-0.8659864068031311,0.5109751224517822,-0.43614912033081055
1761399815119757600,5.454757568359375,-0.8678016662597656,0.5924127101898193,-0.4268062710762024
1761399815129837800,5.464837890625,-0.8310964703559875,0.6353631019592285,-0.4055559039115906
1761399815139919400,5.47491943359375,-0.785914421081543,0.6313162446022034,-0.39184972643852234
1761399815150000400,5.48500048828125,-0.7790530323982239,0.6112815737724304,-0.3603905141353607
1761399815160076500,5.49507666015625,-0.7707593441009521,0.4852781295776367,-0.30083614587783813
1761399815170162400,5.505162353515625,-0.6072013974189758,0.3958966135978699,-0.1917530596256256
1761399815180243200,5.5152431640625,-0.5058956742286682,0.5850849747657776,-0.07232791185379028
1761399815190324500,5.525324462890625,-0.4121508300304413,0.785564661026001,-0.00567898154258728
1761399815200412000,5.535411865234375,-0.3104454278945923,0.8812413811683655,0.021600114181637764
1761399815210475500,5.5454755859375,-0.19759857654571533,0.9096362590789795,0.08843223750591278
1761399815220552000,5.555552001953125,-0.08799923211336136,0.9301539063453674,0.21808288991451263
1761399815230636000,5.565635986328125,0.006428407039493322,0.9187792539596558,0.3825068771839142
1761399815240729300,5.575729248046875,0.09562671929597855,0.9110851883888245,0.5426341891288757
1761399815250812200,5.585812255859375,0.1430903524160385,0.8778772950172424,0.6347469091415405
1761399815260890600,5.595890625,0.14194123446941376,0.7850317358970642,0.6778305768966675
1761399815270958800,5.605958740234375,0.4193786382675171,0.5546416640281677,0.6440064907073975
1761399815281051400,5.616051513671875,0.8478170037269592,0.2647304832935333,0.5897480845451355
1761399815291133700,5.6261337890625,1.149102807044983,-0.1281518042087555,0.6683045625686646
1761399815301214500,5.63621435546875,1.4093366861343384,-0.4372815787792206,0.8408889770507812
1761399815311295700,5.646295654296875,1.6297510862350464,-0.4398629367351532,1.0430006980895996
1761399815321376500,5.65637646484375,1.8204883337020874,-0.3853047490119934,1.3057494163513184
1761399815331457800,5.666457763671875,1.9673757553100586,-0.21120482683181763,1.6880897283554077
1761399815341534500,5.676534423828125,2.0524938106536865,0.17186829447746277,2.1969997882843018
1761399815351608600,5.686608642578125,2.0767252445220947,0.728291928768158,2.7583863735198975
1761399815361700600,5.69670068359375,2.0416688919067383,1.3171906471252441,3.1532835960388184
1761399815371777300,5.70677734375,1.9508717060089111,1.859291911125183,3.2023627758026123
1761399815381862700,5.716862548828125,1.790144920349121,2.3142433166503906,2.8162918090820312
1761399815391943400,5.726943359375,1.548097014427185,2.332712411880493,2.2539894580841064
1761399815402012700,5.7370126953125,1.2352867126464844,1.9934724569320679,1.9279226064682007
1761399815412103700,5.747103759765625,1.0213173627853394,1.768861174583435,1.8927829265594482
1761399815422175200,5.75717529296875,0.9457919001579285,1.793408989906311,2.001899242401123
1761399815432255000,5.7672548828125,0.9567834734916687,1.889468789100647,2.1150460243225098
1761399815442348000,5.77734814453125,1.1370453834533691,1.803284764289856,2.076792001724243
1761399815452429300,5.78742919921875,1.3096131086349487,1.495553970336914,1.7596182823181152
1761399815462510000,5.797510009765625,1.429504632949829,1.1282687187194824,1.3543955087661743
1761399815472591400,5.80759130859375,1.509476661682129,0.6743665933609009,1.0207178592681885
1761399815482653700,5.81765380859375,1.4693074226379395,0.27072587609291077,0.8164910078048706
1761399815492753200,5.827753173828125,1.260101079940796,0.054208461195230484,0.7748229503631592
1761399815502834200,5.837834228515625,0.9765183925628662,-0.03175899758934975,0.832495391368866
1761399815512918800,5.847918701171875,0.7930256128311157,-0.16295845806598663,0.958998441696167
1761399815522996000,5.857995849609375,0.6566967964172363,-0.3561271131038666,1.0709127187728882
1761399815533077000,5.868076904296875,0.5367720127105713,-0.4452587962150574,1.1190258264541626
1761399815543150800,5.87815087890625,0.44828981161117554,-0.3550279438495636,1.1249213218688965
1761399815553239000,5.888239013671875,0.4293709695339203,-0.22942419350147247,1.1171272993087769
1761399815563320300,5.8983203125,0.47273772954940796,-0.1231556236743927,1.1153619289398193
1761399815573400800,5.90840087890625,0.4973522126674652,-0.050827719271183014,1.1046534776687622
1761399815583481600,5.918481689453125,0.4626454710960388,0.031042879447340965,1.0371718406677246
1761399815593562400,5.928562255859375,0.379475861787796,0.151750385761261,0.8754957914352417
1761399815603618000,5.9386181640625,0.22033116221427917,0.3411552309989929,0.6326984763145447
1761399815613713000,5.948712890625,-0.026063360273838043,0.5626355409622192,0.35394543409347534
1761399815623805700,5.9588056640625,-0.30929630994796753,0.7057425379753113,0.11567801982164383
1761399815633874000,5.9688740234375,-0.5440664291381836,0.7321223020553589,-0.030459992587566376
1761399815643967500,5.978967529296875,-0.6867071390151978,0.6251043081283569,-0.09922396391630173
1761399815654048300,5.98904833984375,-0.7560040354728699,0.4312695264816284,-0.15115083754062653
1761399815664104700,5.999104736328125,-0.8145591616630554,0.2763049304485321,-0.21395272016525269
1761399815674208800,6.009208740234375,-0.9078709483146667,0.2400660365819931,-0.28876206278800964
1761399815684289500,6.01928955078125,-1.0451990365982056,0.35672664642333984,-0.38775286078453064
1761399815694372600,6.02937255859375,-1.2137032747268677,0.5744098424911499,-0.5154383778572083
1761399815704454400,6.039454345703125,-1.3986115455627441,0.8466678857803345,-0.6447059512138367
1761399815714532000,6.049531982421875,-1.5509448051452637,1.128451943397522,-0.695367157459259
1761399815724614000,6.05961376953125,-1.601589322090149,1.2881295680999756,-0.5098593235015869
1761399815734678500,6.069678466796875,-1.4994843006134033,1.2534061670303345,-0.053675536066293716
1761399815744777700,6.07977783203125,-1.2534228563308716,1.1611768007278442,0.3132266402244568
1761399815754857700,6.089857666015625,-0.8600242733955383,0.9993508458137512,0.45864853262901306
1761399815764939500,6.099939453125,-0.37762728333473206,0.8262168765068054,0.42872145771980286
1761399815775025400,6.110025390625,-0.012623660266399384,0.7200815081596375,0.33617570996284485
1761399815785090000,6.120090087890625,0.20439337193965912,0.7102057933807373,0.3618227243423462
1761399815795180300,6.13018017578125,0.3839890956878662,0.5932287573814392,0.4268229305744171
1761399815805251800,6.140251953125,0.46427756547927856,0.4549180567264557,0.4713221490383148
1761399815815344000,6.15034423828125,0.45406872034072876,0.35431182384490967,0.5140061378479004
1761399815825425000,6.1604248046875,0.33464357256889343,0.38254019618034363,0.5117911696434021
1761399815835494100,6.170494140625,0.10228828340768814,0.6659730076789856,0.40205857157707214
1761399815845586700,6.180586669921875,-0.1621757298707962,0.9638780355453491,0.2463112473487854
1761399815855666400,6.19066650390625,-0.4296540915966034,1.0534427165985107,0.14487232267856598
1761399815865749200,6.200749267578125,-0.6119644045829773,1.1634584665298462,0.051244065165519714
1761399815875829800,6.210829833984375,-0.6186259388923645,1.289878249168396,-0.06190256401896477
1761399815885911000,6.2209111328125,-0.31785643100738525,1.60037362575531,-0.28418222069740295
1761399815895991800,6.23099169921875,0.09705895930528641,1.9489232301712036,-0.4761851131916046
1761399815906073000,6.241072998046875,0.3534957766532898,2.0233161449432373,-0.3901676833629608
1761399815916138500,6.251138427734375,0.33279499411582947,1.6898716688156128,-0.049661945551633835
1761399815926223600,6.2612236328125,0.15769582986831665,1.387020468711853,0.2590847909450531
1761399815936316200,6.271316162109375,-0.016220903024077415,1.24026620388031,0.30061963200569153
1761399815946384400,6.28138427734375,-0.28306642174720764,1.2020622491836548,0.1332145780324936
1761399815956478000,6.29147802734375,-0.6538156270980835,1.1860910654067993,-0.0638677254319191
1761399815966558700,6.301558837890625,-0.9824638366699219,1.2084406614303589,-0.2215968519449234
1761399815976626700,6.311626708984375,-1.1432405710220337,1.225877285003662,-0.4093862771987915
1761399815986707700,6.321707763671875,-1.0777240991592407,1.264281153678894,-0.6305667757987976
1761399815996801800,6.3318017578125,-0.7809016108512878,1.3445863723754883,-0.8096628785133362
1761399816006879700,6.341879638671875,-0.37366366386413574,1.4594316482543945,-0.8377746939659119
1761399816016963800,6.3519638671875,-0.1273857206106186,1.4300707578659058,-0.6842923164367676
1761399816027044000,6.362044189453125,-0.17962901294231415,1.3136600255966187,-0.4949873685836792
1761399816037125600,6.372125732421875,-0.32638323307037354,1.331113338470459,-0.46710872650146484
1761399816047192600,6.382192626953125,-0.4514540433883667,1.5006999969482422,-0.564400851726532
1761399816057287700,6.39228759765625,-0.5677982568740845,1.7169010639190674,-0.6538489460945129
1761399816067368400,6.402368408203125,-0.6602607369422913,1.8112787008285522,-0.6857911348342896
1761399816077449500,6.412449462890625,-0.7171504497528076,1.7817347049713135,-0.6535325050354004
1761399816087530000,6.422530029296875,-0.7372516989707947,1.6716023683547974,-0.5763750076293945
1761399816097598500,6.432598388671875,-0.6894217133522034,1.5267133712768555,-0.4752857983112335
1761399816107692300,6.4426923828125,-0.6235554814338684,1.3250013589859009,-0.3728809356689453
1761399816117761000,6.452760986328125,-0.590947151184082,1.1215072870254517,-0.293241947889328
1761399816127854300,6.462854248046875,-0.5856512188911438,0.9659431576728821,-0.25808554887771606
1761399816137936400,6.472936279296875,-0.5734772086143494,0.84615159034729,-0.27453961968421936
1761399816148016400,6.483016357421875,-0.5400195121765137,0.7331715226173401,-0.33152928948402405
1761399816158097200,6.49309716796875,-0.5009661316871643,0.6500352025032043,-0.3902342915534973
1761399816168168000,6.50316796875,-0.5073778629302979,0.6595279574394226,-0.42157694697380066
1761399816178257400,6.51325732421875,-0.5733273029327393,0.757436215877533,-0.42915448546409607
1761399816188329700,6.523329833984375,-0.6467710733413696,0.8943812847137451,-0.4403625428676605
1761399816198421000,6.5334208984375,-0.6863240599632263,1.0181365013122559,-0.4721548557281494
1761399816208493300,6.543493408203125,-0.6831431984901428,1.0661497116088867,-0.4957367777824402
1761399816218571800,6.55357177734375,-0.6493524312973022,1.0440665483474731,-0.46939030289649963
1761399816228663600,6.56366357421875,-0.6025382876396179,0.950355052947998,-0.3757287561893463
1761399816238732500,6.573732666015625,-0.6420246958732605,0.9138497114181519,-0.2686108350753784
1761399816248800000,6.583800048828125,-0.7368519902229309,0.8732641339302063,-0.19565007090568542
1761399816258881500,6.593881591796875,-0.7139695286750793,0.8111617565155029,-0.18755628168582916
1761399816268962300,6.60396240234375,-0.656730055809021,0.7819175124168396,-0.2003631293773651
1761399816279043600,6.614043701171875,-0.6685876846313477,0.7538556456565857,-0.19461752474308014
1761399816289118500,6.624118408203125,-0.7061588764190674,0.6940681338310242,-0.18582427501678467
1761399816299193900,6.63419384765625,-0.7313562035560608,0.6649404764175415,-0.1596776396036148
1761399816309285000,6.64428515625,-0.7104389071464539,0.671701967716217,-0.12302239239215851
1761399816319376100,6.654376220703125,-0.6572962999343872,0.6508678793907166,-0.09161312878131866
1761399816329457400,6.66445751953125,-0.594377875328064,0.5936617255210876,-0.046481046825647354
1761399816339553500,6.674553466796875,-0.5222498178482056,0.5165374875068665,0.0020317763555794954
1761399816349633500,6.684633544921875,-0.4854779839515686,0.5156881809234619,0.02095061168074608
1761399816359704300,6.694704345703125,-0.45744946599006653,0.6552478671073914,-0.021899884566664696
1761399816369783800,6.70478369140625,-0.36257216334342957,0.7504915595054626,-0.09404460340738297
1761399816379878400,6.71487841796875,-0.23628559708595276,0.6835595369338989,-0.10370386391878128
1761399816389954800,6.724954833984375,-0.13601243495941162,0.5429173111915588,-0.013656201772391796
1761399816400040400,6.73504052734375,-0.06841424107551575,0.44204458594322205,0.13827736675739288
1761399816410121000,6.745120849609375,0.0021983154583722353,0.36873412132263184,0.2831663489341736
1761399816420202500,6.755202392578125,-0.02721248008310795,0.42532408237457275,0.38936829566955566
1761399816430254300,6.76525439453125,-0.07967227697372437,0.6016222834587097,0.473120778799057
1761399816440360200,6.775360107421875,0.00481297867372632,0.7230958938598633,0.5382208824157715
1761399816450445000,6.785445068359375,0.19733211398124695,0.7401161789894104,0.6130468845367432
1761399816460526600,6.795526611328125,0.4454086720943451,0.5534758567810059,0.7622658610343933
1761399816470607600,6.805607666015625,0.7143192887306213,0.3023183345794678,0.9570999145507812
1761399816480696000,6.815696044921875,0.9444928765296936,0.030459992587566376,1.118043303489685
1761399816490756900,6.8257568359375,1.1119978427886963,-0.32216978073120117,1.2193822860717773
1761399816500848400,6.835848388671875,1.2712258100509644,-0.5612532496452332,1.3639881610870361
1761399816510935000,6.84593505859375,1.5292447805404663,-0.6554810404777527,1.6043206453323364
1761399816521003300,6.856003173828125,1.829864501953125,-0.49002450704574585,1.9728715419769287
1761399816531093000,6.866093017578125,2.01568865776062,-0.032924771308898926,2.40865421295166
1761399816541173800,6.876173828125,2.07832407951355,0.5526431798934937,2.788163423538208
1761399816561334000,6.896333984375,2.0392372608184814,1.822087049484253,2.9131510257720947
1761399816571417000,6.9064169921875,1.8764621019363403,2.5529770851135254,2.6236395835876465
1761399816581485000,6.916485107421875,1.6223400831222534,2.9092373847961426,2.2815184593200684
1761399816591579000,6.926578857421875,1.4005934000015259,2.735736846923828,2.0381548404693604
1761399816601660000,6.936659912109375,1.2491260766983032,2.3370258808135986,1.9077714681625366
1761399816611741200,6.9467412109375,1.1634584665298462,2.083287000656128,1.8400733470916748
1761399816621822000,6.956822021484375,1.1297675371170044,1.945176124572754,1.752240538597107
1761399816631891200,6.96689111328125,1.176148772239685,1.7282589673995972,1.6132804155349731
1761399816652064800,6.987064697265625,1.2503751516342163,1.2346038818359375,1.2534061670303345
1761399816662124500,6.99712451171875,1.2629988193511963,0.800320029258728,1.0181198120117188
1761399816672226600,7.0072265625,1.22764253616333,0.3215702474117279,0.8181730508804321
1761399816682307300,7.017307373046875,1.093678593635559,-0.19531700015068054,0.6532494425773621
1761399816692387000,7.027386962890625,0.8810415267944336,-0.6084004640579224,0.5795059204101562
1761399816702456300,7.037456298828125,0.6842090487480164,-0.8825404047966003,0.5768579840660095
1761399816712551200,7.04755126953125,0.5924460291862488,-1.06999671459198,0.5938449501991272
1761399816722631400,7.05763134765625,0.5825702548027039,-1.154581904411316,0.6000401973724365
1761399816732712700,7.067712646484375,0.6020719408988953,-1.077324390411377,0.606784999370575
1761399816742793000,7.07779296875,0.6637080907821655,-0.881208062171936,0.6311996579170227
1761399816752873700,7.087873779296875,0.6551146507263184,-0.49265581369400024,0.6779804825782776
1761399816762941000,7.09794091796875,0.5694302916526794,-0.15548086166381836,0.7181330323219299
1761399816773036300,7.108036376953125,0.48209723830223083,0.0572727769613266,0.7166674733161926
1761399816783120100,7.1181201171875,0.4016921818256378,0.264980286359787,0.6772143840789795
1761399816793198000,7.128197998046875,0.26662901043891907,0.4869268834590912,0.6053694486618042
1761399816803267000,7.13826708984375,0.12360528111457825,0.6806284189224243,0.49015772342681885
1761399816813361700,7.148361572265625,-0.0510275661945343,0.8709992170333862,0.36881738901138306
1761399816823431000,7.158430908203125,-0.23656871914863586,1.0163211822509766,0.28801262378692627
1761399816833503000,7.1685029296875,-0.3858376741409302,0.9817476868629456,0.21363629400730133
1761399816843603000,7.17860302734375,-0.5151885747909546,0.8421879410743713,0.1283016800880432
1761399816853684000,7.18868408203125,-0.6404092311859131,0.7426809072494507,0.02901110239326954
1761399816863747600,7.19874755859375,-0.7963730692863464,0.7277756333351135,-0.08496822416782379
1761399816873846500,7.208846435546875,-1.0049632787704468,0.8046001195907593,-0.18622396886348724
1761399816883914800,7.218914794921875,-1.2320725917816162,0.9296543002128601,-0.2596343755722046
1761399816893996300,7.228996337890625,-1.4133836030960083,1.0628021955490112,-0.30681487917900085
1761399816904089300,7.23908935546875,-1.4793497323989868,1.1686711311340332,-0.31007906794548035
1761399816914169900,7.249169921875,-1.3702000379562378,1.2042105197906494,-0.19551683962345123
1761399816924251100,7.259251220703125,-1.0696303844451904,1.0811381340026855,0.08874865621328354
1761399816934332200,7.269332275390625,-0.638760507106781,0.8484665155410767,0.33534303307533264
1761399816944391700,7.2793916015625,-0.11949176341295242,0.7112383246421814,0.33569276332855225
1761399816954490400,7.289490478515625,0.3194218873977661,0.7358028292655945,0.2574860155582428
1761399816964572200,7.299572265625,0.4677082598209381,0.8716320991516113,0.2564534842967987
1761399816974653000,7.30965283203125,0.38430550694465637,0.8910171985626221,0.2822170853614807
1761399816984723700,7.3197236328125,0.3654366433620453,0.6524167060852051,0.3286648094654083
1761399816994817500,7.329817626953125,0.43476682901382446,0.21651741862297058,0.43171918392181396
1761399817004886800,7.33988671875,0.39636293053627014,-0.05022817850112915,0.4934385418891907
1761399817014977300,7.349977294921875,0.10433671623468399,0.13233192265033722,0.46391117572784424
1761399817025060400,7.360060302734375,-0.35994085669517517,0.43363437056541443,0.34443604946136475
1761399817035128600,7.370128662109375,-0.7922595739364624,0.6799622774124146,0.14115849137306213
1761399817045216300,7.38021630859375,-1.1466712951660156,1.0607870817184448,-0.14900249242782593
1761399817055303400,7.390303466796875,-1.2949076890945435,1.516404628753662,-0.4833962321281433
1761399817065384200,7.40038427734375,-1.0446827411651611,1.8804256916046143,-0.8186726570129395
1761399817075463000,7.410462890625,-0.41961178183555603,2.057140350341797,-0.9686577320098877
1761399817085544400,7.42054443359375,0.2986711263656616,1.8412224054336548,-0.6323320865631104
1761399817095627000,7.430626953125,0.6809781789779663,1.4975024461746216,0.02942745015025139
1761399817105708300,7.440708251953125,0.5820040106773376,1.3506816625595093,0.5155549049377441
1761399817115788800,7.450788818359375,0.23838399350643158,1.2692606449127197,0.5966594219207764
1761399817125857500,7.460857421875,-0.19893088936805725,1.209256649017334,0.40087613463401794
1761399817135940400,7.4709404296875,-0.6317659020423889,1.193885087966919,0.18547454476356506
1761399817146031900,7.481031982421875,-0.938697338104248,1.216068148612976,0.049828484654426575
1761399817156111600,7.491111572265625,-1.0421013832092285,1.2829169034957886,-0.08673353493213654
1761399817166193700,7.501193603515625,-0.9027249217033386,1.3945480585098267,-0.264364093542099
1761399817176275000,7.51127490234375,-0.5714287757873535,1.4068552255630493,-0.4531860649585724
1761399817186356000,7.52135595703125,-0.2036106437444687,1.4341676235198975,-0.5391035676002502
1761399817196412700,7.53141259765625,-0.03560604900121689,1.3518973588943481,-0.47821688652038574
1761399817206518000,7.54151806640625,-0.07963897287845612,1.203977346420288,-0.3797423243522644
1761399817216598800,7.551598876953125,-0.1532825380563736,1.2835830450057983,-0.3795424997806549
1761399817226659800,7.561659912109375,-0.21503521502017975,1.5666494369506836,-0.4268728792667389
1761399817236761000,7.571760986328125,-0.2988876402378082,1.8337781429290771,-0.44156163930892944
1761399817246841300,7.58184130859375,-0.38442209362983704,1.9895254373550415,-0.39046746492385864
1761399817256915700,7.591915771484375,-0.45210355520248413,2.0355069637298584,-0.2670786678791046
1761399817266982400,7.601982421875,-0.47122225165367126,1.9597649574279785,-0.10726780444383621
1761399817277084400,7.61208447265625,-0.43288496136665344,1.7970062494277954,0.029793836176395416
1761399817287165700,7.622165771484375,-0.374263197183609,1.6191926002502441,0.10501952469348907
1761399817297233700,7.632233642578125,-0.341921329498291,1.4259573221206665,0.13832733035087585
1761399817307328000,7.642327880859375,-0.33354440331459045,1.1878230571746826,0.13852718472480774
1761399817317408500,7.652408447265625,-0.32653310894966125,1.0559074878692627,0.11721017956733704
1761399817327487700,7.66248779296875,-0.30348411202430725,0.9873600602149963,0.08118778467178345
1761399817337557800,7.672557861328125,-0.30346745252609253,0.9441931247711182,0.02617993764579296
1761399817347651000,7.682651123046875,-0.3605903387069702,0.958115816116333,-0.04952871426939964
1761399817357732600,7.692732666015625,-0.4402293264865875,0.9811314940452576,-0.14803655445575714
1761399817367803400,7.702803466796875,-0.4930388629436493,1.0064454078674316,-0.24729382991790771
1761399817377894400,7.712894287109375,-0.5226162075996399,1.0348236560821533,-0.3143424391746521
1761399817387973400,7.722973388671875,-0.5349234342575073,1.0278956890106201,-0.3262999653816223
1761399817398043600,7.733043701171875,-0.5531094670295715,0.9401462078094482,-0.2971389591693878
1761399817408128300,7.743128173828125,-0.6026381850242615,0.8607903718948364,-0.2549379765987396
1761399817418217700,7.7532177734375,-0.611115038394928,0.743446946144104,-0.21275363862514496
1761399817428299000,7.763299072265625,-0.6129302978515625,0.6329150199890137,-0.19225268065929413
1761399817438383900,7.7733837890625,-0.627852201461792,0.5383041501045227,-0.2113213986158371
1761399817448457000,7.78345703125,-0.6596611738204956,0.46837443113327026,-0.24864280223846436
1761399817458540300,7.793540283203125,-0.7142693400382996,0.4102023243904114,-0.29272568225860596
1761399817468623400,7.803623291015625,-0.7658298015594482,0.3278820812702179,-0.3428872525691986
1761399817478700300,7.8137001953125,-0.8304303288459778,0.2431803196668625,-0.3778104782104492
1761399817488772000,7.823772216796875,-0.8632718324661255,0.17206814885139465,-0.39816156029701233
1761399817498866000,7.833865966796875,-0.8754458427429199,0.13344773650169373,-0.3945809602737427
1761399817508934100,7.84393408203125,-0.8516140580177307,0.12921765446662903,-0.36020731925964355
1761399817519025700,7.854025634765625,-0.7901278734207153,0.13074980676174164,-0.2993539273738861
1761399817529108500,7.8641083984375,-0.7401994466781616,0.26146629452705383,-0.21268701553344727
1761399817539190300,7.874190185546875,-0.59787517786026,0.4408288598060608,-0.13133269548416138
1761399817549258500,7.884258544921875,-0.4368818998336792,0.5975587368011475,-0.07054594159126282
1761399817559351800,7.894351806640625,-0.32383519411087036,0.6464712619781494,-0.02806182950735092
1761399817569432800,7.904432861328125,-0.26396438479423523,0.5867670178413391,0.032958079129457474
1761399817579499000,7.9144990234375,-0.21774980425834656,0.5216003060340881,0.14851951599121094
1761399817589590500,7.924590576171875,-0.14657101035118103,0.4858277142047882,0.2663125991821289
1761399817599673300,7.93467333984375,-0.061802640557289124,0.5072279572486877,0.3328116238117218
1761399817609756200,7.944756103515625,0.005295941606163979,0.6200581789016724,0.3574427664279938
1761399817619837200,7.954837158203125,0.04131833836436272,0.7400662302970886,0.3831230700016022
1761399817639986700,7.974986572265625,-0.10075612366199493,0.7599676251411438,0.5234988331794739
1761399817650056700,7.985056640625,0.025830205529928207,0.5829199552536011,0.6185593605041504
1761399817660161500,7.99516162109375,0.3168405294418335,0.3165074586868286,0.6585786938667297
1761399817670242800,8.005242919921875,0.6110151410102844,0.13729478418827057,0.6592115163803101
1761399817680323600,8.015323486328125,0.7983881831169128,-0.04994506016373634,0.7003133296966553
1761399817690401300,8.0254013671875,0.9557009935379028,-0.24779345095157623,0.7786866426467896
1761399817700472300,8.035472412109375,1.0892319679260254,-0.2872632145881653,0.8738470673561096
1761399817710566700,8.045566650390626,1.2073081731796265,-0.14901913702487946,1.0113416910171509
1761399817720643300,8.055643310546875,1.2986215353012085,-0.029544027522206306,1.263998031616211
1761399817730728700,8.065728759765625,1.3434871435165405,0.059720903635025024,1.6839596033096313
1761399817740808700,8.07580859375,1.3626724481582642,0.258052259683609,2.2098565101623535
1761399817750877200,8.085877197265624,1.39126718044281,0.6111983060836792,2.7205653190612793
1761399817760970800,8.095970703125,1.399027943611145,1.070080041885376,3.0572738647460938
1761399817771039200,8.106039306640625,1.3676186800003052,1.520168423652649,3.153933048248291
1761399817781130200,8.116130126953125,1.291127324104309,1.8480005264282227,3.0434343814849854
1761399817791213600,8.126213623046874,1.2146525382995605,1.9344842433929443,2.78658127784729
1761399817801282300,8.1362822265625,1.1468877792358398,1.7469946146011353,2.4878268241882324
1761399817811376000,8.146376220703125,1.0535593032836914,1.4308701753616333,2.269277811050415
1761399817821445600,8.156445556640625,0.9883925914764404,1.1882727146148682,2.1840429306030273
1761399817831524600,8.166524658203125,0.9616464376449585,1.0627856254577637,2.1488866806030273
1761399817841616400,8.176616455078126,0.8985947370529175,0.9687243103981018,2.053959369659424
1761399817851699700,8.18669970703125,0.7920430302619934,0.7530562877655029,1.9043740034103394
1761399817861780200,8.1967802734375,0.7084904313087463,0.37937596440315247,1.7219305038452148
1761399817871861500,8.206861572265625,0.7156515717506409,0.014971860684454441,1.501999020576477
1761399817881942500,8.216942626953125,0.7652136087417603,-0.18437537550926208,1.3202049732208252
1761399817892011000,8.227010986328125,0.7845654487609863,-0.30488303303718567,1.1724015474319458
1761399817902105000,8.23710498046875,0.7857478857040405,-0.3738968074321747,1.0523602962493896
1761399817912171000,8.2471708984375,0.7601341605186462,-0.3802419602870941,0.9563837647438049
1761399817922266600,8.2572666015625,0.6757821440696716,-0.31409263610839844,0.8656200170516968
1761399817932339700,8.267339599609375,0.6005564332008362,-0.37149864435195923,0.7122874855995178
1761399817942416000,8.277415771484375,0.6372949481010437,-0.46885737776756287,0.5947109460830688
1761399817952509400,8.287509521484376,0.610149085521698,-0.39374828338623047,0.5754756927490234
1761399817962583300,8.297583251953125,0.4751858711242676,-0.2911435663700104,0.5980750322341919
1761399817972669400,8.30766943359375,0.3571263253688812,-0.2238118201494217,0.6079174876213074
1761399817982728200,8.317728271484375,0.3007528781890869,-0.20797395706176758,0.5803552865982056
1761399817992832800,8.327832763671875,0.31312671303749084,-0.2401992678642273,0.5021152496337891
1761399818002921700,8.337921630859375,0.3496154248714447,-0.3135763704776764,0.39101701974868774
1761399818012994800,8.347994873046876,0.35098105669021606,-0.3855212330818176,0.2872632145881653
1761399818023076400,8.358076416015624,0.31770655512809753,-0.4486228823661804,0.1857743114233017
1761399818033144600,8.36814453125,0.2650635540485382,-0.5107585787773132,0.08200382441282272
1761399818043235800,8.37823583984375,0.18270999193191528,-0.5683644413948059,-0.026746170595288277
1761399818053306600,8.388306640625,0.0913633182644844,-0.6585453748703003,-0.13434705138206482
1761399818063399700,8.398399658203125,-0.06190256401896477,-0.7727078795433044,-0.256919801235199
1761399818073466400,8.40846630859375,-0.23726817965507507,-0.9081374406814575,-0.3860708177089691
1761399818083549700,8.4185498046875,-0.3791095018386841,-0.993438720703125,-0.5168206095695496
1761399818093631500,8.428631591796876,-0.47157198190689087,-1.0413520336151123,-0.6150619983673096
1761399818103722000,8.438721923828124,-0.535173237323761,-1.0346571207046509,-0.6563470363616943
1761399818113805000,8.44880517578125,-0.5784400701522827,-1.021500587463379,-0.6504848599433899
1761399818123899000,8.45889892578125,-0.6210407614707947,-1.0239653587341309,-0.6400928497314453
1761399818133966800,8.468966796875,-0.6568966507911682,-1.0782737731933594,-0.6497354507446289
1761399818144047600,8.479047607421874,-0.6662394404411316,-1.243363857269287,-0.6842756271362305
1761399818154115800,8.48911572265625,-0.6369785666465759,-1.4946213960647583,-0.7179831266403198
1761399818164207600,8.49920751953125,-0.5448324680328369,-1.754738688468933,-0.7427808046340942
1761399818174290400,8.50929052734375,-0.4043734669685364,-1.9069886207580566,-0.7627488374710083
1761399818184364800,8.51936474609375,-0.26614606380462646,-1.9731546640396118,-0.7904609441757202
1761399818194434300,8.529434326171875,-0.20685815811157227,-1.9470412731170654,-0.7937084436416626
1761399818204531200,8.53953125,-0.21093836426734924,-1.8306971788406372,-0.7870801687240601
1761399818214613000,8.549613037109374,-0.17408326268196106,-1.5514278411865234,-0.7698767185211182
1761399818224693000,8.55969287109375,-0.020567571744322777,-1.092779278755188,-0.7128204107284546
1761399818234774500,8.5697744140625,0.1417580395936966,-0.6489527225494385,-0.5906473994255066
1761399818244857000,8.579857177734375,0.24149827659130096,-0.30381718277931213,-0.4252074956893921
1761399818254940200,8.589940185546874,0.28709667921066284,-0.12345539778470993,-0.2841988801956177
1761399818265019100,8.60001904296875,0.34859952330589294,-0.15498124063014984,-0.1808447539806366
1761399818275112400,8.610112548828125,0.44356009364128113,-0.2715086042881012,-0.1262032836675644
1761399818285179100,8.62017919921875,0.5421512126922607,-0.31722357869148254,-0.03668855130672455
1761399818295249700,8.630249755859374,0.6559640169143677,-0.23591922223567963,0.13005034625530243
1761399818305330400,8.640330322265624,0.6076343655586243,-0.1641242355108261,0.3354595899581909
1761399818315424000,8.650424072265626,0.25550422072410583,0.1766146570444107,0.4358993172645569
1761399818325481000,8.66048095703125,-0.09882427006959915,0.3462846577167511,0.2682444453239441
1761399818335574500,8.670574462890626,-0.18815581500530243,0.09164644032716751,-0.008926493115723133
1761399818345667300,8.680667236328125,-0.2060421109199524,-0.21700038015842438,-0.3377411961555481
1761399818355745500,8.69074560546875,-0.34750038385391235,-0.5331414341926575,-0.7112216353416443
1761399818365816000,8.700816162109374,-0.5942946076393127,-0.8898181319236755,-1.096493124961853
1761399818385978600,8.720978515625,-0.8227861523628235,-1.7153189182281494,-1.6273696422576904
1761399818396069600,8.731069580078126,-0.6911537051200867,-1.9918403625488281,-1.597625732421875
1761399818406140200,8.74114013671875,-0.4141826033592224,-2.1803126335144043,-1.415348768234253
1761399818416231700,8.751231689453125,-0.07056259363889694,-2.265064239501953,-1.2018957138061523
1761399818426315000,8.76131494140625,0.15721286833286285,-2.1694042682647705,-1.0856513977050781
1761399818436385300,8.77138525390625,0.1714019924402237,-1.8962968587875366,-1.1564971208572388
1761399818446476500,8.7814765625,0.06465046107769012,-1.5567570924758911,-1.3386409282684326
1761399818456557600,8.7915576171875,-0.008943147026002407,-1.3096297979354858,-1.4795829057693481
1761399818466636500,8.801636474609374,-0.03573928028345108,-1.1366289854049683,-1.4707895517349243
1761399818476717600,8.811717529296875,-0.030343415215611458,-1.0683313608169556,-1.3142929077148438
1761399818486788000,8.8217880859375,0.02438131719827652,-1.1171772480010986,-1.0994075536727905
1761399818496881400,8.83188134765625,0.07082905620336533,-1.116461157798767,-0.9065053462982178
1761399818506962000,8.8419619140625,0.0824035182595253,-1.0310932397842407,-0.7861809134483337
1761399818517031000,8.852031005859375,0.06949674338102341,-0.9020420908927917,-0.7377180457115173
1761399818527107000,8.862107177734375,0.07525899261236191,-0.7803187370300293,-0.7275591492652893
1761399818537200600,8.87220068359375,0.0760916918516159,-0.6942513585090637,-0.7255107164382935
1761399818547273700,8.882273681640624,0.0555407740175724,-0.6355629563331604,-0.711205005645752
1761399818557367000,8.892366943359375,0.03643874451518059,-0.650901198387146,-0.6764482855796814
1761399818567448300,8.9024482421875,0.029044410213828087,-0.7272760272026062,-0.6280853748321533
1761399818577528800,8.91252880859375,0.0440828874707222,-0.9055560827255249,-0.5981749296188354
1761399818587609900,8.92260986328125,0.06316825747489929,-1.147803783416748,-0.6063020825386047
1761399818597669600,8.932669677734374,0.06663227081298828,-1.3902512788772583,-0.6631251573562622
1761399818607757000,8.942757080078126,0.04538189247250557,-1.6144461631774902,-0.7566701769828796
1761399818617853400,8.952853515625,0.009409456513822079,-1.7959903478622437,-0.8539122939109802
1761399818627934200,8.962934326171874,-0.028461523354053497,-1.8965133428573608,-0.9313363432884216
1761399818638002200,8.973002197265625,-0.04902909696102142,-1.8918002843856812,-0.9668091535568237
1761399818648095700,8.983095703125,-0.045531775802373886,-1.7993544340133667,-0.9663928151130676
1761399818658164200,8.993164306640624,-0.02734571136534214,-1.6826438903808594,-0.9552679657936096
1761399818668258000,9.003258056640625,-0.027878636494278908,-1.6054863929748535,-0.9502551555633545
1761399818678336800,9.013336669921875,-0.049778521060943604,-1.5767416954040527,-0.9529697299003601
1761399818688419800,9.023419921875,-0.08018855005502701,-1.5862843990325928,-0.9560340642929077
1761399818698500900,9.0335009765625,-0.1121140867471695,-1.6089171171188354,-0.9477736949920654
1761399818708573400,9.043573486328125,-0.13458020985126495,-1.637345314025879,-0.9225929975509644
1761399818718663000,9.053662841796875,-0.13957637548446655,-1.650268793106079,-0.9018422365188599
1761399818728743400,9.063743408203125,-0.15256641805171967,-1.6343642473220825,-0.8962298631668091
1761399818738823000,9.073822998046875,-0.1608600616455078,-1.6125808954238892,-0.8998604416847229
1761399818748893200,9.08389306640625,-0.16850420832633972,-1.628901720046997,-0.9077377319335938
1761399818758967800,9.0939677734375,-0.19573333859443665,-1.6777310371398926,-0.9264400601387024
1761399818769068000,9.104068115234375,-0.24522875249385834,-1.7458621263504028,-0.974719762802124
1761399818779148000,9.11414794921875,-0.3071812689304352,-1.802751898765564,-1.056140661239624
1761399818789229600,9.1242294921875,-0.3769111633300781,-1.8322292566299438,-1.1236555576324463
1761399818799301600,9.134301513671875,-0.39622971415519714,-1.9006601572036743,-1.1136466264724731
1761399818809392000,9.14439208984375,-0.3308631181716919,-1.9911075830459595,-0.9715721607208252
1761399818819472600,9.15447265625,-0.2087567001581192,-1.9397635459899902,-0.7460116744041443
1761399818829552000,9.16455224609375,-0.08263667672872543,-1.770176887512207,-0.5319923162460327
1761399818839613200,9.17461328125,-0.0316590741276741,-1.647087812423706,-0.35033154487609863
1761399818849703700,9.18470361328125,0.020401032641530037,-1.592696189880371,-0.2146521806716919
1761399818859796500,9.19479638671875,0.08628387749195099,-1.540069818496704,-0.12057427316904068
1761399818869865200,9.204865234375,0.1434234231710434,-1.5051798820495605,-0.027195826172828674
1761399818879958300,9.214958251953124,0.19859781861305237,-1.4550849199295044,0.1315658539533615
1761399818890039000,9.2250390625,0.2955235540866852,-1.3947478532791138,0.3271992802619934
1761399818900107500,9.235107421875,0.42830511927604675,-1.3854050636291504,0.5203346014022827
1761399818910200600,9.24520068359375,0.5612698793411255,-1.4536360502243042,0.7198817133903503
1761399818920282000,9.2552822265625,0.6580290794372559,-1.5932457447052002,0.9551181197166443
1761399818930348000,9.26534814453125,0.7228127717971802,-1.7645145654678345,1.1904044151306152
1761399818940444000,9.27544384765625,0.7029613256454468,-1.9231595993041992,1.3477505445480347
1761399818950524700,9.285524658203125,0.6389437317848206,-2.120358467102051,1.4358830451965332
1761399818970675700,9.30567578125,0.6049197912216187,-2.663658857345581,1.6353634595870972
1761399818980768000,9.31576806640625,0.6541486978530884,-2.8417389392852783,1.7963567972183228
1761399818990844200,9.32584423828125,0.7825836539268494,-2.849649667739868,1.9856617450714111
1761399819000925200,9.33592529296875,0.9963032007217407,-2.7361865043640137,2.090381383895874
1761399819011010800,9.3460107421875,1.2240453958511353,-2.5270302295684814,1.9850622415542603
1761399819021078800,9.356078857421876,1.4307702779769897,-2.2660467624664307,1.694135069847107
1761399819031172900,9.3661728515625,1.546048641204834,-2.013740301132202,1.32766592502594
1761399819041241300,9.376241455078125,1.595494031906128,-1.8576598167419434,0.975335955619812
1761399819051334400,9.38633447265625,1.65733003616333,-1.7167178392410278,0.675265908241272
1761399819061413000,9.3964130859375,1.742531418800354,-1.5396867990493774,0.45510125160217285
1761399819081577500,9.416577392578125,1.7828338146209717,-1.2659132480621338,0.07492591440677643
1761399819091654400,9.426654296875,1.725860834121704,-1.1171272993087769,-0.2193152755498886
1761399819101739300,9.4367392578125,1.7121379375457764,-1.1035044193267822,-0.6019054055213928
1761399819111817500,9.4468173828125,1.7094566822052002,-1.1532995700836182,-0.9510878324508667
1761399819121899300,9.456899169921876,1.6798959970474243,-1.4109854698181152,-1.245545506477356
1761399819131980800,9.466980712890624,1.6218571662902832,-1.8312467336654663,-1.4570667743682861
1761399819142063000,9.47706298828125,1.544100046157837,-2.242831230163574,-1.5842193365097046
1761399819152144600,9.48714453125,1.4563007354736328,-2.5224170684814453,-1.6391772031784058
1761399819162196000,9.497196044921875,1.4131004810333252,-2.6623265743255615,-1.6541990041732788
1761399819172306200,9.50730615234375,1.4117847681045532,-2.664508104324341,-1.672401785850525
1761399819182386400,9.517386474609374,1.4175803661346436,-2.58363676071167,-1.7167178392410278
1761399819192464100,9.527464111328126,1.4336847066879272,-2.483880043029785,-1.7740072011947632
1761399819202538200,9.537538330078124,1.4696072340011597,-2.3884031772613525,-1.8237857818603516
1761399819212629800,9.547629638671875,1.5264636278152466,-2.334794282913208,-1.8724651336669922
1761399819222710800,9.557710693359375,1.6328320503234863,-2.4638285636901855,-1.9326356649398804
1761399819232786200,9.5677861328125,1.7708096504211426,-2.6939857006073,-2.003814458847046
1761399819242873000,9.577873046875,1.8620730638504028,-2.8846561908721924,-2.040220022201538
1761399819252948500,9.587948486328125,1.9108524322509766,-3.0010669231414795,-2.039870262145996
1761399819263035100,9.59803515625,1.9183965921401978,-2.9775848388671875,-2.0257809162139893
1761399819273115400,9.608115478515625,1.8837730884552002,-2.8292152881622314,-2.0140233039855957
1761399819283184000,9.61818408203125,1.8375252485275269,-2.643873929977417,-2.0184199810028076
1761399819293270000,9.62827001953125,1.77873694896698,-2.5499625205993652,-2.0379717350006104
1761399819303346200,9.63834619140625,1.719199299812317,-2.511908531188965,-2.0432841777801514
1761399819313427200,9.64842724609375,1.6436405181884766,-2.4949381351470947,-2.0228497982025146
1761399819323518700,9.658518798828124,1.626853346824646,-2.5237326622009277,-2.006129264831543
1761399819333601300,9.668601318359375,1.5598547458648682,-2.50541353225708,-1.9613304138183594
1761399819343682800,9.678682861328125,1.4740371704101562,-2.4868276119232178,-1.8894520998001099
1761399819353761800,9.68876171875,1.415615200996399,-2.5113422870635986,-1.8280824422836304
1761399819363833900,9.698833740234376,1.3432539701461792,-2.5118417739868164,-1.7657135725021362
1761399819373925400,9.70892529296875,1.2594515085220337,-2.4721057415008545,-1.6766818761825562
1761399819384004600,9.719004638671874,1.1614433526992798,-2.4532201290130615,-1.5926462411880493
1761399819394087700,9.729087646484375,1.0414519309997559,-2.3613405227661133,-1.5011496543884277
1761399819404168200,9.739168212890625,0.926007091999054,-2.236253023147583,-1.4056562185287476
1761399819414249500,9.74924951171875,0.8243682980537415,-2.0991082191467285,-1.3148757219314575
1761399819424319500,9.759319580078126,0.7184327840805054,-1.9136168956756592,-1.2598679065704346
1761399819434411300,9.769411376953125,0.6026215553283691,-1.699697494506836,-1.2390505075454712
1761399819444489000,9.779489013671874,0.47640159726142883,-1.4837963581085205,-1.2185496091842651
1761399819454571000,9.789571044921875,0.3414216935634613,-1.283416509628296,-1.1843924522399902
1761399819464640300,9.79964013671875,0.2046598345041275,-1.089681625366211,-1.1568301916122437
1761399819474735400,9.8097353515625,0.0824701339006424,-0.9101026058197021,-1.1616098880767822
1761399819484816400,9.81981640625,-0.01715352199971676,-0.750108540058136,-1.2017124891281128
1761399819494873000,9.829873046875,-0.10403694212436676,-0.6175767779350281,-1.2613667249679565
1761399819504969500,9.839969482421875,-0.18662366271018982,-0.5073778629302979,-1.3258672952651978
1761399819515033300,9.850033447265625,-0.26536330580711365,-0.429520845413208,-1.3849719762802124
1761399819525108000,9.86010791015625,-0.3394565284252167,-0.3780769407749176,-1.4271230697631836
1761399819535201300,9.870201171875,-0.40630531311035156,-0.37719428539276123,-1.4626291990280151
1761399819545276200,9.880276123046874,-0.46640926599502563,-0.38310644030570984,-1.4739038944244385
1761399819555351600,9.8903515625,-0.504230260848999,-0.4056225121021271,-1.4408957958221436
1761399819565434000,9.90043408203125,-0.5140393972396851,-0.441395103931427,-1.3386242389678955
1761399819575525000,9.910525146484375,-0.4845620095729828,-0.5027980208396912,-1.1697869300842285
1761399819585609200,9.920609130859376,-0.4117344915866852,-0.5758754014968872,-0.9637947678565979
1761399819595690200,9.930690185546876,-0.3253340423107147,-0.6096661686897278,-0.7560873031616211
1761399819605764900,9.940764892578125,-0.28125113248825073,-0.5756755471229553,-0.5814544558525085
1761399819615881000,9.950880859375,-0.2990708351135254,-0.4945543706417084,-0.48544466495513916
1761399819625949400,9.960949462890625,-0.35034820437431335,-0.40372395515441895,-0.47287097573280334
1761399819636015900,9.971015869140626,-0.4343171715736389,-0.30043643712997437,-0.523298978805542
1761399819646109400,9.981109375,-0.5964096188545227,-0.13293147087097168,-0.68753981590271
1761399819656192000,9.99119189453125,-0.9397298693656921,0.09147989749908447,-0.9261569380760193
1761399819666260700,10.0012607421875,-1.2860311269760132,0.18775612115859985,-1.1004400253295898
1761399819676334000,10.011333984375,-1.2279590368270874,-0.12265601009130478,-1.1279523372650146
1761399819686435300,10.021435302734375,-0.7408655881881714,-0.7740069031715393,-0.8023518323898315
1761399819696514600,10.0315146484375,-0.17058594524860382,-1.3187228441238403,-0.23140600323677063
1761399819706586000,10.041586181640625,0.26974329352378845,-1.4870771169662476,0.18290983140468597
1761399819716657200,10.0516572265625,0.48166424036026,-1.4175137281417847,0.1791127473115921
1761399819726759200,10.06175927734375,0.36715197563171387,-1.298987865447998,-0.15336580574512482
1761399819736827600,10.07182763671875,0.025696974247694016,-1.2281088829040527,-0.5358560681343079
1761399819746907600,10.08190771484375,-0.3750126361846924,-1.1962499618530273,-0.7961398959159851
1761399819757000000,10.092,-0.6907040476799011,-1.1513843536376953,-0.8901345729827881
1761399819767083500,10.10208349609375,-0.9029580950737,-1.2143861055374146,-0.7784035205841064
1761399819777151700,10.11215185546875,-1.003947377204895,-1.4289216995239258,-0.5284283757209778
1761399819787244500,10.12224462890625,-0.9922562837600708,-1.5965932607650757,-0.32285261154174805
1761399819797292800,10.132292724609375,-0.8904842734336853,-1.600989818572998,-0.25710299611091614
1761399819807381500,10.142381591796875,-0.6359460353851318,-1.3683514595031738,-0.3471839427947998
1761399819817488100,10.152488037109375,-0.2730574309825897,-0.975469172000885,-0.5457651019096375
1761399819827566800,10.16256689453125,-0.003680513007566333,-0.7116712927818298,-0.7476270794868469
1761399819837650400,10.172650390625,-0.007410987745970488,-0.6522168517112732,-0.8649371862411499
1761399819847718100,10.18271826171875,-0.16269199550151825,-0.6259536743164062,-0.8830066919326782
1761399819857810700,10.192810791015624,-0.3238684833049774,-0.6823937296867371,-0.8211374282836914
1761399819867893200,10.202893310546875,-0.4255572259426117,-0.8216537237167358,-0.73398756980896
1761399819877971500,10.212971435546875,-0.44752374291419983,-0.9823805093765259,-0.6904376149177551
1761399819888052700,10.223052734375,-0.4159312844276428,-1.1531996726989746,-0.7272427082061768
1761399819898135800,10.2331357421875,-0.38540467619895935,-1.328648567199707,-0.8239685893058777
1761399819908216300,10.24321630859375,-0.37985891103744507,-1.4454922676086426,-0.9217603206634521
1761399819918297300,10.25329736328125,-0.4037072956562042,-1.5042805671691895,-0.9874433279037476
1761399819938470700,10.273470703125,-0.47731757164001465,-1.4127341508865356,-1.0858678817749023
1761399819948540400,10.28354052734375,-0.49688589572906494,-1.2906609773635864,-1.1127972602844238
1761399819958619400,10.293619384765625,-0.583885908126831,-1.121124267578125,-1.1042537689208984
1761399819968702200,10.3037021484375,-0.7017122507095337,-1.0518772602081299,-1.0593382120132446
1761399819978783200,10.313783203125,-0.6874565482139587,-1.0980418920516968,-1.0059458017349243
1761399819988864000,10.323864013671875,-0.5568399429321289,-1.126936435699463,-0.9693571925163269
1761399819998933000,10.33393310546875,-0.47302085161209106,-1.1148957014083862,-0.9415284991264343
1761399820009026000,10.344026123046875,-0.5075610280036926,-1.065050482749939,-0.9099193811416626
1761399820019092500,10.354092529296874,-0.5844521522521973,-0.9786000847816467,-0.8907008171081543
1761399820029187600,10.3641875,-0.6438565850257874,-0.862755537033081,-0.8971291780471802
1761399820039269000,10.37426904296875,-0.6813112497329712,-0.7334379553794861,-0.9093031883239746
1761399820049342500,10.384342529296875,-0.7090399861335754,-0.6345803737640381,-0.925524115562439
1761399820059419100,10.394419189453124,-0.7385673522949219,-0.5711956024169922,-0.9286883473396301
1761399820069512000,10.404511962890625,-0.7741900682449341,-0.5216336250305176,-0.921960175037384
1761399820079588600,10.414588623046875,-0.8015191555023193,-0.5000001788139343,-0.8999936580657959
1761399820089672400,10.42467236328125,-0.8290480375289917,-0.5036807060241699,-0.8685011267662048
1761399820099754200,10.434754150390624,-0.8327785134315491,-0.5191022157669067,-0.8374083042144775
1761399820109835800,10.444835693359375,-0.8328951001167297,-0.4986678659915924,-0.8291812539100647
1761399820119897300,10.4548974609375,-0.9154318571090698,-0.4112015664577484,-0.8494324088096619
1761399820129997300,10.464997314453125,-0.9163311719894409,-0.40149232745170593,-0.8791596293449402
1761399820140078300,10.475078369140626,-0.8564437031745911,-0.4433436095714569,-0.8760120272636414
1761399820150152700,10.485152587890624,-0.7161345481872559,-0.5118244290351868,-0.821237325668335
1761399820160227800,10.495227783203125,-0.5662660598754883,-0.5379544496536255,-0.7191988825798035
1761399820170321200,10.505321044921875,-0.46031391620635986,-0.48266348242759705,-0.5821039080619812
1761399820180398800,10.51539892578125,-0.4183294475078583,-0.37291422486305237,-0.41857925057411194
1761399820190483200,10.525483154296875,-0.5204678177833557,-0.14019256830215454,-0.26045042276382446
1761399820200564000,10.53556396484375,-0.45698314905166626,-0.03094295598566532,-0.13074980676174164
1761399820210641700,10.5456416015625,-0.3158912658691406,-0.15020157396793365,-0.030126914381980896
1761399820220717600,10.555717529296874,-0.28501492738723755,-0.2488759607076645,0.06450057029724121
1761399820230794800,10.565794677734376,-0.24764356017112732,-0.34736713767051697,0.16269199550151825
1761399820240888300,10.575888427734375,-0.14124177396297455,-0.43879708647727966,0.2493589222431183
1761399820250969600,10.585969482421875,0.00464643957093358,-0.5643508434295654,0.322602778673172
1761399820261049900,10.5960498046875,0.14154154062271118,-0.7448458671569824,0.3758453130722046
1761399820271130600,10.606130615234376,0.27364030480384827,-0.9825970530509949,0.4126338064670563
1761399820281199900,10.616199951171875,0.4285382926464081,-1.228691816329956,0.4656931459903717
1761399820291292700,10.626292724609375,0.5928789973258972,-1.4858614206314087,0.5560572147369385
1761399820301361700,10.636361572265624,0.7520070672035217,-1.7163348197937012,0.6264366507530212
1761399820311443000,10.64644287109375,0.8622559309005737,-1.8360264301300049,0.7111716866493225
1761399820321536000,10.656535888671876,0.9319525361061096,-1.8957140445709229,0.8739136457443237
1761399820331617300,10.6666171875,0.9503217935562134,-1.8868041038513184,1.1673554182052612
1761399820341685200,10.676685302734375,0.9516041278839111,-1.7958904504776,1.5309102535247803
1761399820351778800,10.68677880859375,0.991323709487915,-1.6083508729934692,1.872864842414856
1761399820361859600,10.696859619140625,1.1029548645019531,-1.3594915866851807,2.0934457778930664
1761399820371941000,10.706941162109375,1.2689110040664673,-1.1296676397323608,2.132232666015625
1761399820382008800,10.7170087890625,1.3993443250656128,-0.9366322755813599,2.0270133018493652
1761399820392089600,10.727089599609375,1.4414454698562622,-0.7836661338806152,1.8734476566314697
1761399820402168300,10.737168212890625,1.411285161972046,-0.6303003430366516,1.7454124689102173
1761399820412255000,10.7472548828125,1.345169186592102,-0.4868102967739105,1.6342476606369019
1761399820422345700,10.757345703125,1.2855814695358276,-0.3602406084537506,1.5369389057159424
1761399820432413700,10.76741357421875,1.2620662450790405,-0.2835993468761444,1.4592983722686768
1761399820442497000,10.7774970703125,1.281234860420227,-0.2837825417518616,1.405539631843567
1761399820452588300,10.78758837890625,1.2787867784500122,-0.3219199776649475,1.3169407844543457
1761399820462669300,10.79766943359375,1.241382122039795,-0.36726856231689453,1.1654735803604126
1761399820472739600,10.807739501953124,1.2086071968078613,-0.3789096474647522,1.006079077720642
1761399820482831000,10.8178310546875,1.1835596561431885,-0.4801154136657715,0.8563271164894104
1761399820492920600,10.827920654296875,1.1586620807647705,-0.6537823677062988,0.7305235266685486
1761399820502981000,10.837981201171875,1.1626923084259033,-0.8745964765548706,0.6015557050704956
1761399820513061400,10.848061279296875,1.1833598613739014,-1.1061524152755737,0.4768679141998291
1761399820523155200,10.8581552734375,1.197332501411438,-1.3053663969039917,0.34824979305267334
1761399820533234200,10.868234130859374,1.1885225772857666,-1.465626835823059,0.1918196827173233
1761399820543300400,10.87830029296875,1.1071349382400513,-1.5311599969863892,0.035339586436748505
1761399820553388500,10.888388427734375,1.027679204940796,-1.5924797058105469,-0.11895884573459625
1761399820563466200,10.89846630859375,0.9865939617156982,-1.54111909866333,-0.24974195659160614
1761399820573559600,10.9085595703125,0.9965030550956726,-1.4396800994873047,-0.39872777462005615
1761399820583628500,10.918628662109375,1.0482966899871826,-1.3650705814361572,-0.539286732673645
1761399820593702000,10.928701904296876,1.0551913976669312,-1.2456954717636108,-0.6232224106788635
1761399820603801000,10.938801025390624,1.034690499305725,-1.1828103065490723,-0.6550480127334595
1761399820613884400,10.948884521484375,0.9784502387046814,-1.1699202060699463,-0.661193311214447
1761399820623965000,10.95896484375,0.8734306693077087,-1.1692873239517212,-0.6624923348426819
1761399820634046000,10.9690458984375,0.7986379861831665,-1.1848753690719604,-0.6793460845947266
1761399820644127000,10.979126953125,0.7683278918266296,-1.198848009109497,-0.7095562815666199
1761399820654194700,10.989194580078125,0.7129369974136353,-1.1150788068771362,-0.7205145359039307
1761399820664275500,10.999275390625,0.6068516373634338,-0.9093198776245117,-0.682876706123352
1761399820674369300,11.009369384765625,0.4852115213871002,-0.6743832230567932,-0.6422411799430847
1761399820684412700,11.01941259765625,0.3541286289691925,-0.43101972341537476,-0.6295176148414612
1761399820694529800,11.02952978515625,0.22186331450939178,-0.21023888885974884,-0.631965696811676
1761399820704611000,11.039611083984376,0.08723315596580505,-0.06365122646093369,-0.6233389973640442
1761399820714691000,11.049691162109376,-0.06103656068444252,0.040185872465372086,-0.5876163840293884
1761399820724760000,11.059760009765625,-0.2123039811849594,0.0785897746682167,-0.5429339408874512
1761399820734853000,11.06985302734375,-0.3544616997241974,0.05059456452727318,-0.5062453746795654
1761399820744936000,11.07993603515625,-0.4595811665058136,-0.08475172519683838,-0.4618794023990631
1761399820755010800,11.0900107421875,-0.4869435131549835,-0.31082847714424133,-0.39554688334465027
1761399820765098500,11.100098388671874,-0.43475019931793213,-0.5425009727478027,-0.3737136125564575
1761399820775179000,11.110178955078124,-0.3238684833049774,-0.7450957298278809,-0.3975953161716461
1761399820785258500,11.120258544921874,-0.1739000678062439,-0.901509165763855,-0.39866116642951965
1761399820795328300,11.130328369140624,0.002314892830327153,-0.883406400680542,-0.3347601294517517
1761399820805422600,11.140422607421876,0.19435106217861176,-0.6899046897888184,-0.2814343273639679
1761399820815490800,11.15049072265625,0.3623223602771759,-0.38976797461509705,-0.321986585855484
1761399820825571800,11.16057177734375,0.4775673747062683,-0.133297860622406,-0.437931090593338
1761399820835665400,11.17066552734375,0.5197517275810242,0.014622128568589687,-0.5742932558059692
1761399820845744000,11.180744140625,0.519951581954956,0.0350564680993557,-0.6762151718139648
1761399820855826400,11.190826416015625,0.4688906967639923,-0.028711332008242607,-0.6837260723114014
1761399820865908000,11.200907958984375,0.2928922176361084,-0.13396401703357697,-0.641991376876831
1761399820875976000,11.210975830078125,-0.03274157643318176,-0.2727409899234772,-0.6686542630195618
1761399820886070000,11.221070068359374,-0.37817686796188354,-0.3668855130672455,-0.6304335594177246
1761399820896138000,11.231137939453125,-0.579289436340332,-0.43433383107185364,-0.4280053675174713
1761399820906231800,11.241231689453125,-0.4578991234302521,-0.5241483449935913,-0.10601875931024551
1761399820916310300,11.251310302734375,-0.07149521261453629,-0.6648072004318237,0.2300736904144287
1761399820926392600,11.261392578125,0.39533039927482605,-0.7538723349571228,0.47869983315467834
1761399820936475000,11.271474853515626,0.6609101891517639,-0.4640777111053467,0.4784500300884247
1761399820946555400,11.281555419921874,0.5111083388328552,0.12520405650138855,0.10988246649503708
1761399820956636700,11.29163671875,0.027778713032603264,0.4246579110622406,-0.28439873456954956
1761399820966704600,11.30170458984375,-0.5591381788253784,0.4766514003276825,-0.4914567172527313
1761399820976796400,11.31179638671875,-1.1252044439315796,0.4613964259624481,-0.5738769173622131
1761399820986866400,11.321866455078125,-1.5398533344268799,0.21130473911762238,-0.6627088189125061
1761399820996935200,11.33193505859375,-1.7133203744888306,-0.38139107823371887,-0.8686676621437073
1761399821007041300,11.342041259765624,-1.6137633323669434,-1.1453889608383179,-1.1442898511886597
1761399821017122000,11.3521220703125,-1.3335946798324585,-1.6900049448013306,-1.2519240379333496
1761399821027203300,11.362203369140625,-0.835726261138916,-1.6815115213394165,-1.0440000295639038
1761399821037272800,11.37227294921875,-0.20765754580497742,-1.1925195455551147,-0.7411820292472839
1761399821047365600,11.38236572265625,-0.08939816057682037,-0.6569132804870605,-0.5039305090904236
1761399821057433900,11.392433837890625,-0.2461780160665512,-0.33505991101264954,-0.5981083512306213
1761399821067524000,11.402524169921875,-0.33672529458999634,-0.1830763816833496,-0.9087536334991455
1761399821077608200,11.412608154296874,-0.3895348310470581,-0.14938552677631378,-1.1155951023101807
1761399821087689000,11.42268896484375,-0.44898927211761475,-0.2410319596529007,-1.1436736583709717
1761399821097770200,11.432770263671875,-0.4912235736846924,-0.3589749038219452,-1.0800223350524902
1761399821107838500,11.44283837890625,-0.48667705059051514,-0.3793259859085083,-0.9981850981712341
1761399821117932300,11.452932373046876,-0.49655282497406006,-0.3210040032863617,-0.9283552765846252
1761399821128012500,11.463012451171876,-0.5063619613647461,-0.21936523914337158,-0.8936318755149841
1761399821138102800,11.473102783203124,-0.5305600762367249,-0.11800956726074219,-0.8816077709197998
1761399821148175000,11.483175048828125,-0.5593380331993103,-0.056923046708106995,-0.8769946098327637
1761399821158255900,11.493255859375,-0.5881659388542175,-0.058255359530448914,-0.8751793503761292
1761399821168335400,11.50333544921875,-0.6044535040855408,-0.11349636316299438,-0.8776774406433105
1761399821178412300,11.513412353515625,-0.6106653809547424,-0.1864071637392044,-0.8664860129356384
1761399821188498400,11.52349853515625,-0.6084837317466736,-0.23934991657733917,-0.8191556334495544
1761399821198570500,11.533570556640624,-0.6016056537628174,-0.2615662217140198,-0.7451456785202026
1761399821208656000,11.54365576171875,-0.600206732749939,-0.2640143632888794,-0.6751992702484131
1761399821218741800,11.55374169921875,-0.5974754691123962,-0.2832662761211395,-0.6284184455871582
1761399821228822300,11.563822265625,-0.6219400763511658,-0.2822170853614807,-0.6198083758354187
1761399821238891000,11.57389111328125,-0.6724680066108704,-0.2416648119688034,-0.6328150629997253
1761399821248978200,11.583978271484375,-0.7517572641372681,-0.1605103313922882,-0.6662394404411316
1761399821259054600,11.5940546875,-0.8019354939460754,-0.0910802036523819,-0.7217968702316284
1761399821269147000,11.60414697265625,-0.8291479349136353,-0.10138897597789764,-0.7804685831069946
1761399821279227400,11.614227294921875,-0.8503150939941406,-0.20249482989311218,-0.8481167554855347
1761399821289308400,11.624308349609375,-0.8712490200996399,-0.34790006279945374,-0.9423112273216248
1761399821299382500,11.634382568359374,-0.8822072744369507,-0.500116765499115,-1.0553913116455078
1761399821309470700,11.644470703125,-0.8851383924484253,-0.6023883819580078,-1.1731677055358887
1761399821319526400,11.6545263671875,-0.8928990960121155,-0.6114147901535034,-1.2667126655578613
1761399821329630200,11.664630126953124,-0.9232758283615112,-0.5319923162460327,-1.3089802265167236
1761399821339693600,11.674693603515625,-0.9996506571769714,-0.38512155413627625,-1.296673059463501
1761399821349793800,11.684793701171875,-0.9918399453163147,-0.3138428330421448,-1.1987980604171753
1761399821359860700,11.69486083984375,-0.9369486570358276,-0.3174733817577362,-1.0240153074264526
1761399821369955800,11.704955810546876,-0.8290813565254211,-0.4009261131286621,-0.8016523718833923
1761399821380037400,11.715037353515624,-0.6327484846115112,-0.5592880845069885,-0.55450838804245
1761399821390118000,11.725117919921875,-0.4095361828804016,-0.7380011677742004,-0.31382617354393005
1761399821400200200,11.7352001953125,-0.3264331817626953,-0.8141261339187622,-0.11089835315942764
1761399821410267100,11.74526708984375,-0.2845153212547302,-0.7904775738716125,0.01845252700150013
1761399821420361200,11.755361328125,-0.22163017094135284,-0.6607270240783691,0.09212940186262131
1761399821430427400,11.765427490234375,-0.1473204493522644,-0.4776173233985901,0.1693202555179596
1761399821440523000,11.77552294921875,-0.0680311992764473,-0.35242992639541626,0.28543126583099365
1761399821450575400,11.785575439453124,0.029627297073602676,-0.40748775005340576,0.44099539518356323
1761399821460684300,11.795684326171875,0.16332484781742096,-0.651733934879303,0.6162278056144714
1761399821470765600,11.805765625,0.2604837119579315,-0.9487562775611877,0.7489427328109741
1761399821480846600,11.8158466796875,0.47135546803474426,-1.1959002017974854,0.816024661064148
1761399821490933800,11.825933837890625,0.6571797132492065,-1.3781938552856445,0.8753625750541687
1761399821500996400,11.835996337890625,0.8455520272254944,-1.5634186267852783,0.928754985332489
1761399821511089400,11.84608935546875,1.0082273483276367,-1.6020057201385498,0.9586154222488403
1761399821521170000,11.856169921875,1.1056526899337769,-1.5458654165267944,1.0451990365982056
1761399821531251200,11.866251220703125,1.1518007516860962,-1.5385043621063232,1.2899448871612549
1761399821541332000,11.87633203125,1.142924189567566,-1.5079777240753174,1.7251780033111572
1761399821551413500,11.88641357421875,1.127485990524292,-1.3633053302764893,2.2220473289489746
1761399821561478100,11.89647802734375,1.171535611152649,-1.0105255842208862,2.647021532058716
1761399821571578000,11.906578125,1.316707730293274,-0.5280453562736511,2.832512855529785
1761399821581656300,11.91665625,1.4710726737976074,-0.15907810628414154,2.6554651260375977
1761399821591712300,11.926712158203125,1.5270798206329346,0.007927258498966694,2.1778311729431152
1761399821601818400,11.936818359375,1.4413788318634033,-0.0943443700671196,1.621640682220459
1761399821611899100,11.946899169921876,1.31407630443573,-0.32953080534935,1.189988136291504
1761399821621970000,11.956969970703126,1.3037009239196777,-0.42197662591934204,0.961329996585846
1761399821632055300,11.96705517578125,1.4294545650482178,-0.348982572555542,0.9019588232040405
1761399821642129200,11.977129150390626,1.569563865661621,-0.2360357940196991,0.8894850611686707
1761399821652223000,11.987222900390625,1.6383112668991089,-0.10909973084926605,0.80278480052948
1761399821662311000,11.997310791015625,1.6798959970474243,-0.16059359908103943,0.6371784210205078
1761399821672384800,12.007384765625,1.70377779006958,-0.4337509572505951,0.38768625259399414
1761399821682464000,12.017464111328126,1.7025120258331299,-0.8630719780921936,0.08218701928853989
1761399821692547000,12.027547119140625,1.6393604278564453,-1.3011696338653564,-0.1669720560312271
1761399821702606600,12.037606689453124,1.4531364440917969,-1.4600145816802979,-0.28363266587257385
1761399821712708600,12.04770849609375,1.2965397834777832,-1.5641347169876099,-0.3981948494911194
1761399821722790000,12.057789794921876,1.260384202003479,-1.8317962884902954,-0.5461648106575012
1761399821732858600,12.067858642578125,1.322186827659607,-2.0950613021850586,-0.6186758875846863
1761399821742952000,12.077951904296874,1.3925162553787231,-2.2091238498687744,-0.6139461994171143
1761399821753030700,12.08803076171875,1.4015759229660034,-2.1065523624420166,-0.5489793419837952
1761399821763113500,12.098113525390625,1.366702675819397,-1.963295578956604,-0.48322969675064087
1761399821773184300,12.108184326171875,1.3273495435714722,-1.8337947130203247,-0.4397130608558655
1761399821783275500,12.118275634765626,1.305166482925415,-1.745795488357544,-0.40850362181663513
1761399821793344000,12.128343994140625,1.2934255599975586,-1.7110055685043335,-0.39178311824798584
1761399821803424500,12.138424560546875,1.313476800918579,-1.7404829263687134,-0.3882025182247162
1761399821813507300,12.14850732421875,1.2851485013961792,-1.7632488012313843,-0.41268375515937805
1761399821823598800,12.158598876953125,1.1773310899734497,-1.766096591949463,-0.4644274413585663
1761399821833670100,12.168670166015625,1.0909473896026611,-1.7176004648208618,-0.5240484476089478
1761399821843761400,12.178761474609376,0.9933388233184814,-1.5448328256607056,-0.5819540619850159
1761399821853839600,12.188839599609375,0.8519971370697021,-1.249525785446167,-0.6053361296653748
1761399821863923000,12.1989228515625,0.6863240599632263,-0.9336512088775635,-0.5933619737625122
1761399821874004200,12.209004150390625,0.5159212946891785,-0.6173769235610962,-0.5674651265144348
1761399821884083200,12.219083251953125,0.33096304535865784,-0.3355928361415863,-0.5418514609336853
1761399821894156000,12.229156005859375,0.1436399221420288,-0.11028216034173965,-0.5399695634841919
1761399821914327800,12.249327880859376,-0.23178905248641968,0.20807388424873352,-0.6440231800079346
1761399821924409000,12.2594091796875,-0.43731489777565,0.29662269353866577,-0.7558707594871521
1761399821934476800,12.269476806640625,-0.6491025686264038,0.34846630692481995,-0.8946477770805359
1761399821944566800,12.27956689453125,-0.8512976765632629,0.3105286955833435,-0.9845954775810242
1761399821954639400,12.289639404296874,-1.0292946100234985,0.1893882006406784,-0.97272127866745
1761399821964733000,12.29973291015625,-1.1058526039123535,-0.04591481387615204,-0.8798590898513794
1761399821974813400,12.3098134765625,-1.044832706451416,-0.3001200258731842,-0.7631485462188721
1761399821984895000,12.31989501953125,-0.8511311411857605,-0.5093596577644348,-0.6678382158279419
1761399821994961000,12.3299609375,-0.539286732673645,-0.5842689275741577,-0.5801887512207031
1761399822005043700,12.340043701171876,-0.1880725473165512,-0.4332679808139801,-0.4983847439289093
1761399822015137000,12.350136962890625,0.11366289854049683,-0.16943682730197906,-0.4280719757080078
1761399822025218000,12.360218017578125,0.3501650094985962,-0.007810681592673063,-0.37832674384117126
1761399822035282200,12.3702822265625,0.45363572239875793,0.11098162084817886,-0.3254672586917877
1761399822045380600,12.380380615234374,0.4485562741756439,0.11181432008743286,-0.30896323919296265
1761399822055461600,12.390461669921875,0.3694169223308563,0.051160797476768494,-0.3237352669239044
1761399822065552100,12.40055224609375,0.21421918272972107,0.0789395123720169,-0.3187390863895416
1761399822075621400,12.410621337890625,-0.05424176901578903,0.09980685263872147,-0.3984946310520172
1761399822085692000,12.42069189453125,-0.45157063007354736,0.014105857349932194,-0.5668822526931763
1761399822095773000,12.43077294921875,-0.914266049861908,0.003963629249483347,-0.7261935472488403
1761399822105866200,12.4408662109375,-1.1458885669708252,0.17544889450073242,-0.836475670337677
1761399822115947000,12.450947021484374,-0.9649772047996521,0.22725918889045715,-0.7877130508422852
1761399822126026200,12.461026123046874,-0.41872912645339966,-0.009942381642758846,-0.6198750138282776
1761399822136096300,12.47109619140625,0.23009034991264343,-0.4981682598590851,-0.3360758125782013
1761399822146190000,12.481190185546875,0.5901477932929993,-0.8691340088844299,0.014322358183562756
1761399822156271000,12.49127099609375,0.4572995603084564,-0.6820273399353027,0.14427277445793152
1761399822166339000,12.501339111328125,-0.037254784256219864,-0.3042834997177124,0.02959398925304413
1761399822176433400,12.511433349609375,-0.6757655143737793,0.10383709520101547,-0.24914242327213287
1761399822186501400,12.52150146484375,-1.2148023843765259,0.29375821352005005,-0.5797557234764099
1761399822196575500,12.531575439453125,-1.5575730800628662,0.048945825546979904,-0.8293144702911377
1761399822206663000,12.541662841796875,-1.6975492238998413,-0.46975669264793396,-0.9726879596710205
1761399822216756500,12.551756591796876,-1.5916969776153564,-0.7386339902877808,-0.9679083228111267
1761399822226830300,12.561830322265624,-1.1991311311721802,-0.6452721953392029,-0.8929324150085449
1761399822236918500,12.57191845703125,-0.5409354567527771,-0.4983014762401581,-0.8798757791519165
1761399822246978000,12.58197802734375,-0.09770845621824265,-0.3589249551296234,-0.8979119062423706
1761399822257078500,12.59207861328125,-0.17381680011749268,-0.18970462679862976,-0.9098694324493408
1761399822267136500,12.602136474609376,-0.3671186864376068,-0.0012323890114203095,-0.9889255166053772
1761399822277235500,12.6122353515625,-0.47392016649246216,0.122739277780056,-1.0316427946090698
1761399822287313000,12.62231298828125,-0.5627853870391846,0.11984150111675262,-0.9762352705001831
1761399822297394400,12.63239453125,-0.6577959060668945,0.06238552927970886,-0.8911837339401245
1761399822307473200,12.64247314453125,-0.6634749174118042,-0.04454919695854187,-0.8366255760192871
1761399822317546000,12.6525458984375,-0.6205411553382874,-0.16975325345993042,-0.8165909051895142
1761399822327647200,12.662647216796875,-0.6150120496749878,-0.26952680945396423,-0.7823671698570251
1761399822337728500,12.672728515625,-0.6469875574111938,-0.3466843366622925,-0.709972620010376
1761399822347809000,12.68280908203125,-0.6656732559204102,-0.3913334608078003,-0.6362624168395996
1761399822357877800,12.692877685546875,-0.6733173727989197,-0.41489872336387634,-0.6074178814888
1761399822367968500,12.702968505859374,-0.6828933954238892,-0.4117511510848999,-0.6186925768852234
1761399822378052400,12.71305224609375,-0.6660895943641663,-0.3918830454349518,-0.6697700619697571
1761399822388123400,12.723123291015625,-0.6719517707824707,-0.3578757643699646,-0.7293910980224609
1761399822398214100,12.733214111328126,-0.6903876066207886,-0.3204710781574249,-0.7800356149673462
