time,seconds_elapsed,z,y,x
1761399809756653800,0.09165380859375,-0.06786065548658371,-9.4822359085083,-2.0988171100616455
1761399809766735000,0.101735107421875,-0.07414543628692627,-9.447295188903809,-2.0620810985565186
1761399809776828700,0.11182861328125,-0.027907414361834526,-9.471013069152832,-2.0259435176849365
1761399809786913800,0.121913818359375,-0.035987842828035355,-9.546280860900879,-2.009857416152954
1761399809797003000,0.1320029296875,-0.062024787068367004,-9.58368968963623,-1.9828479290008545
1761399809807082200,0.142082275390625,-0.0867898091673851,-9.561393737792969,-1.956661343574524
1761399809817173500,0.152173583984375,-0.09681553393602371,-9.51665210723877,-1.9521721601486206
1761399809827233800,0.16223388671875,-0.11394903808832169,-9.52578067779541,-1.9581576585769653
1761399809837312800,0.172312744140625,-0.10354922711849213,-9.542913436889648,-1.998559832572937
1761399809847389200,0.18238916015625,-0.09157821536064148,-9.516877174377441,-2.0436007976531982
1761399809857476400,0.192476318359375,-0.06905775517225266,-9.492935180664062,-2.0656723976135254
1761399809867570000,0.20256982421875,-0.05431845039129257,-9.516203880310059,-2.085574150085449
1761399809877640000,0.212639892578125,-0.036062661558389664,-9.552042007446289,-2.0789153575897217
1761399809887719200,0.22271923828125,-0.0011971008498221636,-9.556007385253906,-2.099191188812256
1761399809897808100,0.23280810546875,-0.00396539643406868,-9.567678451538086,-2.1127333641052246
1761399809907892000,0.24289208984375,-0.027383681386709213,-9.576208114624023,-2.118195056915283
1761399809917974800,0.252974853515625,-0.08125322312116623,-9.515829086303711,-2.139294147491455
1761399809928068400,0.263068359375,-0.09157821536064148,-9.486800193786621,-2.1443068981170654
1761399809938137000,0.27313720703125,-0.08155249804258347,-9.469740867614746,-2.1196916103363037
1761399809948212700,0.283212646484375,-0.04489128291606903,-9.509320259094238,-2.056020736694336
1761399809958286000,0.2932861328125,-0.043020810931921005,-9.564985275268555,-2.001702308654785
1761399809968377000,0.303377197265625,-0.019303251057863235,-9.5879545211792,-1.9752163887023926
1761399809978461000,0.3134609375,-0.0035913025494664907,-9.563488960266113,-1.969380497932434
1761399809988542000,0.3235419921875,-0.004115034360438585,-9.544485092163086,-1.9601777791976929
1761399809998615000,0.333614990234375,-0.04272153601050377,-9.541642189025879,-1.908552885055542
1761399810008704300,0.343704345703125,-0.07242459803819656,-9.575684547424316,-1.913565754890442
1761399810018772000,0.35377197265625,-0.0793827474117279,-9.580547332763672,-1.9755157232284546
1761399810028865500,0.363865478515625,-0.1438017338514328,-9.583839416503906,-2.0574421882629395
1761399810038944500,0.373944580078125,-0.22086510062217712,-9.524882316589355,-2.1430349349975586
1761399810049027300,0.38402734375,-0.2298433631658554,-9.480440139770508,-2.2479310035705566
1761399810059108600,0.394108642578125,-0.26418519020080566,-9.493608474731445,-2.337414264678955
1761399810069189600,0.404189697265625,-0.26074352860450745,-9.494057655334473,-2.4542810916900635
1761399810079270700,0.414270751953125,-0.20814591646194458,-9.421109199523926,-2.505906105041504
1761399810089351700,0.4243515625,-0.15839140117168427,-9.381006240844727,-2.5044097900390625
1761399810099430700,0.4344306640625,-0.07908347249031067,-9.378911018371582,-2.3288848400115967
1761399810109520600,0.444520751953125,-0.03613748028874397,-9.421109199523926,-2.1739351749420166
1761399810119592200,0.45459228515625,-0.007631517946720123,-9.477821350097656,-2.1272482872009277
1761399810129678600,0.4646787109375,-0.0035164838191121817,-9.505878448486328,-2.2800281047821045
1761399810139754800,0.474754638671875,0.019228432327508926,-9.388338088989258,-2.4168717861175537
1761399810149837600,0.484837646484375,-0.012644377537071705,-9.39095687866211,-2.8190228939056396
1761399810159911700,0.49491162109375,-0.06988076120615005,-9.343820571899414,-3.1129112243652344
1761399810169999400,0.504999267578125,-0.048407766968011856,-9.150713920593262,-3.0930092334747314
1761399810180080600,0.51508056640625,-0.15233108401298523,-9.127744674682617,-3.1741127967834473
1761399810190161400,0.525161376953125,-0.22512978315353394,-9.07178020477295,-2.931325912475586
1761399810200243000,0.535242919921875,-0.29964929819107056,-9.173383712768555,-2.868927001953125
1761399810210310400,0.545310302734375,-0.2959831953048706,-9.213561058044434,-2.7956044673919678
1761399810220404200,0.555404296875,-0.2404676377773285,-9.215506553649902,-2.8988544940948486
1761399810230459600,0.565459716796875,-0.14844051003456116,-9.131111145019531,-3.054851770401001
1761399810240566000,0.57556591796875,0.004189853090792894,-8.994641304016113,-3.1770308017730713
1761399810250647000,0.58564697265625,0.1305588185787201,-8.932317733764648,-3.3289129734039307
1761399810260711000,0.5957109375,0.1545008271932602,-8.932766914367676,-3.4846110343933105
1761399810270809600,0.6058095703125,0.13085809350013733,-8.946533203125,-3.5645174980163574
1761399810280861400,0.615861328125,0.04077624902129173,-8.982521057128906,-3.591526985168457
1761399810290961200,0.625961181640625,-0.11888708174228668,-9.11120891571045,-3.615394115447998
1761399810301052200,0.63605224609375,-0.314912348985672,-9.261969566345215,-3.616516590118408
1761399810311125000,0.646125,-0.4670937955379486,-9.346589088439941,-3.5755906105041504
1761399810321225500,0.6562255859375,-0.6093243360519409,-9.380706787109375,-3.5749919414520264
1761399810331282400,0.666282470703125,-0.7301567196846008,-9.410184860229492,-3.553070068359375
1761399810341375700,0.676375732421875,-0.8643068075180054,-9.351377487182617,-3.420865297317505
1761399810351457000,0.68645703125,-0.9088988304138184,-9.159242630004883,-3.2695069313049316
1761399810361524200,0.696524169921875,-0.9003694653511047,-9.005565643310547,-3.2066590785980225
1761399810371623000,0.706622802734375,-0.8990227580070496,-9.030778884887695,-3.236137628555298
1761399810381688600,0.7166884765625,-0.9142109751701355,-9.148468971252441,-3.2782607078552246
1761399810391780900,0.72678076171875,-0.8675240278244019,-9.218724250793457,-3.3831565380096436
1761399810401862100,0.736862060546875,-0.7445967197418213,-9.264288902282715,-3.4911201000213623
1761399810411930400,0.746930419921875,-0.5946598649024963,-9.302820205688477,-3.603198766708374
1761399810422022400,0.7570224609375,-0.4405331015586853,-9.449240684509277,-3.6260933876037598
1761399810432105000,0.76710498046875,-0.3910030722618103,-9.648183822631836,-3.641057014465332
1761399810442184700,0.777184814453125,-0.5440075397491455,-10.02684211730957,-3.9180362224578857
1761399810452266800,0.787266845703125,-0.7940519452095032,-10.405350685119629,-4.18416690826416
1761399810462322700,0.79732275390625,-1.1237784624099731,-10.901847839355469,-4.41857385635376
1761399810472428300,0.80742822265625,-1.1919384002685547,-11.243844985961914,-4.230928421020508
1761399810482508000,0.817508056640625,-0.809015691280365,-11.124882698059082,-3.6752493381500244
1761399810492591400,0.82759130859375,-0.2752583622932434,-10.772187232971191,-3.797727584838867
1761399810502670800,0.8376708984375,0.20193594694137573,-10.384775161743164,-4.282403945922852
1761399810512740000,0.847739990234375,0.675538957118988,-10.016142845153809,-4.555941581726074
1761399810522833700,0.857833740234375,1.0972177982330322,-9.919102668762207,-4.862399101257324
1761399810532901600,0.867901611328125,1.320551872253418,-10.074352264404297,-5.068449974060059
1761399810542980900,0.87798095703125,1.2566566467285156,-10.436025619506836,-4.981435775756836
1761399810553074700,0.88807470703125,0.9894786477088928,-10.70986270904541,-4.535515785217285
1761399810563146500,0.898146484375,1.0100538730621338,-10.557456970214844,-3.776329517364502
1761399810573238300,0.90823828125,0.9692027568817139,-10.319907188415527,-3.1168766021728516
1761399810583307300,0.918307373046875,0.8954314589500427,-10.195858001708984,-2.6070611476898193
1761399810593400300,0.928400390625,1.4553005695343018,-10.119392395019531,-2.001702308654785
1761399810603481300,0.9384814453125,2.300079584121704,-9.961075782775879,-1.3872153759002686
1761399810613551900,0.9485517578125,2.5620951652526855,-9.744027137756348,-1.0849474668502808
1761399810623643100,0.95864306640625,2.2917747497558594,-9.869049072265625,-1.102006196975708
1761399810633718500,0.968718505859375,1.7834558486938477,-10.17064380645752,-1.0781389474868774
1761399810643805200,0.97880517578125,1.4926351308822632,-10.543989181518555,-1.0155904293060303
1761399810653886000,0.988885986328125,1.480738878250122,-11.204789161682129,-0.8768763542175293
1761399810663959600,0.99895947265625,1.5310171842575073,-12.063858985900879,-0.5796960592269897
1761399810674048000,1.009048095703125,1.57254159450531,-12.863746643066406,-0.5330091714859009
1761399810684114400,1.019114501953125,1.5263783931732178,-12.800524711608887,-0.6126911640167236
1761399810694210000,1.0292099609375,1.2972084283828735,-11.682731628417969,-1.0404303073883057
1761399810704291000,1.039291015625,0.8413374423980713,-10.300154685974121,-1.499967336654663
1761399810714359600,1.049359619140625,0.44509705901145935,-9.105073928833008,-1.912293791770935
1761399810724446000,1.059446044921875,0.2965817451477051,-8.273388862609863,-2.0539257526397705
1761399810734531800,1.06953173828125,0.2074725478887558,-7.9235358238220215,-2.443956136703491
1761399810744610800,1.07961083984375,0.7740005254745483,-8.108712196350098,-2.768594980239868
1761399810754694400,1.0896943359375,1.3195043802261353,-8.617330551147461,-2.7807157039642334
1761399810764761000,1.099760986328125,1.5947628021240234,-9.24131965637207,-2.801889419555664
1761399810774846700,1.1098466796875,1.7812861204147339,-9.680655479431152,-2.579901933670044
1761399810784938800,1.119938720703125,1.9314473867416382,-9.927931785583496,-2.0695629119873047
1761399810795008300,1.13000830078125,2.0231003761291504,-9.872940063476562,-1.4361469745635986
1761399810805099000,1.14009912109375,2.0132992267608643,-9.246556282043457,-1.1767501831054688
1761399810815179000,1.150178955078125,1.8727895021438599,-8.356362342834473,-1.1486930847167969
1761399810825262600,1.1602626953125,1.5529390573501587,-7.698256492614746,-0.7488613724708557
1761399810835311400,1.170311279296875,1.364844560623169,-7.253608226776123,-0.5562778115272522
1761399810845405400,1.180405517578125,1.3341689109802246,-6.813823223114014,-0.6692541837692261
1761399810855495000,1.190494873046875,1.3638719320297241,-6.463820934295654,-0.8851812481880188
1761399810865584400,1.20058447265625,1.3218985795974731,-6.1706061363220215,-1.0829273462295532
1761399810875653000,1.210653076171875,1.2758851051330566,-5.965452671051025,-1.367762565612793
1761399810885748700,1.220748779296875,1.3124713897705078,-5.8459672927856445,-1.6475849151611328
1761399810895829500,1.23082958984375,1.4609867334365845,-5.994632244110107,-1.754426121711731
1761399810905907000,1.240906982421875,1.6424223184585571,-6.116886138916016,-1.9975872039794922
1761399810915991600,1.250991455078125,1.96915602684021,-6.20539665222168,-2.1502175331115723
1761399810936141600,1.2711416015625,2.538452386856079,-6.128183841705322,-2.498948097229004
1761399810946234400,1.281234375,2.784905433654785,-5.90552282333374,-2.7694928646087646
1761399810956302600,1.291302490234375,2.952349901199341,-5.830704212188721,-3.1937153339385986
1761399810966361900,1.30136181640625,3.1080479621887207,-5.98954439163208,-3.7042789459228516
1761399810976486000,1.31148583984375,3.3324294090270996,-6.372467041015625,-4.181548118591309
1761399810986547500,1.32154736328125,3.678990125656128,-6.963535785675049,-4.669366836547852
1761399810996624600,1.331624755859375,4.5976152420043945,-7.8278422355651855,-5.25527286529541
1761399811006712300,1.34171240234375,4.956371784210205,-8.853757858276367,-5.685256481170654
1761399811016801300,1.35180126953125,4.8056864738464355,-9.950302124023438,-6.081571578979492
1761399811026870000,1.3618701171875,4.864793300628662,-11.284770011901855,-6.77386999130249
1761399811036955400,1.371955322265625,4.880505561828613,-12.316596984863281,-7.498564720153809
1761399811047018800,1.382018798828125,4.796483993530273,-12.28547191619873,-7.348478317260742
1761399811057123300,1.392123291015625,4.7602715492248535,-11.173739433288574,-6.444592475891113
1761399811067194400,1.4021943359375,4.716352939605713,-9.862091064453125,-5.482946395874023
1761399811077287000,1.412286865234375,4.79588508605957,-8.771307945251465,-4.7928924560546875
1761399811087368200,1.4223681640625,4.522796630859375,-7.78676700592041,-4.306570529937744
1761399811097436000,1.432435791015625,4.074557304382324,-6.911985397338867,-3.852569818496704
1761399811107530000,1.442530029296875,3.6447980403900146,-6.250661849975586,-3.378891944885254
1761399811117598500,1.452598388671875,3.561150550842285,-5.72244119644165,-2.9946227073669434
1761399811127692000,1.462692138671875,3.919532537460327,-6.045359134674072,-2.573542356491089
1761399811137773300,1.472773193359375,3.5590555667877197,-9.479393005371094,-2.6199300289154053
1761399811147844000,1.482843994140625,2.7438299655914307,-14.594903945922852,-3.40986704826355
1761399811157934000,1.49293408203125,2.386869430541992,-17.6240177154541,-3.2974891662597656
1761399811167995400,1.502995361328125,1.4323312044143677,-17.539323806762695,-3.1333365440368652
1761399811178096600,1.5130966796875,0.44764089584350586,-15.001768112182617,-3.2264859676361084
1761399811188165600,1.52316552734375,1.4037504196166992,-12.067449569702148,-3.321730375289917
1761399811198248000,1.533248046875,1.9975124597549438,-8.645611763000488,-2.6657938957214355
1761399811208339700,1.543339599609375,0.6663362383842468,-6.578967094421387,-1.7577180862426758
1761399811218408400,1.553408447265625,-1.057114839553833,-5.782221794128418,-1.0620529651641846
1761399811228512000,1.563511962890625,-1.9537434577941895,-5.637222766876221,-0.6623708605766296
1761399811238575900,1.573575927734375,-1.9908535480499268,-5.675455093383789,-0.7232733964920044
1761399811248661800,1.583661865234375,-1.8370261192321777,-6.433219909667969,-1.0133458375930786
1761399811258732000,1.59373193359375,-1.7993922233581543,-8.370802879333496,-2.097844362258911
1761399811268821800,1.60382177734375,-1.8550573587417603,-10.742334365844727,-3.579331636428833
1761399811278906400,1.61390625,-1.6914286613464355,-12.284125328063965,-4.898910999298096
1761399811288985600,1.623985595703125,-1.114500880241394,-12.9927339553833,-5.431246757507324
1761399811299084500,1.63408447265625,-0.7178863883018494,-11.491419792175293,-4.687098503112793
1761399811309138000,1.644137939453125,-0.4238485097885132,-9.456348419189453,-4.162768363952637
1761399811319228200,1.654228271484375,0.027084406465291977,-8.377685546875,-3.5346646308898926
1761399811329311500,1.6643115234375,0.3259107172489166,-8.051325798034668,-2.8809728622436523
1761399811339390700,1.674390625,0.5826888680458069,-8.207398414611816,-1.9624223709106445
1761399811349482200,1.684482177734375,0.5805190801620483,-8.611943244934082,-1.507673740386963
1761399811359538200,1.6945380859375,0.5179705619812012,-9.10649585723877,-1.3159879446029663
1761399811369633500,1.704633544921875,0.5505167245864868,-9.520842552185059,-1.217451572418213
1761399811379713300,1.71471337890625,0.703521192073822,-9.79565143585205,-1.372925043106079
1761399811389785000,1.72478515625,0.9456348419189453,-9.724873542785645,-1.4865000247955322
1761399811399878700,1.734878662109375,1.1814637184143066,-9.61788272857666,-1.630825400352478
1761399811409947100,1.744947021484375,1.1813141107559204,-9.358111381530762,-1.6956185102462769
1761399811420027400,1.75502734375,1.0776900053024292,-9.105223655700684,-1.7182886600494385
1761399811430108400,1.7651083984375,0.8988730907440186,-8.954763412475586,-1.753004550933838
1761399811440198400,1.775198486328125,0.56233811378479,-8.88563060760498,-2.0281882286071777
1761399811450263000,1.785262939453125,0.14896424114704132,-8.778116226196289,-2.5907506942749023
1761399811460351500,1.7953515625,-0.23859716951847076,-8.642169952392578,-3.2893338203430176
1761399811470445000,1.805445068359375,-0.5365256667137146,-8.397662162780762,-3.8466591835021973
1761399811480527600,1.815527587890625,-0.7062146663665771,-8.062474250793457,-4.10478401184082
1761399811490594600,1.825594482421875,-0.5235819816589355,-7.819762229919434,-4.183568000793457
1761399811500685000,1.83568505859375,-0.07653963565826416,-7.878419876098633,-4.126331806182861
1761399811510765000,1.84576513671875,0.4514566659927368,-8.19572639465332,-3.818228006362915
1761399811520850200,1.85585009765625,0.7704092264175415,-8.58919906616211,-3.609483480453491
1761399811530929400,1.865929443359375,0.9451859593391418,-8.822782516479492,-3.459920644760132
1761399811541000000,1.876,0.8541314601898193,-8.862811088562012,-3.383455991744995
1761399811551102700,1.886102783203125,0.5625625848770142,-8.641871452331543,-3.4449570178985596
1761399811561173800,1.896173828125,0.06456862390041351,-8.656909942626953,-3.405527353286743
1761399811571243000,1.906242919921875,-0.28969839215278625,-8.604761123657227,-3.297788381576538
1761399811581314600,1.916314453125,-0.5692214369773865,-8.75065803527832,-3.1466543674468994
1761399811591416800,1.926416748046875,-0.7546972632408142,-9.06287670135498,-2.883441925048828
1761399811601498000,1.936498046875,-0.6111947894096375,-9.249773979187012,-2.5433156490325928
1761399811611579100,1.9465791015625,-0.2414402812719345,-9.64908218383789,-2.331727981567383
1761399811621641200,1.95664111328125,0.04369417950510979,-9.821314811706543,-2.386495351791382
1761399811631741000,1.966740966796875,0.13654431700706482,-10.564489364624023,-3.390488862991333
1761399811641820000,1.97681982421875,0.38965633511543274,-10.584615707397461,-3.7014358043670654
1761399811651889700,1.9868896484375,0.6279541850090027,-10.092682838439941,-3.9118263721466064
1761399811661984000,1.99698388671875,0.5487959384918213,-9.768866539001465,-4.247687816619873
1761399811672051700,2.0070517578125,0.15652093291282654,-9.853561401367188,-4.40233850479126
1761399811682145800,2.017145751953125,-0.26074352860450745,-10.187851905822754,-4.438251495361328
1761399811692204300,2.027204345703125,-0.36144962906837463,-10.413131713867188,-4.598513126373291
1761399811702295300,2.03729541015625,-0.1363198608160019,-10.37684440612793,-4.860902786254883
1761399811712382000,2.0473818359375,0.29867666959762573,-10.178050994873047,-5.193696975708008
1761399811722456800,2.057456787109375,0.44360068440437317,-9.800439834594727,-5.525518417358398
1761399811732539600,2.06753955078125,0.24443303048610687,-9.422455787658691,-6.198812484741211
1761399811742631700,2.077631591796875,-0.14918869733810425,-9.567304611206055,-7.290568828582764
1761399811752700000,2.087699951171875,-0.8794202208518982,-9.6989107131958,-7.92091703414917
1761399811762780000,2.09777978515625,-0.4819827377796173,-9.487847328186035,-7.814674377441406
1761399811772862200,2.1078623046875,0.3223942220211029,-9.672799110412598,-7.645359516143799
1761399811782955800,2.117955810546875,1.436446189880371,-10.277111053466797,-6.9707932472229
1761399811793036800,2.128036865234375,2.2293009757995605,-10.876483917236328,-5.381117820739746
1761399811803104500,2.1381044921875,2.5639655590057373,-11.573495864868164,-3.6914100646972656
1761399811813197300,2.148197265625,2.3850739002227783,-12.77688217163086,-2.9221980571746826
1761399811823264800,2.1582646484375,2.1178958415985107,-13.534197807312012,-2.022651433944702
1761399811833358600,2.168358642578125,1.3425486087799072,-13.392865180969238,-1.3226468563079834
1761399811843441000,2.17844091796875,-0.3133411407470703,-12.978967666625977,-1.0458920001983643
1761399811853522200,2.188522216796875,-2.0096330642700195,-12.195838928222656,-0.7791630029678345
1761399811863603200,2.198603271484375,-3.0021793842315674,-11.273547172546387,-1.3634978532791138
1761399811873672400,2.20867236328125,-2.448744535446167,-11.068169593811035,-2.9677627086639404
1761399811883765200,2.21876513671875,-1.0121487379074097,-11.246238708496094,-5.104063987731934
1761399811893824800,2.22882470703125,0.4556465148925781,-10.9091796875,-5.994856834411621
1761399811903932400,2.238932373046875,1.090109944343567,-10.224363327026367,-6.006528377532959
1761399811913997300,2.248997314453125,0.1727566123008728,-9.113977432250977,-6.523900508880615
1761399811924088800,2.2590888671875,-0.25318682193756104,-8.787467956542969,-6.672266006469727
1761399811934163700,2.269163818359375,0.01458966638892889,-8.717886924743652,-5.91128396987915
1761399811944243000,2.279242919921875,-0.04676175117492676,-9.245733261108398,-4.567238807678223
1761399811954332200,2.289332275390625,-0.35905542969703674,-9.969829559326172,-3.8943934440612793
1761399811964400000,2.299400146484375,-0.4860977530479431,-10.324695587158203,-3.0931589603424072
1761399811974492400,2.309492431640625,-0.6060323119163513,-10.38380241394043,-2.495281934738159
1761399811984572700,2.31957275390625,-0.803928017616272,-9.5508451461792,-2.683675765991211
1761399811994654200,2.329654296875,-0.8616133332252502,-8.820014953613281,-2.2624456882476807
1761399812004737000,2.339737060546875,-0.34513914585113525,-8.47547435760498,-1.3795839548110962
1761399812014803000,2.349802978515625,0.5716904997825623,-8.335039138793945,-0.9409212470054626
1761399812024886000,2.359885986328125,1.5720926523208618,-8.51213550567627,-0.853607714176178
1761399812034972200,2.36997216796875,2.3433997631073,-8.888399124145508,-0.7974188327789307
1761399812045060900,2.380060791015625,2.754603862762451,-9.34269905090332,-0.6821978688240051
1761399812055137000,2.390136962890625,2.834585189819336,-9.429637908935547,-0.7397335171699524
1761399812065223000,2.400222900390625,2.7352259159088135,-9.119140625,-0.9805004000663757
1761399812075301600,2.410301513671875,2.356642723083496,-8.261641502380371,-0.8533084392547607
1761399812085377800,2.420377685546875,1.8667291402816772,-7.1588873863220215,-0.37970542907714844
1761399812095478500,2.430478515625,1.548150658607483,-6.230311393737793,0.0363619364798069
1761399812105534000,2.440533935546875,1.4685434103012085,-5.520355701446533,0.23178865015506744
1761399812115627800,2.450627685546875,1.6237925291061401,-5.265148639678955,0.3143137991428375
1761399812125708300,2.460708251953125,1.8784756660461426,-5.2730793952941895,0.16332945227622986
1761399812135776800,2.47077685546875,1.945288896560669,-5.303605556488037,-0.19871874153614044
1761399812145871600,2.48087158203125,1.7613842487335205,-5.507486820220947,-1.0187327861785889
1761399812155937800,2.490937744140625,1.45305597782135,-5.605200290679932,-2.1762545108795166
1761399812166032600,2.50103271484375,1.2013654708862305,-5.6961798667907715,-3.496058225631714
1761399812176127200,2.511127197265625,1.0992377996444702,-5.6233062744140625,-4.870554447174072
1761399812186172700,2.521172607421875,1.0779893398284912,-5.426532745361328,-5.930063724517822
1761399812196275500,2.531275390625,1.3588590621948242,-5.144765377044678,-6.527042865753174
1761399812206354200,2.541354248046875,1.8011878728866577,-4.895992755889893,-6.496591567993164
1761399812216417000,2.5514169921875,2.2928221225738525,-4.7166523933410645,-6.092644691467285
1761399812226511000,2.561510986328125,2.750713348388672,-4.639065265655518,-5.746383190155029
1761399812236587000,2.5715869140625,3.2461633682250977,-4.861501216888428,-5.747281074523926
1761399812246680300,2.581680419921875,3.954547882080078,-5.57602071762085,-6.276025772094727
1761399812256761000,2.591760986328125,4.5167365074157715,-6.951340198516846,-7.2271223068237305
1761399812266838500,2.601838623046875,4.840477466583252,-8.999654769897461,-8.198419570922852
1761399812276908500,2.611908447265625,4.148552894592285,-11.290531158447266,-8.944887161254883
1761399812286993200,2.6219931640625,3.904344320297241,-13.160627365112305,-9.145925521850586
1761399812297085000,2.6320849609375,4.021884918212891,-13.835119247436523,-8.24383544921875
1761399812307153700,2.642153564453125,4.593350887298584,-13.214571952819824,-6.536619663238525
1761399812317234400,2.652234375,5.303007125854492,-11.800271987915039,-4.531625270843506
1761399812327327700,2.66232763671875,5.692289352416992,-10.253767013549805,-2.6028714179992676
1761399812337381000,2.672381103515625,6.278718948364258,-9.041328430175781,-1.1688193082809448
1761399812347490000,2.682489990234375,5.792770862579346,-9.838522911071777,-0.4488379955291748
1761399812357558800,2.692558837890625,4.391714096069336,-13.088202476501465,-0.8129063248634338
1761399812367652000,2.702652099609375,4.290708541870117,-16.286781311035156,-1.9190274477005005
1761399812377732900,2.71273291015625,3.0318822860717773,-16.823680877685547,-3.034950017929077
1761399812387803100,2.72280322265625,-1.610998511314392,-13.558065414428711,-3.5830724239349365
1761399812397892900,2.732892822265625,-2.658611297607422,-8.655562400817871,-3.5632455348968506
1761399812407968300,2.74296826171875,-0.4908113479614258,-4.44281530380249,-3.5423710346221924
1761399812418057000,2.753056884765625,0.14484919607639313,-2.7222821712493896,-3.637016773223877
1761399812428138000,2.763137939453125,-1.4523825645446777,-3.1339352130889893,-3.8901288509368896
1761399812438206500,2.77320654296875,-2.2573580741882324,-5.053112506866455,-4.038344860076904
1761399812448299800,2.7832998046875,-1.5970821380615234,-8.062923431396484,-4.133514404296875
1761399812458368000,2.793367919921875,-1.1846809387207031,-10.684947967529297,-4.485462188720703
1761399812468449000,2.803448974609375,-2.24935245513916,-12.054356575012207,-5.253028392791748
1761399812478542300,2.813542236328125,-2.4583213329315186,-12.735282897949219,-5.933280944824219
1761399812488623000,2.823623046875,-1.279775619506836,-12.495713233947754,-5.410820960998535
1761399812498704600,2.83370458984375,-0.1718587875366211,-10.48293685913086,-4.318690776824951
1761399812508785700,2.84378564453125,-0.18158523738384247,-8.725144386291504,-3.165433883666992
1761399812518866700,2.85386669921875,-0.06748656183481216,-8.568697929382324,-2.1541829109191895
1761399812528945400,2.8639453125,0.44165539741516113,-8.756418228149414,-1.311723232269287
1761399812539016400,2.874016357421875,0.5880009531974792,-8.859892845153809,-0.9071031808853149
1761399812549096400,2.884096435546875,0.4340238869190216,-8.899771690368652,-0.6790554523468018
1761399812559201300,2.894201171875,0.34424132108688354,-8.86946964263916,-0.5805938839912415
1761399812569259000,2.904259033203125,0.21308395266532898,-9.028534889221191,-0.6973860859870911
1761399812579352300,2.914352294921875,0.3659387528896332,-9.010354042053223,-0.8620622754096985
1761399812599511300,2.93451123046875,0.4248959720134735,-8.877699851989746,-1.516352653503418
1761399812609581300,2.944581298828125,0.29299044609069824,-8.694917678833008,-1.7361702919006348
1761399812619657700,2.95465771484375,0.11933599412441254,-8.492981910705566,-1.8747347593307495
1761399812629745000,2.964744873046875,-0.0038905777037143707,-8.453476905822754,-2.4595184326171875
1761399812639838500,2.97483837890625,0.05132569745182991,-8.45819091796875,-3.105653762817383
1761399812649906400,2.984906494140625,0.104970782995224,-8.447417259216309,-3.8209962844848633
1761399812659996400,2.994996337890625,0.03950432687997818,-8.299874305725098,-4.275296211242676
1761399812670081300,3.005081298828125,-0.07638999819755554,-8.12988567352295,-4.518681526184082
1761399812680162300,3.015162353515625,-0.05776011571288109,-7.968127727508545,-4.413037300109863
1761399812690239200,3.0252392578125,0.1646013706922531,-7.995212078094482,-4.241777420043945
1761399812700323800,3.03532373046875,0.49043726921081543,-8.166397094726562,-4.021360874176025
1761399812710404900,3.04540478515625,0.6884077787399292,-8.297928810119629,-3.802515983581543
1761399812720469000,3.055468994140625,0.5909188985824585,-8.387337684631348,-3.899331569671631
1761399812730554600,3.0655546875,0.3488800823688507,-8.501062393188477,-3.872995376586914
1761399812740648200,3.075648193359375,0.199092835187912,-8.55964469909668,-3.9069631099700928
1761399812750706200,3.0857060546875,0.10437223315238953,-8.973318099975586,-4.541650772094727
1761399812760797400,3.09579736328125,0.15831658244132996,-8.81784439086914,-4.552499771118164
1761399812770891300,3.105891357421875,0.12442366778850555,-8.12636947631836,-3.843441963195801
1761399812780951300,3.115951416015625,0.052447982132434845,-8.41696548461914,-3.7577743530273438
1761399812791051300,3.12605126953125,-0.020126258954405785,-9.141061782836914,-3.6355953216552734
1761399812801133800,3.1361337890625,-0.10534487664699554,-9.86463451385498,-2.977339506149292
1761399812811214600,3.146214599609375,-0.12307693064212799,-10.672378540039062,-2.5457847118377686
1761399812821288400,3.156288330078125,-0.31528642773628235,-11.11066722869873,-2.689361810684204
1761399812831364000,3.166364013671875,-0.5899462699890137,-10.693178176879883,-3.2410008907318115
1761399812841455900,3.176455810546875,-1.1344027519226074,-10.256535530090332,-4.444910049438477
1761399812851537000,3.186536865234375,-1.4609867334365845,-9.88618278503418,-5.467833042144775
1761399812861598700,3.1965986328125,-1.400682806968689,-9.839645385742188,-6.122272968292236
1761399812871700500,3.206700439453125,-1.0752958059310913,-10.015918731689453,-6.249240398406982
1761399812881781500,3.216781494140625,-0.6477811932563782,-10.23079776763916,-6.205097198486328
1761399812891852000,3.22685205078125,-0.5752069354057312,-10.28354549407959,-6.250063419342041
1761399812901943000,3.236943115234375,-0.6472574472427368,-10.04150676727295,-6.569240570068359
1761399812912024800,3.24702490234375,-0.947879433631897,-10.623297691345215,-8.3660888671875
1761399812922090500,3.257090576171875,-1.2069768905639648,-10.4990234375,-8.703895568847656
1761399812932192500,3.267192626953125,-0.9576807022094727,-9.781585693359375,-8.631321907043457
1761399812942267400,3.277267333984375,-1.0726771354675293,-9.376891136169434,-8.701875686645508
1761399812952338000,3.287337890625,-0.8631845116615295,-9.079710960388184,-7.652691841125488
1761399812962417200,3.297417236328125,0.16519992053508759,-9.289727210998535,-5.850157260894775
1761399812972485000,3.307485107421875,1.366266131401062,-10.07741928100586,-3.636418342590332
1761399812982566000,3.31756591796875,2.132335901260376,-11.417424201965332,-1.8394203186035156
1761399812992647000,3.32764697265625,2.3965210914611816,-12.829928398132324,-0.27645549178123474
1761399813002728000,3.33772802734375,2.5097968578338623,-14.016629219055176,0.8610895872116089
1761399813012809000,3.34780908203125,1.2701239585876465,-14.7572603225708,0.9548375606536865
1761399813022889700,3.3578896484375,-0.09576806426048279,-14.665083885192871,1.155277132987976
1761399813032959200,3.367959228515625,-0.6647650599479675,-14.02455997467041,1.138742208480835
1761399813043040300,3.378040283203125,-0.8472481369972229,-13.264551162719727,0.3372831642627716
1761399813053141800,3.388141845703125,-0.9603741765022278,-12.558635711669922,-1.0409539937973022
1761399813063222800,3.398222900390625,-0.34685996174812317,-12.020090103149414,-2.546757221221924
1761399813073299200,3.40829931640625,0.3859902024269104,-11.427300453186035,-3.758821964263916
1761399813083401200,3.418401123046875,0.7534253597259521,-10.640206336975098,-4.561178684234619
1761399813093482200,3.428482177734375,0.792705237865448,-9.835979461669922,-4.842347621917725
1761399813103563000,3.43856298828125,0.4721814692020416,-9.250970840454102,-4.724508285522461
1761399813113642200,3.448642333984375,-0.22101473808288574,-8.9064302444458,-4.321309566497803
1761399813123724800,3.458724853515625,-0.6439654231071472,-8.544008255004883,-4.017545223236084
1761399813133810700,3.468810791015625,-0.15442600846290588,-8.345812797546387,-3.8163576126098633
1761399813143886600,3.478886474609375,0.42848727107048035,-8.182408332824707,-3.0545525550842285
1761399813153967600,3.488967529296875,-0.3357867896556854,-7.9707465171813965,-3.110891103744507
1761399813164049000,3.499048828125,-0.04982932284474373,-8.5194673538208,-2.3290345668792725
1761399813174140700,3.509140625,0.300921231508255,-8.749011993408203,-1.6117466688156128
1761399813184210700,3.519210693359375,0.17904140055179596,-8.31977653503418,-1.5757588148117065
1761399813194292000,3.5292919921875,0.19617490470409393,-7.480458736419678,-1.8228105306625366
1761399813204359700,3.539359619140625,0.10953472554683685,-6.818836212158203,-1.4616601467132568
1761399813214455000,3.549455078125,-0.0876128152012825,-6.286275863647461,-0.840888500213623
1761399813234595000,3.569594970703125,0.2503437101840973,-5.773542404174805,-0.13901333510875702
1761399813244681700,3.579681640625,0.7126491069793701,-5.8028717041015625,-0.166995570063591
1761399813254765300,3.589765380859375,1.058536410331726,-6.185494899749756,0.051699791103601456
1761399813264848100,3.59984814453125,1.4443769454956055,-6.5814361572265625,0.15801730751991272
1761399813274926800,3.6099267578125,1.5287725925445557,-6.524947643280029,-0.15637129545211792
1761399813285020400,3.6200205078125,1.530643105506897,-6.163273811340332,-0.4011036157608032
1761399813295105300,3.630105224609375,1.6405519247055054,-5.778106689453125,-0.2568529546260834
1761399813305180400,3.640180419921875,1.8630629777908325,-5.401393890380859,-0.0635959804058075
1761399813315263200,3.65026318359375,2.120589256286621,-5.1996073722839355,-0.055665191262960434
1761399813325314800,3.660314697265625,2.5529673099517822,-5.150900363922119,-0.2702455222606659
1761399813335412500,3.67041259765625,3.0561983585357666,-5.291634559631348,-0.8147019743919373
1761399813345506300,3.68050634765625,3.681309461593628,-5.86272668838501,-1.7123031616210938
1761399813355585800,3.690585693359375,4.4374284744262695,-7.030872344970703,-3.0843303203582764
1761399813365670700,3.700670654296875,4.953004837036133,-8.631396293640137,-4.7702226638793945
1761399813375749400,3.710749267578125,4.785709857940674,-10.390162467956543,-6.5912370681762695
1761399813385830400,3.720830322265625,4.460397720336914,-12.328791618347168,-8.817770004272461
1761399813395911400,3.730911376953125,4.464363098144531,-14.312986373901367,-11.120991706848145
1761399813405992000,3.740991943359375,4.408398628234863,-15.077410697937012,-12.618864059448242
1761399813416073000,3.751072998046875,4.324751377105713,-13.610512733459473,-12.229507446289062
1761399813426139100,3.76113916015625,4.097376823425293,-11.256638526916504,-10.601001739501953
1761399813436235500,3.771235595703125,3.667842149734497,-9.218798637390137,-8.871265411376953
1761399813446315800,3.781315673828125,3.4498202800750732,-7.216273784637451,-7.1688385009765625
1761399813456377300,3.79137744140625,3.440617561340332,-5.308618545532227,-5.630339622497559
1761399813466465800,3.8014658203125,3.459247350692749,-3.8079779148101807,-4.33103609085083
1761399813476558800,3.811558837890625,3.6860978603363037,-3.0603134632110596,-3.378293514251709
1761399813486638000,3.82163818359375,3.7690720558166504,-4.7725419998168945,-2.410212993621826
1761399813496719600,3.8317197265625,2.4111855030059814,-9.814356803894043,-2.129417896270752
1761399813506801700,3.8418017578125,1.1758522987365723,-14.971916198730469,-2.3825299739837646
1761399813516882400,3.85188232421875,-0.6692541837692261,-17.69771385192871,-2.053027868270874
1761399813526964000,3.8619638671875,-0.38576576113700867,-17.29840660095215,-1.7001076936721802
1761399813537032200,3.8720322265625,4.2737250328063965,-16.01152229309082,-1.9155858755111694
1761399813547125800,3.882125732421875,3.1176247596740723,-12.897415161132812,-3.625419855117798
1761399813557205500,3.89220556640625,-1.1041759252548218,-8.044443130493164,-1.9443162679672241
1761399813567288000,3.9022880859375,-2.965069055557251,-5.363236427307129,0.22744916379451752
1761399813577368800,3.912368896484375,-3.4677767753601074,-5.511527061462402,1.0304045677185059
1761399813587449600,3.92244970703125,-3.2764649391174316,-6.703390598297119,0.48407766222953796
1761399813597518300,3.932518310546875,-2.5724949836730957,-7.981595039367676,-0.1834557056427002
1761399813607611400,3.942611328125,-2.4007856845855713,-9.658134460449219,-0.9342623949050903
1761399813617691000,3.95269091796875,-2.250100612640381,-11.514239311218262,-2.0421793460845947
1761399813627773700,3.962773681640625,-1.1867010593414307,-12.770222663879395,-2.5718963146209717
1761399813637854700,3.972854736328125,-0.5522375702857971,-13.30345630645752,-4.004526615142822
1761399813647935500,3.982935546875,-0.3259107172489166,-11.93285083770752,-5.140650272369385
1761399813658016300,3.993016357421875,0.3241150677204132,-10.042329788208008,-4.956820487976074
1761399813668086500,4.00308642578125,0.47150808572769165,-8.977433204650879,-4.479626178741455
1761399813678175700,4.01317578125,0.23410803079605103,-8.605284690856934,-3.557185173034668
1761399813688233500,4.0232333984375,0.1455973982810974,-8.64710807800293,-2.1465513706207275
1761399813698340400,4.03334033203125,0.32710781693458557,-8.800935745239258,-0.6428431272506714
1761399813708421000,4.043421142578125,0.29126960039138794,-9.254786491394043,0.162880539894104
1761399813718502100,4.053502197265625,0.12524667382240295,-9.315689086914062,0.5694459080696106
1761399813728583000,4.0635830078125,-0.0011971008498221636,-9.154603958129883,0.4750994145870209
1761399813738652700,4.073652587890625,-0.05776011571288109,-8.712201118469238,-0.04399345442652702
1761399813748742700,4.08374267578125,-0.21854571998119354,-8.345663070678711,-0.9245359301567078
1761399813758826000,4.093825927734375,-0.4242226183414459,-8.200738906860352,-1.9954923391342163
1761399813768894500,4.10389453125,-0.7662941813468933,-8.180014610290527,-3.007042407989502
1761399813778988500,4.113988525390625,-1.0452187061309814,-8.138565063476562,-3.8267574310302734
1761399813789068800,4.12406884765625,-1.1040263175964355,-8.109834671020508,-4.512471675872803
1761399813799150300,4.134150390625,-0.9243863224983215,-8.050204277038574,-5.0266265869140625
1761399813809209300,4.144209228515625,-0.7220014333724976,-7.997007846832275,-5.347599029541016
1761399813819311400,4.154311279296875,-0.5631611347198486,-7.977405071258545,-5.452869415283203
1761399813829392600,4.164392578125,-0.2578255832195282,-7.970222473144531,-5.411120414733887
1761399813839463700,4.174463623046875,0.13736732304096222,-7.873631477355957,-5.317596912384033
1761399813849545200,4.184545166015625,0.5746083855628967,-7.699902534484863,-5.237765312194824
1761399813859634200,4.19463427734375,0.7095815539360046,-7.648726463317871,-5.167211055755615
1761399813869716500,4.204716552734375,0.4175637364387512,-7.916951656341553,-4.9933319091796875
1761399813879793700,4.214793701171875,-0.008978256024420261,-8.409034729003906,-4.836287498474121
1761399813889878800,4.224878662109375,-0.15255554020404816,-8.822632789611816,-4.236464977264404
1761399813899942400,4.2349423828125,-0.05282207578420639,-8.997783660888672,-3.745354413986206
1761399813910040600,4.24504052734375,0.02917933277785778,-9.153107643127441,-3.4864065647125244
1761399813920122000,4.2551220703125,-0.05259761959314346,-8.913911819458008,-2.877755641937256
1761399813930174700,4.2651748046875,-0.18584990501403809,-9.851242065429688,-3.779771089553833
1761399813940279800,4.27527978515625,-0.35568860173225403,-10.210521697998047,-3.9992895126342773
1761399813950364700,4.28536474609375,-0.5889736413955688,-9.60763168334961,-3.4778025150299072
1761399813960433400,4.295433349609375,-0.6124666929244995,-9.246332168579102,-3.546037197113037
1761399813970501400,4.30550146484375,-0.4323778748512268,-9.083900451660156,-3.547309160232544
1761399813980607500,4.315607421875,-0.6143372058868408,-9.163507461547852,-4.105457305908203
1761399813990688500,4.3256884765625,-1.2810475826263428,-9.334992408752441,-4.746056079864502
1761399814000766500,4.335766357421875,-1.8500444889068604,-9.604564666748047,-5.347300052642822
1761399814010843400,4.345843505859375,-1.7069162130355835,-9.932794570922852,-5.400196552276611
1761399814020931300,4.355931396484375,-1.0693103075027466,-10.383278846740723,-4.8552165031433105
1761399814031000800,4.366000732421875,-0.35815760493278503,-10.471939086914062,-3.6355953216552734
1761399814041081300,4.376081298828125,0.5658546090126038,-10.408417701721191,-2.667963743209839
1761399814051162600,4.38616259765625,0.6040869951248169,-10.979434967041016,-3.906738519668579
1761399814061255200,4.396255126953125,0.2438344806432724,-10.682404518127441,-4.901005744934082
1761399814071334700,4.406334716796875,-0.20964229106903076,-9.552789688110352,-5.419200897216797
1761399814081417700,4.416417724609375,-0.8391677141189575,-9.178471565246582,-7.004386901855469
1761399814091504000,4.426504150390625,-1.5511434078216553,-9.417891502380371,-8.525378227233887
1761399814101566700,4.436566650390625,-0.40948331356048584,-9.656713485717773,-8.810811996459961
1761399814111644200,4.44664404296875,0.5752817988395691,-9.934664726257324,-8.670750617980957
1761399814121741000,4.456740966796875,0.6088005900382996,-10.244040489196777,-7.540163993835449
1761399814131804000,4.466803955078125,0.8348281979560852,-10.284592628479004,-5.567192554473877
1761399814141902600,4.476902587890625,1.4113819599151611,-10.589030265808105,-3.843367099761963
1761399814151985400,4.4869853515625,2.5245361328125,-11.137527465820312,-2.1989245414733887
1761399814162065400,4.4970654296875,3.451765537261963,-11.694777488708496,0.14110825955867767
1761399814172133000,4.507133056640625,3.0147488117218018,-13.363086700439453,0.3208230137825012
1761399814182227000,4.51722705078125,1.5465794801712036,-15.357756614685059,-0.28558337688446045
1761399814192307700,4.5273076171875,-0.03501519933342934,-15.600394248962402,0.47584760189056396
1761399814202374000,4.537373779296875,-1.2881553173065186,-14.335731506347656,0.6974608898162842
1761399814212457200,4.547457275390625,-2.1496939659118652,-12.525116920471191,-0.8903437852859497
1761399814222550800,4.55755078125,-1.6660650968551636,-11.021857261657715,-3.134758234024048
1761399814232619000,4.567618896484375,0.24368484318256378,-10.3595609664917,-5.481300354003906
1761399814242712300,4.57771240234375,1.7907131910324097,-10.56613540649414,-7.261763572692871
1761399814252793900,4.5877939453125,2.0259435176849365,-10.39876651763916,-7.670797824859619
1761399814262878200,4.597878173828125,1.6522984504699707,-10.114903450012207,-7.457414627075195
1761399814272944600,4.607944580078125,1.1842319965362549,-9.853935241699219,-6.363713264465332
1761399814283036700,4.61803662109375,0.3374328017234802,-9.599027633666992,-4.782866954803467
1761399814293117400,4.628117431640625,-0.01818096823990345,-9.144429206848145,-3.571026563644409
1761399814303199000,4.638198974609375,0.3480570614337921,-8.796072959899902,-2.564788579940796
1761399814313280000,4.648280029296875,0.38636431097984314,-8.506000518798828,-1.5886276960372925
1761399814323359000,4.65835888671875,-0.5265747308731079,-8.475624084472656,-1.3005752563476562
1761399814333429000,4.668428955078125,-0.41681554913520813,-8.355988502502441,-1.1393407583236694
1761399814343522600,4.6785224609375,0.06711246818304062,-8.082974433898926,-0.6971616148948669
1761399814353603800,4.688603759765625,0.08559270948171616,-7.448211669921875,-0.417264461517334
1761399814363688400,4.6986884765625,-0.13691841065883636,-6.782474040985107,-0.4314800500869751
1761399814373765400,4.708765380859375,-0.3761889338493347,-6.3996262550354,-0.13280338048934937
1761399814383830000,4.718830078125,-0.3776105046272278,-6.237493991851807,-0.1702875941991806
1761399814393924400,4.72892431640625,-0.16235680878162384,-5.9968767166137695,-0.4430021345615387
1761399814403997400,4.73899755859375,0.4372410774230957,-6.197092056274414,-0.36489129066467285
1761399814414075000,4.749074951171875,1.076418161392212,-6.592808246612549,-0.35823243856430054
1761399814424170000,4.759169921875,1.6338181495666504,-6.803797721862793,-0.6226420998573303
1761399814434251300,4.769251220703125,1.9298762083053589,-6.940341949462891,-0.6842179298400879
1761399814444332000,4.77933203125,1.7317559719085693,-6.464643955230713,-0.6759130954742432
1761399814454400500,4.789400390625,1.4253730773925781,-5.838859558105469,-0.1941547989845276
1761399814464492500,4.799492431640625,1.1445780992507935,-5.384709358215332,0.2875286638736725
1761399814474561500,4.8095615234375,1.1433809995651245,-5.245321750640869,0.4456208050251007
1761399814484654000,4.819654052734375,1.4037504196166992,-5.331288814544678,0.24016836285591125
1761399814494736600,4.829736572265625,1.754426121711731,-5.488333225250244,-0.18629881739616394
1761399814504817400,4.8398173828125,2.275015354156494,-5.865569591522217,-0.9989806413650513
1761399814514897400,4.8498974609375,2.856656789779663,-6.51297664642334,-2.2626702785491943
1761399814524977400,4.859977294921875,3.3936312198638916,-7.190311431884766,-3.6546740531921387
1761399814535042300,4.870042236328125,4.104858875274658,-8.159738540649414,-5.319616794586182
1761399814545142000,4.88014208984375,4.690016746520996,-9.526528358459473,-7.12963342666626
1761399814555211500,4.89021142578125,4.734833240509033,-11.13849925994873,-8.853981971740723
1761399814565304000,4.900303955078125,4.563722610473633,-12.666897773742676,-10.601001739501953
1761399814575383300,4.91038330078125,4.307243824005127,-13.314828872680664,-12.10590648651123
1761399814585446000,4.92044580078125,4.077998638153076,-12.509329795837402,-12.660987854003906
1761399814595546600,4.930546630859375,3.4373254776000977,-10.585663795471191,-11.740941047668457
1761399814605627600,4.940627685546875,2.5265562534332275,-8.760832786560059,-10.152762413024902
1761399814615698200,4.9506982421875,2.337339401245117,-7.515249729156494,-8.157793045043945
1761399814625771500,4.960771484375,2.921973466873169,-6.353911876678467,-6.5557732582092285
1761399814635856100,4.970856201171875,3.880552053451538,-5.2620062828063965,-5.651438236236572
1761399814645952000,4.980951904296875,4.7387237548828125,-4.8680853843688965,-4.912003993988037
1761399814656032500,4.991032470703125,4.36612606048584,-7.517194747924805,-4.298789024353027
1761399814666103000,5.00110302734375,3.273247718811035,-13.405135154724121,-4.664129257202148
1761399814676194600,5.011194580078125,2.584465980529785,-17.26421356201172,-4.014402866363525
1761399814686275600,5.021275634765625,0.08379705995321274,-16.36115074157715,-3.408071279525757
1761399814696343800,5.03134375,-2.7516112327575684,-12.409820556640625,-2.959757089614868
1761399814706435300,5.041435302734375,-0.5538836121559143,-9.034146308898926,-2.380509853363037
1761399814716518700,5.0515185546875,2.336815595626831,-6.901660442352295,-1.7362451553344727
1761399814726582500,5.06158251953125,1.8073978424072266,-5.908665180206299,-0.3622726500034332
1761399814736668000,5.07166796875,0.8325836658477783,-5.851279258728027,0.7455693483352661
1761399814746761000,5.081760986328125,0.42706573009490967,-7.447837829589844,0.8649053573608398
1761399814756829400,5.091829345703125,-0.4833294749259949,-9.043423652648926,0.5217863321304321
1761399814766921200,5.101921142578125,-1.3970915079116821,-9.422829627990723,0.0901566594839096
1761399814777004500,5.112004638671875,-2.76043963432312,-9.85999584197998,-0.7178115844726562
1761399814787085000,5.1220849609375,-3.4560301303863525,-10.883143424987793,-2.1582231521606445
1761399814797154800,5.13215478515625,-2.7316346168518066,-11.696647644042969,-3.2159366607666016
1761399814817328000,5.152328125,-1.2513444423675537,-11.232247352600098,-4.562376022338867
1761399814827409000,5.162408935546875,-0.8952069878578186,-9.763404846191406,-4.1955389976501465
1761399814837475600,5.1724755859375,0.0751928985118866,-9.00855827331543,-4.205938816070557
1761399814847550000,5.182550048828125,0.4801122546195984,-8.6205472946167,-4.101417064666748
1761399814857651700,5.192651611328125,0.47988781332969666,-8.601768493652344,-3.522918224334717
1761399814877813800,5.212813720703125,0.14986206591129303,-8.959775924682617,-1.8766052722930908
1761399814887895000,5.22289501953125,0.013317747041583061,-8.882338523864746,-1.082777738571167
1761399814897974000,5.23297412109375,-0.13018471002578735,-9.039458274841309,-0.7693617343902588
1761399814908043800,5.243043701171875,-0.49567458033561707,-9.08801555633545,-0.81440269947052
1761399814918137600,5.2531376953125,-0.7702595591545105,-8.878373146057129,-1.0665420293807983
1761399814928219100,5.26321923828125,-0.9567080140113831,-8.513482093811035,-1.4208838939666748
1761399814938295800,5.2732958984375,-1.0554687976837158,-8.343942642211914,-2.1868040561676025
1761399814948381200,5.283381103515625,-1.183558702468872,-8.356587409973145,-3.1979053020477295
1761399814958459400,5.29345947265625,-1.2566566467285156,-8.413673400878906,-4.056077003479004
1761399814968527000,5.303527099609375,-1.2134113311767578,-8.443601608276367,-4.737302303314209
1761399814978598400,5.313598388671875,-1.03062903881073,-8.430133819580078,-5.160178184509277
1761399814988704800,5.323704833984375,-0.741678774356842,-8.314763069152832,-5.123142719268799
1761399814998785800,5.333785888671875,-0.45901334285736084,-8.161234855651855,-4.8509521484375
1761399815008856800,5.34385693359375,-0.1883937418460846,-8.161908149719238,-4.464587688446045
1761399815018935800,5.353935791015625,-0.0330699123442173,-8.266056060791016,-3.8750903606414795
1761399815029026300,5.3640263671875,-0.0702548548579216,-8.457517623901367,-3.362581491470337
1761399815039109400,5.374109375,-0.29388827085494995,-8.62316608428955,-3.011157512664795
1761399815049190400,5.3841904296875,-0.596605122089386,-8.696040153503418,-2.8610711097717285
1761399815059257600,5.394257568359375,-0.749160647392273,-8.700379371643066,-2.9036428928375244
1761399815069358000,5.404358154296875,-0.7802104949951172,-8.758213996887207,-2.8849382400512695
1761399815079433500,5.41443359375,-0.7340472936630249,-8.917802810668945,-2.9350669384002686
1761399815089510400,5.424510498046875,-0.573710560798645,-9.020604133605957,-2.8594250679016113
1761399815099593200,5.43459326171875,-0.4919336438179016,-9.07641887664795,-2.568753957748413
1761399815109651500,5.4446513671875,-0.47150808572769165,-9.125349998474121,-2.3498342037200928
1761399815119757600,5.454757568359375,-0.30211833119392395,-9.150713920593262,-2.3062896728515625
1761399815129837800,5.464837890625,-0.530465304851532,-9.039158821105957,-2.4881742000579834
1761399815139919400,5.47491943359375,-0.9473556876182556,-8.941445350646973,-2.7245266437530518
1761399815150000400,5.48500048828125,-1.6530466079711914,-8.483778953552246,-3.217283248901367
1761399815160076500,5.49507666015625,-2.784456491470337,-9.360804557800293,-5.021389007568359
1761399815170162400,5.505162353515625,-2.5686042308807373,-9.283666610717773,-5.376628875732422
1761399815180243200,5.5152431640625,-1.4382418394088745,-9.166500091552734,-4.817208766937256
1761399815190324500,5.525324462890625,-1.1124807596206665,-9.402628898620605,-4.34143590927124
1761399815200412000,5.535411865234375,-1.3768155574798584,-9.756746292114258,-4.215216636657715
1761399815210475500,5.5454755859375,-1.4276924133300781,-9.975740432739258,-4.287715911865234
1761399815220552000,5.555552001953125,-1.1385177373886108,-9.902941703796387,-4.497058868408203
1761399815230636000,5.565635986328125,-0.532934308052063,-9.619752883911133,-4.747776985168457
1761399815240729300,5.575729248046875,-0.09644144028425217,-9.21019458770752,-4.601880073547363
1761399815250812200,5.585812255859375,-0.4297592043876648,-8.565930366516113,-4.321609020233154
1761399815260890600,5.595890625,-0.9799766540527344,-9.117643356323242,-5.863250255584717
1761399815270958800,5.605958740234375,-1.0683376789093018,-11.205911636352539,-7.808913230895996
1761399815281051400,5.616051513671875,-0.20552724599838257,-11.188628196716309,-7.091401100158691
1761399815291133700,5.6261337890625,-0.027982233092188835,-10.795829772949219,-6.826392650604248
1761399815301214500,5.63621435546875,1.1124060153961182,-11.100566864013672,-6.101174354553223
1761399815311295700,5.646295654296875,2.4876503944396973,-11.834688186645508,-4.415431499481201
1761399815321376500,5.65637646484375,3.2235682010650635,-12.522348403930664,-2.5807249546051025
1761399815331457800,5.666457763671875,2.830544948577881,-12.830302238464355,-0.8298901915550232
1761399815341534500,5.676534423828125,2.8347349166870117,-13.541529655456543,0.7593360543251038
1761399815351608600,5.686608642578125,3.063680410385132,-15.044265747070312,2.2816741466522217
1761399815361700600,5.69670068359375,3.043030261993408,-16.7938289642334,3.2830491065979004
1761399815371777300,5.70677734375,2.468122720718384,-17.964893341064453,3.8691794872283936
1761399815381862700,5.716862548828125,1.5517419576644897,-17.667936325073242,3.7300167083740234
1761399815391943400,5.726943359375,1.016637921333313,-15.802778244018555,2.6646716594696045
1761399815402012700,5.7370126953125,1.3276596069335938,-13.65256118774414,0.8838345408439636
1761399815412103700,5.747103759765625,1.533486247062683,-12.18297004699707,-1.0729764699935913
1761399815422175200,5.75717529296875,1.482235312461853,-11.167155265808105,-2.380659580230713
1761399815432255000,5.7672548828125,1.3133692741394043,-9.998335838317871,-3.4926912784576416
1761399815442348000,5.77734814453125,0.8170961737632751,-8.951845169067383,-4.688595294952393
1761399815452429300,5.78742919921875,0.16557401418685913,-8.16340446472168,-4.254720687866211
1761399815462510000,5.797510009765625,1.3189058303833008,-8.392873764038086,-5.0574517250061035
1761399815472591400,5.80759130859375,1.5071499347686768,-8.931045532226562,-4.961683750152588
1761399815482653700,5.81765380859375,1.673098087310791,-9.335142135620117,-3.747748613357544
1761399815492753200,5.827753173828125,1.3597569465637207,-9.290325164794922,-2.02040696144104
1761399815502834200,5.837834228515625,1.0898854732513428,-8.357409477233887,-1.3973159790039062
1761399815512918800,5.847918701171875,0.9038859605789185,-7.5632829666137695,-0.7638251781463623
1761399815522996000,5.857995849609375,0.43866264820098877,-7.1716814041137695,-0.11776479333639145
1761399815533077000,5.868076904296875,0.08177695423364639,-7.060500621795654,0.20881928503513336
1761399815543150800,5.87815087890625,0.016983868554234505,-6.920515060424805,0.05439326912164688
1761399815553239000,5.888239013671875,0.19617490470409393,-6.599018573760986,-0.3357867896556854
1761399815563320300,5.8983203125,0.5774515271186829,-6.356081962585449,-0.4908861815929413
1761399815573400800,5.90840087890625,1.0053402185440063,-6.156315803527832,-0.3636193871498108
1761399815583481600,5.918481689453125,1.2014403343200684,-5.753416538238525,-0.5129576921463013
1761399815593562400,5.928562255859375,1.2238860130310059,-5.109525680541992,-0.9390507936477661
1761399815603618000,5.9386181640625,1.1546785831451416,-4.319438934326172,-1.3635727167129517
1761399815613713000,5.948712890625,1.2530653476715088,-3.8545899391174316,-1.5233107805252075
1761399815623805700,5.9588056640625,1.4547767639160156,-3.956942081451416,-1.5153800249099731
1761399815633874000,5.9688740234375,1.6211738586425781,-4.483591556549072,-1.4624083042144775
1761399815643967500,5.978967529296875,1.6726491451263428,-5.098677158355713,-1.6080057621002197
1761399815654048300,5.98904833984375,1.739312767982483,-5.688174247741699,-1.799242615699768
1761399815664104700,5.999104736328125,1.8690484762191772,-6.222006320953369,-1.9005472660064697
1761399815674208800,6.009208740234375,1.9132664203643799,-6.460902690887451,-2.0514566898345947
1761399815684289500,6.01928955078125,2.081159830093384,-6.4986114501953125,-2.42203426361084
1761399815694372600,6.02937255859375,2.32065486907959,-6.45708703994751,-3.021033525466919
1761399815704454400,6.039454345703125,3.2183308601379395,-6.458284378051758,-3.689539670944214
1761399815714532000,6.049531982421875,5.052962779998779,-6.5347490310668945,-4.616469860076904
1761399815724614000,6.05961376953125,7.911489963531494,-7.194725513458252,-5.851279258728027
1761399815734678500,6.069678466796875,8.878223419189453,-9.047538757324219,-7.181258201599121
1761399815744777700,6.07977783203125,7.382521152496338,-11.563096046447754,-8.52066421508789
1761399815754857700,6.089857666015625,6.948721408843994,-14.340519905090332,-10.119916915893555
1761399815764939500,6.099939453125,6.331316947937012,-16.26239013671875,-10.895787239074707
1761399815775025400,6.110025390625,5.94637393951416,-15.442002296447754,-9.863737106323242
1761399815785090000,6.120090087890625,5.564124584197998,-12.633304595947266,-8.814104080200195
1761399815795180300,6.13018017578125,4.792742729187012,-10.270750999450684,-7.519588947296143
1761399815805251800,6.140251953125,4.734234809875488,-8.363020896911621,-6.08860445022583
1761399815815344000,6.15034423828125,4.866439342498779,-6.74498987197876,-4.8692827224731445
1761399815825425000,6.1604248046875,4.996025562286377,-5.567416667938232,-3.492392063140869
1761399815835494100,6.170494140625,4.488529682159424,-5.30308198928833,-2.895188331604004
1761399815845586700,6.180586669921875,4.914248466491699,-6.814870834350586,-3.046696424484253
1761399815855666400,6.19066650390625,5.48967981338501,-9.977760314941406,-2.3953239917755127
1761399815865749200,6.200749267578125,5.175441265106201,-12.908638000488281,-0.9841665625572205
1761399815875829800,6.210829833984375,2.5766098499298096,-14.317176818847656,-1.4150480031967163
1761399815885911000,6.2209111328125,-2.62823486328125,-12.798205375671387,-3.039738416671753
1761399815895991800,6.23099169921875,-5.064185619354248,-9.714024543762207,-3.2551417350769043
1761399815906073000,6.241072998046875,-3.555913209915161,-7.446042060852051,-2.625765800476074
1761399815916138500,6.251138427734375,-1.6870143413543701,-7.069553852081299,-1.8290952444076538
1761399815926223600,6.2612236328125,-1.102829098701477,-8.19460391998291,-1.5285481214523315
1761399815936316200,6.271316162109375,-1.333645224571228,-8.949301719665527,-1.205106496810913
1761399815946384400,6.28138427734375,-1.387813925743103,-8.71609115600586,-0.5121347308158875
1761399815956478000,6.29147802734375,-0.8120084404945374,-7.9864583015441895,-0.14163199067115784
1761399815966558700,6.301558837890625,-0.7153425812721252,-7.830610752105713,-0.5639092922210693
1761399815976626700,6.311626708984375,-1.7816601991653442,-8.634015083312988,-1.6157869100570679
1761399815986707700,6.321707763671875,-2.6179099082946777,-10.699912071228027,-2.8255321979522705
1761399815996801800,6.3318017578125,-2.6263644695281982,-13.199981689453125,-3.9374890327453613
1761399816006879700,6.341879638671875,-1.7595137357711792,-14.216245651245117,-4.58848762512207
1761399816016963800,6.3519638671875,-1.178321361541748,-12.058771133422852,-4.284873008728027
1761399816027044000,6.362044189453125,-0.9317933917045593,-10.064176559448242,-3.7678749561309814
1761399816037125600,6.372125732421875,-0.8172457814216614,-9.03294849395752,-3.737199306488037
1761399816047192600,6.382192626953125,-0.3745429217815399,-8.160037994384766,-3.141566753387451
1761399816057287700,6.39228759765625,-0.09898527711629868,-8.29935073852539,-2.6459670066833496
1761399816067368400,6.402368408203125,-0.09105448424816132,-8.688782691955566,-1.9688568115234375
1761399816077449500,6.412449462890625,-0.30122050642967224,-9.24019718170166,-1.5199439525604248
1761399816087530000,6.422530029296875,-0.40963295102119446,-9.7181396484375,-1.447893500328064
1761399816097598500,6.432598388671875,-0.7483376860618591,-9.617657661437988,-1.5998504161834717
1761399816107692300,6.4426923828125,-0.9623194336891174,-9.099837303161621,-1.676913857460022
1761399816117761000,6.452760986328125,-1.4071919918060303,-8.464775085449219,-1.8512415885925293
1761399816127854300,6.462854248046875,-1.7170915603637695,-8.097713470458984,-2.3279123306274414
1761399816137936400,6.472936279296875,-2.177227258682251,-8.01608657836914,-3.1326632499694824
1761399816148016400,6.483016357421875,-2.4165725708007812,-8.114398002624512,-3.934795618057251
1761399816158097200,6.49309716796875,-2.1995980739593506,-8.276905059814453,-4.587141036987305
1761399816168168000,6.50316796875,-1.7765724658966064,-8.29239273071289,-4.817358493804932
1761399816178257400,6.51325732421875,-1.313219666481018,-8.120159149169922,-4.87526798248291
1761399816188329700,6.523329833984375,-0.9116671085357666,-7.915754318237305,-4.726303577423096
1761399816198421000,6.5334208984375,-0.7011269927024841,-7.824026584625244,-4.486060619354248
1761399816208493300,6.543493408203125,-0.353743314743042,-7.977779388427734,-4.0955810546875
1761399816218571800,6.55357177734375,0.009202713146805763,-8.195801734924316,-3.878906011581421
1761399816228663600,6.56366357421875,0.24114100635051727,-8.454898834228516,-3.726275682449341
1761399816238732500,6.573732666015625,0.11843816190958023,-8.142081260681152,-3.149198293685913
1761399816248800000,6.583800048828125,-0.5446808934211731,-8.976460456848145,-3.7504420280456543
1761399816258881500,6.593881591796875,-1.0804582834243774,-9.43839168548584,-4.036324977874756
1761399816268962300,6.60396240234375,-1.023072361946106,-9.06063175201416,-3.051409959793091
1761399816279043600,6.614043701171875,-0.7508066892623901,-9.02359676361084,-2.484433174133301
1761399816289118500,6.624118408203125,-0.2712181508541107,-9.104101181030273,-2.4293665885925293
1761399816299193900,6.63419384765625,0.20732291042804718,-8.992846488952637,-2.813486337661743
1761399816309285000,6.64428515625,0.17956513166427612,-8.62391471862793,-3.7019596099853516
1761399816319376100,6.654376220703125,-0.3440168499946594,-8.438288688659668,-4.7695488929748535
1761399816329457400,6.66445751953125,-0.979602575302124,-8.68481731414795,-5.882628440856934
1761399816339553500,6.674553466796875,-1.642497181892395,-9.033622741699219,-6.602086067199707
1761399816349633500,6.684633544921875,-1.6558148860931396,-8.826074600219727,-6.3669304847717285
1761399816359704300,6.694704345703125,-0.9234884977340698,-8.815001487731934,-5.542876243591309
1761399816369783800,6.70478369140625,-0.4209305942058563,-9.152210235595703,-4.76580810546875
1761399816379878400,6.71487841796875,-0.4589385390281677,-9.60179615020752,-4.400542736053467
1761399816389954800,6.724954833984375,-0.7084592580795288,-9.971101760864258,-4.528782367706299
1761399816400040400,6.73504052734375,-0.7802104949951172,-9.884162902832031,-4.881328582763672
1761399816410121000,6.745120849609375,-0.5205144286155701,-9.466448783874512,-4.892027378082275
1761399816420202500,6.755202392578125,0.38075289130210876,-8.754323959350586,-4.003180027008057
1761399816430254300,6.76525439453125,0.9196727275848389,-9.169717788696289,-4.194865703582764
1761399816440360200,6.775360107421875,1.0452934503555298,-9.807323455810547,-4.400617599487305
1761399816450445000,6.785445068359375,0.4365677237510681,-10.036643028259277,-4.410867691040039
1761399816460526600,6.795526611328125,-0.13377602398395538,-10.783634185791016,-5.3622636795043945
1761399816470607600,6.805607666015625,0.6384288668632507,-11.372308731079102,-5.780276298522949
1761399816480696000,6.815696044921875,0.36908116936683655,-11.329811096191406,-5.990890979766846
1761399816490756900,6.8257568359375,-0.7268646955490112,-10.456825256347656,-5.593827724456787
1761399816500848400,6.835848388671875,-1.0709563493728638,-10.28010368347168,-5.365630626678467
1761399816510935000,6.84593505859375,0.2406172752380371,-11.063082695007324,-4.477381706237793
1761399816521003300,6.856003173828125,2.416123628616333,-12.411691665649414,-2.24127197265625
1761399816531093000,6.866093017578125,3.855562448501587,-14.218415260314941,0.5365256667137146
1761399816541173800,6.876173828125,3.691110849380493,-15.850737571716309,2.1140053272247314
1761399816551255300,6.88625537109375,2.9671640396118164,-16.645837783813477,3.020435094833374
1761399816561334000,6.896333984375,1.9768624305725098,-16.76674461364746,3.6424038410186768
1761399816571417000,6.9064169921875,0.7854477763175964,-16.377012252807617,3.4548330307006836
1761399816581485000,6.916485107421875,-0.09546878933906555,-15.178116798400879,2.265662908554077
1761399816591579000,6.926578857421875,0.06905775517225266,-13.581632614135742,0.13676877319812775
1761399816601660000,6.936659912109375,1.1948562860488892,-12.219706535339355,-2.2101473808288574
1761399816611741200,6.9467412109375,1.8224364519119263,-11.047595024108887,-4.412289142608643
1761399816621822000,6.956822021484375,1.325789213180542,-9.672499656677246,-6.09937858581543
1761399816631891200,6.96689111328125,1.28733229637146,-8.867000579833984,-7.068431377410889
1761399816641983500,6.9769833984375,1.0060136318206787,-8.395342826843262,-6.668150901794434
1761399816652064800,6.987064697265625,0.4365677237510681,-8.114249229431152,-5.815590858459473
1761399816662124500,6.99712451171875,1.1393407583236694,-8.216825485229492,-5.2178635597229
1761399816672226600,7.0072265625,0.8253262042999268,-8.445097923278809,-4.054954528808594
1761399816682307300,7.017307373046875,0.6215198040008545,-8.647706985473633,-2.7106852531433105
1761399816692387000,7.027386962890625,0.36242228746414185,-8.578574180603027,-1.371503472328186
1761399816702456300,7.037456298828125,0.10527005791664124,-8.073697090148926,-0.8322095274925232
1761399816712551200,7.04755126953125,-0.17492635548114777,-7.784522533416748,-0.5237316489219666
1761399816722631400,7.05763134765625,-0.2124105840921402,-7.618873596191406,-0.21757307648658752
1761399816732712700,7.067712646484375,0.08394669741392136,-7.2072954177856445,-0.14365209639072418
1761399816742793000,7.07779296875,0.7572411298751831,-6.779481410980225,0.3701286315917969
1761399816752873700,7.087873779296875,1.4356980323791504,-6.524124622344971,1.2716951370239258
1761399816762941000,7.09794091796875,1.6629974842071533,-6.163049221038818,1.4715362787246704
1761399816773036300,7.108036376953125,1.581594705581665,-5.651064395904541,0.9780313968658447
1761399816783120100,7.1181201171875,1.4975731372833252,-5.540032863616943,0.8254010081291199
1761399816793198000,7.128197998046875,1.141585350036621,-5.482123374938965,0.468889445066452
1761399816803267000,7.13826708984375,0.6741922497749329,-5.3559041023254395,0.056488197296857834
1761399816813361700,7.148361572265625,0.6150853633880615,-5.448454856872559,-0.236277773976326
1761399816823431000,7.158430908203125,0.40686464309692383,-5.557989597320557,-1.0024223327636719
1761399816833503000,7.1685029296875,0.16228199005126953,-5.731344699859619,-1.992200255393982
1761399816843603000,7.17860302734375,0.22453123331069946,-5.904400825500488,-2.7982232570648193
1761399816853684000,7.18868408203125,0.5792471766471863,-5.758578777313232,-3.202394485473633
1761399816863747600,7.19874755859375,0.9079262018203735,-5.340416431427002,-3.2909798622131348
1761399816873846500,7.208846435546875,1.3794342279434204,-4.979116439819336,-3.2736217975616455
1761399816883914800,7.218914794921875,2.090212821960449,-4.986523628234863,-3.491943120956421
1761399816893996300,7.228996337890625,3.0928597450256348,-5.3407158851623535,-3.988889694213867
1761399816904089300,7.23908935546875,4.411540985107422,-6.169408798217773,-4.999841213226318
1761399816914169900,7.249169921875,6.175843238830566,-7.771204471588135,-6.550161838531494
1761399816924251100,7.259251220703125,7.2748565673828125,-10.352453231811523,-8.480337142944336
1761399816934332200,7.269332275390625,6.551433563232422,-13.708151817321777,-10.733205795288086
1761399816944391700,7.2793916015625,5.609015941619873,-16.215553283691406,-12.726902961730957
1761399816954490400,7.289490478515625,5.5481133460998535,-15.713220596313477,-12.654253959655762
1761399816964572200,7.299572265625,4.888286590576172,-12.690391540527344,-10.759018898010254
1761399816974653000,7.30965283203125,3.5335423946380615,-9.9586820602417,-8.840439796447754
1761399816984723700,7.3197236328125,2.851344585418701,-8.422950744628906,-8.447042465209961
1761399816994817500,7.329817626953125,3.2864158153533936,-7.132027626037598,-7.856872081756592
1761399817004886800,7.33988671875,3.618910789489746,-5.659070014953613,-6.448333263397217
1761399817014977300,7.349977294921875,4.023680210113525,-5.09224271774292,-4.279411315917969
1761399817025060400,7.360060302734375,4.164414405822754,-7.484124660491943,-3.4852094650268555
1761399817035128600,7.370128662109375,4.730418682098389,-11.427450180053711,-2.4257004261016846
1761399817045216300,7.38021630859375,4.599710464477539,-14.758682250976562,-0.5740846991539001
1761399817055303400,7.390303466796875,2.257133722305298,-15.970671653747559,0.2588730454444885
1761399817065384200,7.40038427734375,-1.8387469053268433,-14.23263168334961,-0.6129156351089478
1761399817075463000,7.410462890625,-2.946289539337158,-10.269104957580566,-1.118017315864563
1761399817085544400,7.42054443359375,-0.6221931576728821,-7.037082672119141,-1.0740987062454224
1761399817095627000,7.430626953125,0.22685061395168304,-6.710947513580322,-0.7297077775001526
1761399817105708300,7.440708251953125,-0.2704699635505676,-7.573533535003662,-0.5885995030403137
1761399817115788800,7.450788818359375,-0.5948094725608826,-8.891840934753418,-0.560916543006897
1761399817125857500,7.460857421875,-0.49896660447120667,-9.127894401550293,-0.3256114423274994
1761399817135940400,7.4709404296875,-0.44659343361854553,-8.484676361083984,-0.2596212327480316
1761399817146031900,7.481031982421875,-1.2845640182495117,-8.215478897094727,-0.530614972114563
1761399817156111600,7.491111572265625,-2.804208755493164,-8.962993621826172,-1.3664158582687378
1761399817166193700,7.501193603515625,-4.062586307525635,-10.518850326538086,-2.479569911956787
1761399817176275000,7.51127490234375,-4.190825462341309,-12.006622314453125,-3.8044612407684326
1761399817186356000,7.52135595703125,-3.212794303894043,-12.416704177856445,-4.8332200050354
1761399817196412700,7.53141259765625,-2.5194482803344727,-11.0393648147583,-5.223773956298828
1761399817206518000,7.54151806640625,-2.0037224292755127,-9.7042236328125,-5.386505126953125
1761399817216598800,7.551598876953125,-1.049857497215271,-8.860342025756836,-5.18052864074707
1761399817226659800,7.561659912109375,-0.15898995101451874,-8.14372730255127,-4.195988178253174
1761399817236761000,7.571760986328125,0.22288522124290466,-8.197148323059082,-3.1980550289154053
1761399817246841300,7.58184130859375,0.4097077548503876,-8.560393333435059,-2.103306293487549
1761399817256915700,7.591915771484375,0.2991255819797516,-9.009979248046875,-1.2697498798370361
1761399817266982400,7.601982421875,-0.08245032280683517,-9.460014343261719,-0.8286930918693542
1761399817277084400,7.61208447265625,-0.6815244555473328,-9.709385871887207,-0.8068459630012512
1761399817287165700,7.622165771484375,-1.1098620891571045,-9.587281227111816,-1.141286015510559
1761399817297233700,7.632233642578125,-1.472059965133667,-9.371728897094727,-1.9461866617202759
1761399817307328000,7.642327880859375,-1.761085033416748,-9.112107276916504,-2.892270565032959
1761399817317408500,7.652408447265625,-1.9351882934570312,-8.774524688720703,-3.6494367122650146
1761399817327487700,7.66248779296875,-2.0726304054260254,-8.48437786102295,-4.461220741271973
1761399817337557800,7.672557861328125,-2.078166961669922,-8.216825485229492,-4.675426959991455
1761399817347651000,7.682651123046875,-1.8239327669143677,-8.038532257080078,-4.664802551269531
1761399817357732600,7.692732666015625,-1.5055787563323975,-7.953762531280518,-4.712911128997803
1761399817367803400,7.702803466796875,-1.0324994325637817,-7.979200839996338,-4.74268913269043
1761399817377894400,7.712894287109375,-0.5467758178710938,-8.065017700195312,-4.556015968322754
1761399817387973400,7.722973388671875,-0.23605331778526306,-8.180014610290527,-4.356025695800781
1761399817398043600,7.733043701171875,-0.13856442272663116,-8.27159309387207,-4.211026668548584
1761399817408128300,7.743128173828125,-0.024091655388474464,-8.301445007324219,-4.160523891448975
1761399817418217700,7.7532177734375,-0.13033436238765717,-8.702624320983887,-4.382660865783691
1761399817428299000,7.763299072265625,-0.29807811975479126,-8.805500030517578,-4.277690410614014
1761399817438383900,7.7733837890625,-0.5149030089378357,-8.942941665649414,-3.9760208129882812
1761399817448457000,7.78345703125,-0.5490952134132385,-9.154454231262207,-3.75597882270813
1761399817458540300,7.793540283203125,-0.6584802865982056,-9.141061782836914,-3.4357542991638184
1761399817468623400,7.803623291015625,-0.6545149087905884,-9.171737670898438,-3.3203835487365723
1761399817478700300,7.8137001953125,-0.5654056668281555,-8.976236343383789,-3.446977138519287
1761399817488772000,7.823772216796875,-0.544456422328949,-8.816722869873047,-3.7193922996520996
1761399817498866000,7.833865966796875,-0.6072294116020203,-8.432453155517578,-4.107028484344482
1761399817508934100,7.84393408203125,-0.7331494688987732,-8.278251647949219,-4.623502731323242
1761399817519025700,7.854025634765625,-1.2944401502609253,-8.046163558959961,-4.883647918701172
1761399817529108500,7.8641083984375,-1.2936171293258667,-8.368483543395996,-4.859406471252441
1761399817539190300,7.874190185546875,-1.0936264991760254,-8.880468368530273,-4.546663761138916
1761399817549258500,7.884258544921875,-0.48879122734069824,-9.465102195739746,-3.586364507675171
1761399817559351800,7.894351806640625,-0.4324526786804199,-9.993098258972168,-2.987888813018799
1761399817569432800,7.904432861328125,-0.7392845749855042,-10.110115051269531,-3.0441527366638184
1761399817579499000,7.9144990234375,-1.0779893398284912,-9.75981330871582,-3.7059998512268066
1761399817589590500,7.924590576171875,-1.2184242010116577,-9.26915168762207,-4.3640313148498535
1761399817599673300,7.93467333984375,-0.9457845091819763,-9.022773742675781,-4.604797840118408
1761399817609756200,7.944756103515625,-0.5054010152816772,-8.947056770324707,-4.599785327911377
1761399817619837200,7.954837158203125,-0.2736871838569641,-8.915483474731445,-4.067598819732666
1761399817639986700,7.974986572265625,-0.8572738170623779,-8.785223960876465,-4.265270233154297
1761399817650056700,7.985056640625,-1.523011565208435,-9.482460021972656,-5.371990203857422
1761399817660161500,7.99516162109375,-1.2891279458999634,-10.229525566101074,-6.343661785125732
1761399817670242800,8.005242919921875,-0.3860650360584259,-9.98636531829834,-6.2468461990356445
1761399817680323600,8.015323486328125,-0.34753334522247314,-9.819818496704102,-6.571186065673828
1761399817690401300,8.0254013671875,-0.5414636731147766,-10.197652816772461,-6.921637058258057
1761399817700472300,8.035472412109375,-0.23418284952640533,-10.966341972351074,-6.531232833862305
1761399817710566700,8.045566650390626,0.3711012601852417,-11.716923713684082,-5.217040538787842
1761399817720643300,8.055643310546875,1.353472113609314,-11.821894645690918,-3.2661399841308594
1761399817730728700,8.065728759765625,2.321178436279297,-12.047024726867676,-1.5378257036209106
1761399817740808700,8.07580859375,3.0131776332855225,-12.78271770477295,-0.21712416410446167
1761399817750877200,8.085877197265624,3.068842887878418,-13.788432121276855,0.9674071073532104
1761399817760970800,8.095970703125,2.493486166000366,-14.562657356262207,1.966761827468872
1761399817771039200,8.106039306640625,1.8444331884384155,-14.782474517822266,2.4655039310455322
1761399817781130200,8.116130126953125,1.1661258935928345,-14.142399787902832,2.3698108196258545
1761399817791213600,8.126213623046874,0.604461133480072,-12.828282356262207,1.3634978532791138
1761399817801282300,8.1362822265625,0.13946224749088287,-11.490073204040527,-0.06853402405977249
1761399817811376000,8.146376220703125,0.300921231508255,-10.784457206726074,-1.7769465446472168
1761399817821445600,8.156445556640625,0.9874585866928101,-10.78116512298584,-3.5668368339538574
1761399817831524600,8.166524658203125,1.252017855644226,-10.959458351135254,-5.0364274978637695
1761399817841616400,8.176616455078126,1.4066683053970337,-10.532691955566406,-5.765911102294922
1761399817851699700,8.18669970703125,1.3172597885131836,-9.644742012023926,-6.042815685272217
1761399817861780200,8.1967802734375,0.8107365369796753,-8.820089340209961,-5.984830856323242
1761399817871861500,8.206861572265625,0.6896049380302429,-7.927201747894287,-5.473294734954834
1761399817881942500,8.216942626953125,0.7912836670875549,-7.2871270179748535,-4.597316265106201
1761399817892011000,8.227010986328125,0.7434744238853455,-6.98859977722168,-3.827580213546753
1761399817902105000,8.23710498046875,0.9901520609855652,-7.129558563232422,-3.1460559368133545
1761399817912171000,8.2471708984375,1.2234370708465576,-7.462053298950195,-2.6676645278930664
1761399817922266600,8.2572666015625,1.1964274644851685,-7.684863567352295,-2.34841251373291
1761399817932339700,8.267339599609375,0.8838345408439636,-7.628450393676758,-2.769717216491699
1761399817942416000,8.277415771484375,1.5670050382614136,-7.532308101654053,-2.907982349395752
1761399817952509400,8.287509521484376,2.1238064765930176,-7.867197036743164,-1.8543092012405396
1761399817962583300,8.297583251953125,2.255188465118408,-7.874828815460205,-1.4698902368545532
1761399817972669400,8.30766943359375,2.3541736602783203,-7.6104936599731445,-1.616834282875061
1761399817982728200,8.317728271484375,2.3562686443328857,-7.22981595993042,-1.9573347568511963
1761399817992832800,8.327832763671875,2.3180360794067383,-7.1309051513671875,-2.3757214546203613
1761399818002921700,8.337921630859375,2.261173963546753,-6.986056327819824,-2.646266222000122
1761399818012994800,8.347994873046876,2.217928647994995,-6.787935733795166,-3.1266777515411377
1761399818023076400,8.358076416015624,2.0713586807250977,-6.392443656921387,-3.6756234169006348
1761399818033144600,8.36814453125,2.007612943649292,-5.985205173492432,-4.042085647583008
1761399818043235800,8.37823583984375,1.9024925231933594,-5.723863124847412,-4.231078147888184
1761399818053306600,8.388306640625,1.947907567024231,-5.6191911697387695,-4.213196277618408
1761399818063399700,8.398399658203125,2.0596868991851807,-5.395333766937256,-4.077549934387207
1761399818073466400,8.40846630859375,2.2719478607177734,-5.399074554443359,-4.017919540405273
1761399818083549700,8.4185498046875,2.7012581825256348,-5.555445671081543,-4.0084919929504395
1761399818093631500,8.428631591796876,3.3347489833831787,-5.678597450256348,-4.128800868988037
1761399818103722000,8.438721923828124,3.942876100540161,-5.859734058380127,-4.553322792053223
1761399818113805000,8.44880517578125,4.330362796783447,-6.051868438720703,-5.083713054656982
1761399818123899000,8.45889892578125,4.2705078125,-6.286425590515137,-5.554472923278809
1761399818133966800,8.468966796875,3.974973440170288,-6.624082565307617,-5.955352306365967
1761399818144047600,8.479047607421874,3.6448729038238525,-7.160907745361328,-6.2312092781066895
1761399818154115800,8.48911572265625,3.6947021484375,-7.79604434967041,-6.453046798706055
1761399818164207600,8.49920751953125,4.14907693862915,-8.273388862609863,-6.526219844818115
1761399818174290400,8.50929052734375,4.66098690032959,-8.472929954528809,-6.225597858428955
1761399818184364800,8.51936474609375,5.041590213775635,-8.624887466430664,-5.3127336502075195
1761399818194434300,8.529434326171875,5.097105979919434,-8.753575325012207,-3.9962966442108154
1761399818204531200,8.53953125,4.822520732879639,-9.122057914733887,-2.6403555870056152
1761399818214613000,8.549613037109374,4.370914459228516,-9.908702850341797,-1.687986969947815
1761399818224693000,8.55969287109375,3.9661448001861572,-10.405200958251953,-1.0755202770233154
1761399818234774500,8.5697744140625,3.604919672012329,-10.021903991699219,-0.6059575080871582
1761399818244857000,8.579857177734375,3.3224036693573,-9.069535255432129,-0.12262801826000214
1761399818254940200,8.589940185546874,3.7725136280059814,-8.150760650634766,0.39384618401527405
1761399818265019100,8.60001904296875,5.077353477478027,-8.35568904876709,1.0681880712509155
1761399818275112400,8.610112548828125,6.499210357666016,-11.386075019836426,1.2562825679779053
1761399818285179100,8.62017919921875,6.663362503051758,-16.34050178527832,-1.5181483030319214
1761399818295249700,8.630249755859374,2.97666597366333,-19.529502868652344,-5.783867359161377
1761399818305330400,8.640330322265624,-0.030526071786880493,-17.85565757751465,-7.7067108154296875
1761399818315424000,8.650424072265626,-0.41292497515678406,-11.19244384765625,-8.809615135192871
1761399818325481000,8.66048095703125,-0.7763199210166931,-6.2107834815979,-9.411457061767578
1761399818335574500,8.670574462890626,-1.5693243741989136,-4.2672905921936035,-8.120758056640625
1761399818345667300,8.680667236328125,-2.3254432678222656,-4.065279483795166,-5.650914669036865
1761399818355745500,8.69074560546875,-2.9555671215057373,-4.941258430480957,-3.4007389545440674
1761399818365816000,8.700816162109374,-3.320608139038086,-6.188337802886963,-2.039635419845581
1761399818385978600,8.720978515625,-2.473883628845215,-8.845827102661133,-2.732083320617676
1761399818396069600,8.731069580078126,-1.3466635942459106,-10.031929969787598,-4.081739902496338
1761399818406140200,8.74114013671875,-0.909721851348877,-10.610054016113281,-5.8739495277404785
1761399818416231700,8.751231689453125,-0.8850316405296326,-10.231097221374512,-6.746561050415039
1761399818426315000,8.76131494140625,-1.1392658948898315,-9.381080627441406,-6.257844924926758
1761399818436385300,8.77138525390625,-1.2066028118133545,-8.731653213500977,-4.7928924560546875
1761399818446476500,8.7814765625,-0.9571569561958313,-8.563611030578613,-3.3242743015289307
1761399818456557600,8.7915576171875,-0.3123685121536255,-8.79584789276123,-2.0574421882629395
1761399818466636500,8.801636474609374,0.6218190789222717,-9.184307098388672,-0.9470564126968384
1761399818476717600,8.811717529296875,1.2647370100021362,-9.443479537963867,-0.8057236671447754
1761399818486788000,8.8217880859375,1.4755016565322876,-9.652373313903809,-1.6566379070281982
1761399818496881400,8.83188134765625,1.5662568807601929,-9.709310531616211,-2.5124902725219727
1761399818506962000,8.8419619140625,1.4991443157196045,-9.67579174041748,-3.2766895294189453
1761399818517031000,8.852031005859375,1.4302362203598022,-9.66531753540039,-3.926041841506958
1761399818527107000,8.862107177734375,1.1599159240722656,-9.529746055603027,-4.4665327072143555
1761399818537200600,8.87220068359375,0.9165303111076355,-9.138294219970703,-4.456582069396973
1761399818547273700,8.882273681640624,0.8176198601722717,-8.713472366333008,-4.240355491638184
1761399818557367000,8.892366943359375,0.7924807667732239,-8.443002700805664,-4.013355255126953
1761399818567448300,8.9024482421875,0.6024410128593445,-8.347683906555176,-3.8890814781188965
1761399818577528800,8.91252880859375,0.3032405972480774,-8.378358840942383,-3.7930140495300293
1761399818587609900,8.92260986328125,0.020051438361406326,-8.517746925354004,-3.699864625930786
1761399818597669600,8.932669677734374,-0.13093291223049164,-8.627281188964844,-3.57521653175354
1761399818607757000,8.942757080078126,-0.043095629662275314,-8.55373477935791,-3.723881483078003
1761399818617853400,8.952853515625,0.06097732484340668,-8.27518367767334,-4.102763652801514
1761399818627934200,8.962934326171874,0.08297405391931534,-8.003517150878906,-4.61205530166626
1761399818638002200,8.973002197265625,0.01885433867573738,-7.948375701904297,-5.099350452423096
1761399818648095700,8.983095703125,-0.15667057037353516,-8.119261741638184,-5.268590450286865
1761399818658164200,8.993164306640624,-0.2891746759414673,-8.537050247192383,-5.004704475402832
1761399818668258000,9.003258056640625,-0.18824410438537598,-9.009231567382812,-4.486135482788086
1761399818678336800,9.013336669921875,-0.0751928985118866,-9.262866973876953,-4.041636943817139
1761399818688419800,9.023419921875,0.01818096823990345,-9.331027030944824,-3.7793221473693848
1761399818698500900,9.0335009765625,0.21869535744190216,-9.1963529586792,-3.5639936923980713
1761399818708573400,9.043573486328125,0.20852001011371613,-9.122282981872559,-3.620781183242798
1761399818718663000,9.053662841796875,0.057311203330755234,-9.271620750427246,-3.7300167083740234
1761399818728743400,9.063743408203125,-0.11581950634717941,-9.175029754638672,-3.9258923530578613
1761399818738823000,9.073822998046875,-0.10130465775728226,-9.441609382629395,-4.262876033782959
1761399818748893200,9.08389306640625,-0.1182137057185173,-9.66419506072998,-4.433163642883301
1761399818758967800,9.0939677734375,-0.20859482884407043,-9.696292877197266,-4.334403038024902
1761399818769068000,9.104068115234375,-0.37888240814208984,-9.858125686645508,-4.0816650390625
1761399818779148000,9.11414794921875,-0.4043956398963928,-9.777022361755371,-3.6039469242095947
1761399818789229600,9.1242294921875,-0.36578911542892456,-9.123254776000977,-3.1572787761688232
1761399818799301600,9.134301513671875,-0.4701613485813141,-8.116493225097656,-3.5401265621185303
1761399818809392000,9.14439208984375,-0.361299991607666,-7.409380912780762,-4.018667697906494
1761399818819472600,9.15447265625,-0.735319197177887,-7.594707012176514,-4.491447448730469
1761399818829552000,9.16455224609375,-1.116895079612732,-8.662969589233398,-4.709619045257568
1761399818839613200,9.17461328125,-0.9784054756164551,-9.405022621154785,-4.380341529846191
1761399818849703700,9.18470361328125,-0.5718401074409485,-10.437671661376953,-4.0563764572143555
1761399818859796500,9.19479638671875,-0.06150105595588684,-11.286341667175293,-3.616516590118408
1761399818869865200,9.204865234375,0.2406172752380371,-10.986093521118164,-3.3470940589904785
1761399818879958300,9.214958251953124,0.4356698989868164,-10.332850456237793,-3.512967348098755
1761399818890039000,9.2250390625,0.33279404044151306,-9.965116500854492,-3.9332993030548096
1761399818900107500,9.235107421875,0.26096799969673157,-10.003049850463867,-4.458751678466797
1761399818910200600,9.24520068359375,0.5370493531227112,-10.368090629577637,-5.061716556549072
1761399818920282000,9.2552822265625,1.1065701246261597,-10.62928295135498,-5.76097297668457
1761399818930348000,9.26534814453125,1.2256816625595093,-10.9400053024292,-6.464344501495361
1761399818940444000,9.27544384765625,0.7445967197418213,-10.307861328125,-6.51409912109375
1761399818950524700,9.285524658203125,0.4489876329898834,-9.570672035217285,-6.288295745849609
1761399818970675700,9.30567578125,0.7129483819007874,-9.009156227111816,-4.821024417877197
1761399818980768000,9.31576806640625,0.9627683758735657,-9.09265422821045,-4.126256942749023
1761399818990844200,9.32584423828125,1.1201871633529663,-9.958756446838379,-4.072761535644531
1761399819000925200,9.33592529296875,0.5573252439498901,-10.589404106140137,-3.81882643699646
1761399819011010800,9.3460107421875,0.07377134263515472,-10.745924949645996,-3.708543539047241
1761399819021078800,9.356078857421876,-0.10736498236656189,-10.42547607421875,-3.410839557647705
1761399819031172900,9.3661728515625,-0.2255786955356598,-9.973496437072754,-3.162740468978882
1761399819041241300,9.376241455078125,-0.3107973039150238,-9.437494277954102,-3.405751943588257
1761399819051334400,9.38633447265625,-0.2588730454444885,-8.986186981201172,-3.994201898574829
1761399819061413000,9.3964130859375,-0.372148722410202,-8.882862091064453,-4.753687381744385
1761399819081577500,9.416577392578125,-1.016338586807251,-8.62511157989502,-5.6594438552856445
1761399819091654400,9.426654296875,-1.4273183345794678,-8.683171272277832,-6.2981719970703125
1761399819101739300,9.4367392578125,-1.2898762226104736,-8.915034294128418,-6.945728778839111
1761399819111817500,9.4468173828125,-0.814253032207489,-9.129165649414062,-7.04217004776001
1761399819121899300,9.456899169921876,-0.7151929140090942,-9.189544677734375,-6.980594158172607
1761399819131980800,9.466980712890624,-0.6827215552330017,-9.077466011047363,-6.551957607269287
1761399819142063000,9.47706298828125,-0.7856722474098206,-9.15048885345459,-5.847164154052734
1761399819152144600,9.48714453125,-0.7834277153015137,-9.384073257446289,-5.201852321624756
1761399819162196000,9.497196044921875,-0.8497171401977539,-9.167248725891113,-4.912752151489258
1761399819172306200,9.50730615234375,-0.949001669883728,-9.01087760925293,-4.281056880950928
1761399819182386400,9.517386474609374,-0.9648633003234863,-8.987908363342285,-3.7859811782836914
1761399819192464100,9.527464111328126,-0.7983914613723755,-8.879196166992188,-3.5404257774353027
1761399819202538200,9.537538330078124,-0.5862801671028137,-9.044770240783691,-3.275118350982666
1761399819212629800,9.547629638671875,-0.620771586894989,-9.224783897399902,-3.368417263031006
1761399819222710800,9.557710693359375,-0.9136872291564941,-9.419463157653809,-3.7451300621032715
1761399819232786200,9.5677861328125,-1.2062287330627441,-9.679383277893066,-3.983278274536133
1761399819242873000,9.577873046875,-1.2310686111450195,-9.794380187988281,-4.251054763793945
1761399819252948500,9.587948486328125,-1.2015899419784546,-9.306262016296387,-4.838681697845459
1761399819263035100,9.59803515625,-1.0045171976089478,-9.094524383544922,-4.933926105499268
1761399819273115400,9.608115478515625,-0.7666682600975037,-8.848146438598633,-5.154417037963867
1761399819283184000,9.61818408203125,-0.5358522534370422,-8.69409465789795,-4.938938617706299
1761399819293270000,9.62827001953125,-0.3439420461654663,-8.670975685119629,-4.671236991882324
1761399819303346200,9.63834619140625,-0.07175122946500778,-9.123254776000977,-4.082787036895752
1761399819313427200,9.64842724609375,-0.0003740940010175109,-9.355118751525879,-3.990161657333374
1761399819323518700,9.658518798828124,0.13123218715190887,-9.647884368896484,-3.666869640350342
1761399819333601300,9.668601318359375,0.2932897210121155,-10.367267608642578,-3.325172185897827
1761399819343682800,9.678682861328125,0.49058690667152405,-10.240823745727539,-3.4228105545043945
1761399819353761800,9.68876171875,0.42272624373435974,-9.88161849975586,-3.355099678039551
1761399819363833900,9.698833740234376,0.5134066343307495,-9.580697059631348,-3.012354612350464
1761399819373925400,9.70892529296875,0.47667059302330017,-9.201141357421875,-2.9320740699768066
1761399819384004600,9.719004638671874,0.539518415927887,-8.742801666259766,-2.4595932960510254
1761399819394087700,9.729087646484375,0.7478139400482178,-8.279000282287598,-1.9688568115234375
1761399819404168200,9.739168212890625,0.9519944787025452,-7.770082473754883,-1.599326729774475
1761399819414249500,9.74924951171875,1.1807903051376343,-7.375039100646973,-1.2478280067443848
1761399819424319500,9.759319580078126,1.386991024017334,-7.050175666809082,-1.0394576787948608
1761399819434411300,9.769411376953125,1.5591490268707275,-6.658574104309082,-0.9972598552703857
1761399819444489000,9.779489013671874,1.7015292644500732,-6.360870361328125,-1.1165210008621216
1761399819454571000,9.789571044921875,1.7950527667999268,-6.213327407836914,-1.3670144081115723
1761399819464640300,9.79964013671875,1.8137574195861816,-6.124742031097412,-1.7691653966903687
1761399819474735400,9.8097353515625,1.6888848543167114,-5.989469528198242,-2.3237223625183105
1761399819484816400,9.81981640625,1.562441110610962,-5.897891521453857,-3.049689292907715
1761399819494873000,9.829873046875,1.492709994316101,-5.927818775177002,-3.9282116889953613
1761399819504969500,9.839969482421875,1.3686603307724,-6.202029705047607,-4.9776201248168945
1761399819515033300,9.850033447265625,1.246780514717102,-6.7048869132995605,-6.056058406829834
1761399819525108000,9.86010791015625,1.3036428689956665,-7.427861213684082,-6.947823524475098
1761399819535201300,9.870201171875,1.3961188793182373,-8.412252426147461,-7.612064838409424
1761399819545276200,9.880276123046874,1.5754594802856445,-9.521739959716797,-8.057162284851074
1761399819555351600,9.8903515625,1.8121862411499023,-10.540472984313965,-8.19692325592041
1761399819565434000,9.90043408203125,2.0637271404266357,-11.100790977478027,-8.123676300048828
1761399819575525000,9.910525146484375,2.4024317264556885,-10.945466995239258,-7.730278968811035
1761399819585609200,9.920609130859376,2.680608034133911,-10.039112091064453,-7.219864845275879
1761399819595690200,9.930690185546876,3.075202465057373,-8.836923599243164,-6.612411022186279
1761399819605764900,9.940764892578125,3.3539772033691406,-7.540538311004639,-6.08628511428833
1761399819615881000,9.950880859375,3.4410665035247803,-6.445190906524658,-5.754239559173584
1761399819625949400,9.960949462890625,3.4752585887908936,-5.880309104919434,-5.566593647003174
1761399819636015900,9.971015869140626,3.378966808319092,-6.351143836975098,-5.492822647094727
1761399819646109400,9.981109375,2.6862194538116455,-8.980501174926758,-5.727828502655029
1761399819656192000,9.99119189453125,1.8947113752365112,-14.067207336425781,-6.778433799743652
1761399819666260700,10.0012607421875,0.9855880737304688,-18.679336547851562,-8.39496898651123
1761399819676334000,10.011333984375,0.18981529772281647,-17.57508659362793,-8.566228866577148
1761399819686435300,10.021435302734375,0.438961923122406,-12.790947914123535,-7.058929443359375
1761399819696514600,10.0315146484375,0.7307552695274353,-9.514781951904297,-5.399074554443359
1761399819706586000,10.041586181640625,0.5617395639419556,-7.8850789070129395,-4.451569080352783
1761399819716657200,10.0516572265625,-0.17986440658569336,-6.3174004554748535,-3.5966145992279053
1761399819726759200,10.06175927734375,-1.2413935661315918,-4.429946422576904,-2.6228480339050293
1761399819736827600,10.07182763671875,-1.9048867225646973,-3.0365960597991943,-1.506177306175232
1761399819746907600,10.08190771484375,-1.5952117443084717,-3.156754970550537,-0.5565770864486694
1761399819757000000,10.092,-0.4097825884819031,-5.182324409484863,0.3883095979690552
1761399819767083500,10.10208349609375,0.38142624497413635,-8.031349182128906,0.3606266379356384
1761399819777151700,10.11215185546875,-0.1785176694393158,-10.544588088989258,-0.6352116465568542
1761399819787244500,10.12224462890625,-1.665541410446167,-11.890652656555176,-1.6295535564422607
1761399819797292800,10.132292724609375,-2.379911422729492,-12.746206283569336,-3.2953193187713623
1761399819807381500,10.142381591796875,-1.7079635858535767,-13.381866455078125,-5.0662055015563965
1761399819817488100,10.152488037109375,-0.43207859992980957,-13.203872680664062,-6.120477199554443
1761399819827566800,10.16256689453125,0.48138418793678284,-10.693402290344238,-4.815188407897949
1761399819837650400,10.172650390625,0.8672247529029846,-8.939350128173828,-3.404405117034912
1761399819847718100,10.18271826171875,0.7665186524391174,-8.46043586730957,-2.486677646636963
1761399819857810700,10.192810791015624,0.4305822253227234,-8.276605606079102,-1.9250129461288452
1761399819867893200,10.202893310546875,-0.015188217163085938,-8.218920707702637,-1.595361351966858
1761399819877971500,10.212971435546875,-0.5024082660675049,-8.337807655334473,-1.521889328956604
1761399819888052700,10.223052734375,-0.8133552074432373,-8.468141555786133,-1.7250971794128418
1761399819898135800,10.2331357421875,-0.9620201587677002,-8.602965354919434,-2.1326351165771484
1761399819908216300,10.24321630859375,-0.765770435333252,-8.793828010559082,-2.6449942588806152
1761399819918297300,10.25329736328125,-0.5163245797157288,-8.902764320373535,-3.1750855445861816
1761399819938470700,10.273470703125,0.27465981245040894,-8.903961181640625,-3.740117073059082
1761399819948540400,10.28354052734375,0.47397711873054504,-8.819490432739258,-3.716923236846924
1761399819958619400,10.293619384765625,0.8367735147476196,-8.124274253845215,-2.6111762523651123
1761399819968702200,10.3037021484375,0.6025158166885376,-8.724770545959473,-2.883441925048828
1761399819978783200,10.313783203125,0.28318917751312256,-9.396044731140137,-3.0550012588500977
1761399819988864000,10.323864013671875,-0.06920739263296127,-9.695843696594238,-3.014673948287964
1761399819998933000,10.33393310546875,-0.11798924952745438,-9.119738578796387,-2.2881085872650146
1761399820009026000,10.344026123046875,-0.10631752014160156,-8.712349891662598,-2.005817174911499
1761399820019092500,10.354092529296874,-0.17290624976158142,-8.601095199584961,-2.1104140281677246
1761399820029187600,10.3641875,-0.2454804927110672,-8.64134693145752,-2.260500431060791
1761399820039269000,10.37426904296875,-0.32785600423812866,-8.906505584716797,-2.397942543029785
1761399820049342500,10.384342529296875,-0.5036801695823669,-9.132607460021973,-2.5125651359558105
1761399820059419100,10.394419189453124,-0.7377133965492249,-9.29421615600586,-2.553565740585327
1761399820069512000,10.404511962890625,-1.0041431188583374,-9.295787811279297,-2.7427825927734375
1761399820079588600,10.414588623046875,-1.1561001539230347,-9.066617012023926,-2.9012486934661865
1761399820089672400,10.42467236328125,-1.320776343345642,-8.693495750427246,-2.9908816814422607
1761399820099754200,10.434754150390624,-1.226654291152954,-8.790985107421875,-3.4118123054504395
1761399820109835800,10.444835693359375,-1.2498481273651123,-8.569222450256348,-3.123460531234741
1761399820119897300,10.4548974609375,-1.1765257120132446,-8.865803718566895,-3.432462215423584
1761399820129997300,10.464997314453125,-0.9522937536239624,-9.216329574584961,-3.4643349647521973
1761399820140078300,10.475078369140626,-0.48048636317253113,-9.43023681640625,-3.1781530380249023
1761399820150152700,10.485152587890624,-0.07870937883853912,-9.797447204589844,-3.0750527381896973
1761399820160227800,10.495227783203125,-0.048482585698366165,-9.861492156982422,-2.8419175148010254
1761399820170321200,10.505321044921875,-0.2593219578266144,-9.936386108398438,-3.2842462062835693
1761399820180398800,10.51539892578125,-0.46163201332092285,-9.34501838684082,-2.7673230171203613
1761399820190483200,10.525483154296875,-0.6354361176490784,-9.911097526550293,-4.184615612030029
1761399820200564000,10.53556396484375,-1.1555016040802002,-10.8505220413208,-5.870357990264893
1761399820210641700,10.5456416015625,-1.2728174924850464,-10.336965560913086,-5.799654483795166
1761399820220717600,10.555717529296874,-0.9982324838638306,-9.730709075927734,-6.044386863708496
1761399820230794800,10.565794677734376,-0.9386767148971558,-9.591471672058105,-7.020472526550293
1761399820240888300,10.575888427734375,-1.1406874656677246,-9.760412216186523,-7.972841262817383
1761399820250969600,10.585969482421875,-1.4541782140731812,-10.088567733764648,-8.630498886108398
1761399820261049900,10.5960498046875,-1.6271593570709229,-10.282347679138184,-8.797194480895996
1761399820271130600,10.606130615234376,-1.6898574829101562,-10.39884090423584,-8.795923233032227
1761399820281199900,10.616199951171875,-1.5695488452911377,-10.603470802307129,-8.141931533813477
1761399820291292700,10.626292724609375,-1.12235689163208,-10.3410062789917,-7.18896484375
1761399820301361700,10.636361572265624,-0.4860977530479431,-10.124031066894531,-5.536366939544678
1761399820311443000,10.64644287109375,0.37386956810951233,-10.442535400390625,-4.085630416870117
1761399820321536000,10.656535888671876,1.259649395942688,-11.005023002624512,-2.6304047107696533
1761399820331617300,10.6666171875,1.986962914466858,-11.535264015197754,-1.3082067966461182
1761399820341685200,10.676685302734375,1.9893571138381958,-11.990760803222656,-0.5489455461502075
1761399820351778800,10.68677880859375,1.5897499322891235,-12.13216781616211,-0.1346738487482071
1761399820361859600,10.696859619140625,0.6147860884666443,-12.138303756713867,-0.23126491904258728
1761399820371941000,10.706941162109375,-0.5120598673820496,-11.771092414855957,-0.18076223134994507
1761399820382008800,10.7170087890625,-1.2838906049728394,-11.437101364135742,-0.33840546011924744
1761399820392089600,10.727089599609375,-1.5144073963165283,-11.404779434204102,-0.7689876556396484
1761399820402168300,10.737168212890625,-1.45537531375885,-11.586140632629395,-1.413776159286499
1761399820412255000,10.7472548828125,-1.1306617259979248,-11.701062202453613,-2.056020736694336
1761399820422345700,10.757345703125,-0.3396025598049164,-11.698817253112793,-2.6523265838623047
1761399820432413700,10.76741357421875,0.47584760189056396,-11.439720153808594,-3.1640872955322266
1761399820442497000,10.7774970703125,0.9121160507202148,-10.865710258483887,-3.5725231170654297
1761399820452588300,10.78758837890625,0.6002712845802307,-10.172887802124023,-3.673229217529297
1761399820462669300,10.79766943359375,0.28371289372444153,-9.542240142822266,-3.613598585128784
1761399820472739600,10.807739501953124,0.018405426293611526,-9.046640396118164,-3.591452121734619
1761399820482831000,10.8178310546875,-0.2712929844856262,-8.56413459777832,-3.5247886180877686
1761399820492920600,10.827920654296875,-0.3802291452884674,-8.353968620300293,-3.3393876552581787
1761399820502981000,10.837981201171875,-0.33137246966362,-8.346635818481445,-3.199252128601074
1761399820513061400,10.848061279296875,-0.02296937257051468,-8.542362213134766,-2.8046576976776123
1761399820523155200,10.8581552734375,0.09973346441984177,-8.738612174987793,-2.3878421783447266
1761399820533234200,10.868234130859374,0.23096564412117004,-9.048212051391602,-1.7934815883636475
1761399820543300400,10.87830029296875,0.2198924571275711,-9.001450538635254,-1.5095441341400146
1761399820553388500,10.888388427734375,0.026336219161748886,-8.530016899108887,-1.5804723501205444
1761399820563466200,10.89846630859375,0.26313772797584534,-8.160037994384766,-1.2816461324691772
1761399820573559600,10.9085595703125,-0.15023615956306458,-7.874679088592529,-1.4041244983673096
1761399820583628500,10.918628662109375,0.04563947021961212,-7.650446891784668,-1.1656769514083862
1761399820593702000,10.928701904296876,0.367061048746109,-7.499911785125732,-1.009081244468689
1761399820603801000,10.938801025390624,0.6807762980461121,-7.295581340789795,-1.1154735088348389
1761399820613884400,10.948884521484375,0.8976011872291565,-7.200711250305176,-0.9632172584533691
1761399820623965000,10.95896484375,1.1658265590667725,-7.0348381996154785,-1.0503063201904297
1761399820634046000,10.9690458984375,1.3063362836837769,-6.7585320472717285,-1.3322983980178833
1761399820644127000,10.979126953125,1.426570177078247,-6.513575553894043,-1.479915976524353
1761399820654194700,10.989194580078125,1.7574937343597412,-6.67750358581543,-1.1353005170822144
1761399820664275500,10.999275390625,2.015842914581299,-6.740276336669922,-0.8699930310249329
1761399820674369300,11.009369384765625,2.128744602203369,-6.737208843231201,-0.6236895322799683
1761399820684412700,11.01941259765625,2.385223388671875,-6.728455066680908,-0.6532429456710815
1761399820694529800,11.02952978515625,2.717493772506714,-6.475717067718506,-1.1153239011764526
1761399820704611000,11.039611083984376,2.997241258621216,-6.239140033721924,-1.8760814666748047
1761399820714691000,11.049691162109376,3.1447839736938477,-6.151003360748291,-2.8122143745422363
1761399820724760000,11.059760009765625,3.104980230331421,-6.417807102203369,-3.8698530197143555
1761399820734853000,11.06985302734375,3.0124294757843018,-7.006930351257324,-4.889782905578613
1761399820744936000,11.07993603515625,3.2398786544799805,-7.8588175773620605,-5.901183605194092
1761399820755010800,11.0900107421875,3.6046202182769775,-8.865280151367188,-6.745364189147949
1761399820765098500,11.100098388671874,3.650933027267456,-9.690007209777832,-7.391948223114014
1761399820775179000,11.110178955078124,3.82922625541687,-10.178948402404785,-8.112677574157715
1761399820785258500,11.120258544921874,4.223222255706787,-10.253243446350098,-8.712051391601562
1761399820795328300,11.130328369140624,4.685751914978027,-9.994819641113281,-8.914660453796387
1761399820805422600,11.140422607421876,3.942352294921875,-9.491887092590332,-8.735618591308594
1761399820815490800,11.15049072265625,3.354875087738037,-8.877625465393066,-8.050652503967285
1761399820825571800,11.16057177734375,3.1105916500091553,-8.295385360717773,-7.137414455413818
1761399820835665400,11.17066552734375,3.230376720428467,-7.754594802856445,-6.317550182342529
1761399820845744000,11.180744140625,3.583895444869995,-7.039626598358154,-5.747430801391602
1761399820855826400,11.190826416015625,4.4292731285095215,-6.637699604034424,-5.307570934295654
1761399820865908000,11.200907958984375,4.2562174797058105,-8.445995330810547,-5.198859214782715
1761399820875976000,11.210975830078125,3.6635026931762695,-13.147534370422363,-5.464091777801514
1761399820886070000,11.221070068359374,3.360187292098999,-17.617210388183594,-5.174243927001953
1761399820896138000,11.231137939453125,2.6285340785980225,-20.02098846435547,-4.847809314727783
1761399820906231800,11.241231689453125,1.820565938949585,-19.179201126098633,-4.748150825500488
1761399820916310300,11.251310302734375,-0.3354126811027527,-13.982362747192383,-4.271779537200928
1761399820926392600,11.261392578125,-1.0904840230941772,-7.682170391082764,-2.9932010173797607
1761399820936475000,11.271474853515626,0.42347443103790283,-2.993724822998047,-0.9192237854003906
1761399820946555400,11.281555419921874,0.2868552803993225,-0.15921440720558167,0.6865373253822327
1761399820956636700,11.29163671875,-0.8809165954589844,-0.03374328091740608,1.61803138256073
1761399820966704600,11.30170458984375,-1.2841150760650635,-1.8807951211929321,2.523862600326538
1761399820976796400,11.31179638671875,-1.512836217880249,-4.194491863250732,2.4309377670288086
1761399820986866400,11.321866455078125,-2.4001872539520264,-7.831882476806641,1.2121394872665405
1761399820996935200,11.33193505859375,-3.955221176147461,-11.93980884552002,-0.9978584051132202
1761399821007041300,11.342041259765624,-5.0312652587890625,-15.211260795593262,-3.3464953899383545
1761399821017122000,11.3521220703125,-2.8227639198303223,-16.593015670776367,-5.443516731262207
1761399821027203300,11.362203369140625,0.1306336373090744,-16.859220504760742,-8.820987701416016
1761399821037272800,11.37227294921875,1.3055881261825562,-12.431817054748535,-8.27054500579834
1761399821047365600,11.38236572265625,0.7585878372192383,-7.887248516082764,-5.210680961608887
1761399821057433900,11.392433837890625,-0.3487304449081421,-6.79279899597168,-3.7724387645721436
1761399821067524000,11.402524169921875,-0.3110217750072479,-7.402796745300293,-2.650381326675415
1761399821077608200,11.412608154296874,0.26807576417922974,-8.109086036682129,-1.5058032274246216
1761399821087689000,11.42268896484375,0.6063315868377686,-8.685415267944336,-0.9165303111076355
1761399821097770200,11.432770263671875,0.5568763613700867,-9.423876762390137,-1.108365774154663
1761399821107838500,11.44283837890625,0.5242553353309631,-9.771709442138672,-1.502885341644287
1761399821117932300,11.452932373046876,0.5930138230323792,-9.729212760925293,-1.8338088989257812
1761399821128012500,11.463012451171876,0.6319944262504578,-9.383026123046875,-2.065223455429077
1761399821138102800,11.473102783203124,0.6970868110656738,-9.015291213989258,-2.03043270111084
1761399821148175000,11.483175048828125,0.6633434891700745,-8.731204986572266,-1.820266604423523
1761399821158255900,11.493255859375,0.47659578919410706,-8.592341423034668,-1.6350901126861572
1761399821168335400,11.50333544921875,0.22939445078372955,-8.44322681427002,-1.57486093044281
1761399821178412300,11.513412353515625,0.1413327157497406,-8.346860885620117,-1.7907880544662476
1761399821188498400,11.52349853515625,0.0991349145770073,-8.353070259094238,-2.2998552322387695
1761399821198570500,11.533570556640624,0.09516951441764832,-8.37177562713623,-2.987290382385254
1761399821208656000,11.54365576171875,0.04204816743731499,-8.516549110412598,-3.8073043823242188
1761399821218741800,11.55374169921875,0.0727238729596138,-8.582465171813965,-4.238560199737549
1761399821228822300,11.563822265625,0.22931963205337524,-8.598176956176758,-4.278513431549072
1761399821238891000,11.57389111328125,0.6533926129341125,-8.628927230834961,-4.002880573272705
1761399821248978200,11.583978271484375,0.9650129079818726,-8.633790969848633,-3.768024444580078
1761399821259054600,11.5940546875,1.1269956827163696,-8.65286922454834,-3.7976527214050293
1761399821269147000,11.60414697265625,1.0008511543273926,-8.664915084838867,-3.8866872787475586
1761399821279227400,11.614227294921875,0.5448305010795593,-8.664765357971191,-3.9485623836517334
1761399821289308400,11.624308349609375,-0.029703065752983093,-8.619425773620605,-3.9923312664031982
1761399821299382500,11.634382568359374,-0.5353285074234009,-8.488043785095215,-4.152667999267578
1761399821309470700,11.644470703125,-0.8126070499420166,-8.388235092163086,-4.2550950050354
1761399821319526400,11.6545263671875,-0.8548048138618469,-8.247875213623047,-4.373608112335205
1761399821329630200,11.664630126953124,-0.6994810104370117,-8.016460418701172,-3.925518035888672
1761399821339693600,11.674693603515625,-0.16385318338871002,-8.610222816467285,-3.877110481262207
1761399821349793800,11.684793701171875,0.27406126260757446,-9.387365341186523,-3.6745758056640625
1761399821359860700,11.69486083984375,0.3795557916164398,-9.687463760375977,-3.099144458770752
1761399821369955800,11.704955810546876,0.4395604729652405,-9.953893661499023,-3.0602385997772217
1761399821380037400,11.715037353515624,0.19804537296295166,-10.446351051330566,-3.8734443187713623
1761399821390118000,11.725117919921875,-0.2882020175457001,-10.262072563171387,-4.12827730178833
1761399821400200200,11.7352001953125,-0.8207622766494751,-10.185981750488281,-4.5522003173828125
1761399821410267100,11.74526708984375,-1.0467898845672607,-10.182539939880371,-5.00477933883667
1761399821420361200,11.755361328125,-0.6848913431167603,-10.142212867736816,-4.959364414215088
1761399821430427400,11.765427490234375,0.010848726145923138,-10.250624656677246,-4.642431735992432
1761399821440523000,11.77552294921875,0.37566521763801575,-10.401010513305664,-4.568211555480957
1761399821450575400,11.785575439453124,0.1702127754688263,-10.41507625579834,-5.141099452972412
1761399821460684300,11.795684326171875,-0.4412812888622284,-10.312799453735352,-6.288670063018799
1761399821470765600,11.805765625,-1.1253496408462524,-10.43774700164795,-7.8056960105896
1761399821480846600,11.8158466796875,-1.4226795434951782,-10.163835525512695,-8.586280822753906
1761399821490933800,11.825933837890625,-1.578676700592041,-9.703774452209473,-8.855179786682129
1761399821500996400,11.835996337890625,-1.7732805013656616,-9.653196334838867,-8.569596290588379
1761399821511089400,11.84608935546875,-1.0124480724334717,-9.923068046569824,-6.974608898162842
1761399821521170000,11.856169921875,0.2784755825996399,-10.729989051818848,-5.074585437774658
1761399821531251200,11.866251220703125,1.9993828535079956,-11.92162799835205,-3.1024365425109863
1761399821541332000,11.87633203125,3.1245081424713135,-12.981736183166504,-1.0889877080917358
1761399821551413500,11.88641357421875,3.0120553970336914,-13.68578052520752,0.0035164838191121817
1761399821561478100,11.89647802734375,2.4700679779052734,-13.720795631408691,0.5262754559516907
1761399821571578000,11.906578125,1.0374375581741333,-13.292458534240723,0.6275801062583923
1761399821581656300,11.91665625,-0.7793126702308655,-12.637195587158203,0.5838111042976379
1761399821591712300,11.926712158203125,-2.481440305709839,-11.767500877380371,-0.01967734470963478
1761399821601818400,11.936818359375,-3.358541250228882,-10.716147422790527,-1.4160206317901611
1761399821611899100,11.946899169921876,-3.051335334777832,-9.943120002746582,-3.4403181076049805
1761399821621970000,11.956969970703126,-1.5226374864578247,-9.922470092773438,-5.555445671081543
1761399821632055300,11.96705517578125,-0.029777884483337402,-10.109142303466797,-6.992191314697266
1761399821642129200,11.977129150390626,0.4431517720222473,-10.117222785949707,-7.335684299468994
1761399821652223000,11.987222900390625,0.4051438271999359,-9.802908897399902,-7.171980857849121
1761399821662311000,11.997310791015625,0.005312134977430105,-9.490839958190918,-6.9823150634765625
1761399821672384800,12.007384765625,-0.6068553328514099,-9.356091499328613,-6.216170787811279
1761399821682464000,12.017464111328126,-0.9282020926475525,-9.380107879638672,-5.602656364440918
1761399821692547000,12.027547119140625,-0.4436754882335663,-9.460014343261719,-4.206387996673584
1761399821702606600,12.037606689453124,-0.08439560979604721,-9.467870712280273,-2.818349599838257
1761399821712708600,12.04770849609375,-1.1138274669647217,-9.531242370605469,-2.655169725418091
1761399821722790000,12.057789794921876,-1.352349877357483,-9.498994827270508,-2.5965864658355713
1761399821732858600,12.067858642578125,-1.1026794910430908,-9.305513381958008,-2.16263747215271
1761399821742952000,12.077951904296874,-0.6743418574333191,-9.143755912780762,-1.1130045652389526
1761399821753030700,12.08803076171875,-0.4156932830810547,-8.960824012756348,-0.2545335590839386
1761399821763113500,12.098113525390625,-0.1412578970193863,-8.752902030944824,0.22842180728912354
1761399821773184300,12.108184326171875,0.2064998894929886,-8.578125,0.19280806183815002
1761399821783275500,12.118275634765626,0.7484124898910522,-8.386514663696289,-0.13759177923202515
1761399821793344000,12.128343994140625,1.2137854099273682,-7.991695404052734,-0.7502829432487488
1761399821803424500,12.138424560546875,1.5534628629684448,-7.844601631164551,-1.1186907291412354
1761399821813507300,12.14850732421875,1.5771055221557617,-7.7795844078063965,-0.8891466856002808
1761399821823598800,12.158598876953125,1.3645453453063965,-7.407585144042969,-0.9630676507949829
1761399821833670100,12.168670166015625,1.141061544418335,-6.8296098709106445,-0.9486275911331177
1761399821843761400,12.178761474609376,1.0269628763198853,-6.230685234069824,-0.40132805705070496
1761399821853839600,12.188839599609375,1.0887632369995117,-5.7707743644714355,-0.03149871528148651
1761399821863923000,12.1989228515625,1.2280758619308472,-5.435735702514648,0.2486976981163025
1761399821874004200,12.209004150390625,1.5126866102218628,-5.283928394317627,0.44696754217147827
1761399821884083200,12.219083251953125,1.63613760471344,-5.203497886657715,0.4659714996814728
1761399821894156000,12.229156005859375,1.6350152492523193,-5.231330871582031,0.1255459487438202
1761399821914327800,12.249327880859376,1.6400281190872192,-5.347524166107178,-1.4842554330825806
1761399821924409000,12.2594091796875,1.752106785774231,-5.442543983459473,-2.317736864089966
1761399821934476800,12.269476806640625,1.9467852115631104,-5.786860466003418,-3.1640872955322266
1761399821944566800,12.27956689453125,2.338611364364624,-6.387355804443359,-4.211625099182129
1761399821954639400,12.289639404296874,3.1116392612457275,-7.249118804931641,-5.6723127365112305
1761399821964733000,12.29973291015625,3.924320936203003,-8.744671821594238,-7.378779888153076
1761399821974813400,12.3098134765625,4.045976638793945,-10.633024215698242,-9.134029388427734
1761399821984895000,12.31989501953125,3.8349125385284424,-12.798803329467773,-11.014524459838867
1761399821994961000,12.3299609375,3.6700119972229004,-14.603283882141113,-12.494890213012695
1761399822005043700,12.340043701171876,3.6956000328063965,-14.815469741821289,-12.786084175109863
1761399822015137000,12.350136962890625,3.7142298221588135,-12.52025318145752,-11.288885116577148
1761399822025218000,12.360218017578125,4.028468608856201,-10.096946716308594,-9.483732223510742
1761399822035282200,12.3702822265625,4.722188949584961,-8.467094421386719,-7.839813232421875
1761399822045380600,12.380380615234374,5.173196315765381,-6.984185695648193,-6.527416706085205
1761399822055461600,12.390461669921875,5.100173473358154,-5.606846332550049,-5.5091328620910645
1761399822065552100,12.40055224609375,4.158952713012695,-5.0895490646362305,-4.8285064697265625
1761399822075621400,12.410621337890625,2.2007203102111816,-7.672369003295898,-4.950685501098633
1761399822085692000,12.42069189453125,1.1820622682571411,-12.724807739257812,-4.386775970458984
1761399822095773000,12.43077294921875,0.4081365764141083,-16.74347496032715,-3.070638418197632
1761399822105866200,12.4408662109375,-0.7130231857299805,-17.587356567382812,-2.7018566131591797
1761399822115947000,12.450947021484374,-1.502361536026001,-15.031396865844727,-2.632798910140991
1761399822126026200,12.461026123046874,-2.314220428466797,-10.631302833557129,-2.23124623298645
1761399822136096300,12.47109619140625,0.08289923518896103,-6.383540153503418,-1.1210849285125732
1761399822146190000,12.481190185546875,2.6546459197998047,-4.000785827636719,-0.4901379644870758
1761399822156271000,12.49127099609375,1.680654764175415,-2.9110500812530518,-0.9041104316711426
1761399822166339000,12.501339111328125,-0.8335562944412231,-3.3640778064727783,-1.373822808265686
1761399822176433400,12.511433349609375,-2.6069116592407227,-5.192349910736084,-0.9604489803314209
1761399822186501400,12.52150146484375,-3.559579372406006,-7.54091215133667,-0.45751696825027466
1761399822196575500,12.531575439453125,-3.8470332622528076,-9.70781421661377,-0.23500585556030273
1761399822206663000,12.541662841796875,-3.2952444553375244,-12.185738563537598,-0.7380126714706421
1761399822216756500,12.551756591796876,-2.1523873805999756,-14.084714889526367,-2.2132151126861572
1761399822226830300,12.561830322265624,-1.5401450395584106,-14.904953002929688,-4.671835899353027
1761399822236918500,12.57191845703125,-0.7306804060935974,-14.351668357849121,-7.026083946228027
1761399822246978000,12.58197802734375,0.44666826725006104,-10.39412784576416,-5.197362899780273
1761399822257078500,12.59207861328125,0.6406733989715576,-8.299874305725098,-3.4666545391082764
1761399822267136500,12.602136474609376,0.3783586919307709,-7.998504161834717,-2.8318169116973877
1761399822277235500,12.6122353515625,0.4990414083003998,-7.923759937286377,-1.796399474143982
1761399822287313000,12.62231298828125,0.40050506591796875,-7.938499450683594,-0.6141875386238098
1761399822297394400,12.63239453125,0.2611924409866333,-8.340051651000977,-0.06756138056516647
1761399822307473200,12.64247314453125,-0.06950666755437851,-8.874258041381836,-0.3361608684062958
1761399822317546000,12.6525458984375,-0.24937106668949127,-8.940322875976562,-0.6402245163917542
1761399822327647200,12.662647216796875,-0.18622399866580963,-8.81507682800293,-1.1278934478759766
1761399822337728500,12.672728515625,-0.12247838079929352,-8.755744934082031,-1.8224364519119263
1761399822347809000,12.68280908203125,-0.2537105679512024,-8.72065544128418,-2.564788579940796
1761399822357877800,12.692877685546875,-0.46507367491722107,-8.441580772399902,-2.871770143508911
1761399822367968500,12.702968505859374,-0.6313210725784302,-8.771905899047852,-3.6088101863861084
1761399822378052400,12.71305224609375,-0.608127236366272,-8.65631103515625,-3.72784686088562
1761399822388123400,12.723123291015625,-0.3546411395072937,-8.420856475830078,-3.6955251693725586
1761399822398214100,12.733214111328126,0.019078794866800308,-8.279972076416016,-3.764508008956909
1761399822408295200,12.743295166015624,0.29860183596611023,-8.269423484802246,-3.78104305267334
1761399822418376200,12.753376220703124,0.7469161152839661,-7.3553619384765625,-2.7679216861724854
1761399822428445000,12.76344482421875,0.6354361176490784,-8.836100578308105,-4.164638996124268
1761399822438538000,12.7735380859375,0.28805238008499146,-9.507150650024414,-4.6047234535217285
1761399822448617000,12.783616943359375,0.3792565166950226,-8.839916229248047,-3.7572505474090576
1761399822458707700,12.793707763671875,0.3544915020465851,-8.521263122558594,-3.7532105445861816
1761399822468780500,12.803780517578126,0.06823474913835526,-8.375741004943848,-3.9816322326660156
1761399822478860800,12.81386083984375,-0.3461117744445801,-8.412775993347168,-3.9228994846343994
1761399822488942300,12.8239423828125,-0.712424635887146,-8.783353805541992,-3.7712416648864746
1761399822499011300,12.83401123046875,-0.9499743580818176,-9.095646858215332,-3.411512851715088
1761399822509091600,12.844091552734374,-0.5175964832305908,-8.631620407104492,-2.4998457431793213
1761399822519183600,12.85418359375,-0.15113398432731628,-9.742754936218262,-2.8791770935058594
1761399822529256400,12.86425634765625,0.3770119547843933,-10.681655883789062,-3.0651767253875732
1761399822539347700,12.87434765625,0.7486369609832764,-11.23060131072998,-3.2895584106445312
1761399822549428500,12.884428466796875,0.7766191959381104,-10.712481498718262,-3.212195634841919
