time,seconds_elapsed,z,y,x
1761401412872767000,0.11776708984375,0.7017255425453186,-9.392827033996582,-2.719663381576538
1761401412882870800,0.127870849609375,0.7317278981208801,-9.338957786560059,-2.693476915359497
1761401412892929500,0.137929443359375,0.7343465685844421,-9.258976936340332,-2.6455929279327393
1761401412903032800,0.14803271484375,0.7283610701560974,-9.245882987976074,-2.631227731704712
1761401412913090800,0.1580908203125,0.7187842130661011,-9.30918025970459,-2.6443958282470703
1761401412923195100,0.168195068359375,0.7005284428596497,-9.383325576782227,-2.7100865840911865
1761401412933275600,0.178275634765625,0.6753145456314087,-9.414449691772461,-2.749441385269165
1761401412943334000,0.188333984375,0.6581810116767883,-9.39791488647461,-2.7527334690093994
1761401412953437700,0.198437744140625,0.6367828249931335,-9.362152099609375,-2.7347021102905273
1761401412963519200,0.208519287109375,0.6200982332229614,-9.291747093200684,-2.7357494831085205
1761401412973600000,0.21860009765625,0.670451283454895,-9.291597366333008,-2.686967611312866
1761401412983680500,0.228680419921875,0.6872106790542603,-9.30469036102295,-2.664372444152832
1761401412993762000,0.238761962890625,0.712424635887146,-9.333271980285645,-2.6310031414031982
1761401413003842600,0.248842529296875,0.7434744238853455,-9.37853717803955,-2.627636432647705
1761401413013923600,0.258923583984375,0.7469909191131592,-9.415572166442871,-2.6408045291900635
1761401413024004600,0.269004638671875,0.7121253609657288,-9.46106243133545,-2.6861445903778076
1761401413034086100,0.279086181640625,0.6905027627944946,-9.45874309539795,-2.7254245281219482
1761401413044166400,0.28916650390625,0.6584054827690125,-9.377638816833496,-2.6989386081695557
1761401413054247400,0.299247314453125,0.667982280254364,-9.280823707580566,-2.7084407806396484
1761401413064328400,0.309328369140625,0.6689549088478088,-9.286734580993652,-2.762235403060913
1761401413074387200,0.31938720703125,0.6580313444137573,-9.340529441833496,-2.811241626739502
1761401413084490500,0.329490478515625,0.6662614345550537,-9.372700691223145,-2.8507461547851562
1761401413094571000,0.339571044921875,0.6733692288398743,-9.34397029876709,-2.8698248863220215
1761401413104650800,0.349650634765625,0.6568342447280884,-9.322497367858887,-2.862642288208008
1761401413114733300,0.3597333984375,0.6593781113624573,-9.265186309814453,-2.8291234970092773
1761401413124813800,0.369813720703125,0.6533926129341125,-9.20907211303711,-2.83982253074646
1761401413134894600,0.37989453125,0.6412719488143921,-9.210269927978516,-2.8755857944488525
1761401413144976600,0.3899765625,0.6447136402130127,-9.262792587280273,-2.913893222808838
1761401413155057700,0.4000576171875,0.6637924313545227,-9.279401779174805,-2.9223475456237793
1761401413165137200,0.41013720703125,0.6542156338691711,-9.292570114135742,-2.9367127418518066
1761401413175219000,0.420218994140625,0.6411223411560059,-9.26758098602295,-2.916287422180176
1761401413185300200,0.43030029296875,0.6710498332977295,-9.253215789794922,-2.861370325088501
1761401413195381000,0.440381103515625,0.7083844542503357,-9.30454158782959,-2.758868455886841
1761401413205433600,0.45043359375,0.7624784111976624,-9.376068115234375,-2.650381326675415
1761401413215542300,0.460542236328125,0.7758709788322449,-9.431059837341309,-2.5800516605377197
1761401413225622500,0.47062255859375,0.7447463870048523,-9.427543640136719,-2.5870845317840576
1761401413235733000,0.48073291015625,0.6967126727104187,-9.407417297363281,-2.6645219326019287
1761401413245786000,0.4907861328125,0.6833201050758362,-9.324892044067383,-2.7540054321289062
1761401413255864000,0.500864013671875,0.7023240923881531,-9.250746726989746,-2.808922290802002
1761401413265948200,0.5109482421875,0.7154921889305115,-9.257854461669922,-2.7899184226989746
1761401413276028400,0.5210283203125,0.7742249965667725,-9.303045272827148,-2.7316346168518066
1761401413286109700,0.531109619140625,0.789936900138855,-9.355642318725586,-2.6779894828796387
1761401413296190200,0.541190185546875,0.7909843921661377,-9.400982856750488,-2.712705373764038
1761401413306290700,0.551290771484375,0.7666682600975037,-9.421258926391602,-2.838101625442505
1761401413316371700,0.561371826171875,0.7101052403450012,-9.367613792419434,-2.965592861175537
1761401413326411000,0.571410888671875,0.651372492313385,-9.27102279663086,-3.0417585372924805
1761401413336515600,0.581515625,0.6332663297653198,-9.176675796508789,-3.1013143062591553
1761401413346595600,0.591595703125,0.6558616161346436,-9.101333618164062,-3.107224941253662
1761401413356676000,0.601676025390625,0.6524947881698608,-9.069161415100098,-3.0534300804138184
1761401413366757400,0.61175732421875,0.6897545456886292,-9.078662872314453,-2.985494613647461
1761401413376838700,0.621838623046875,0.714893639087677,-9.111957550048828,-2.9712791442871094
1761401413386919700,0.631919677734375,0.6692541837692261,-9.15273380279541,-3.0189387798309326
1761401413397003300,0.642003173828125,0.6474819183349609,-9.21371078491211,-3.0942063331604004
1761401413407081000,0.6520810546875,0.6197989583015442,-9.236455917358398,-3.1622166633605957
1761401413417164000,0.6621640625,0.5992985963821411,-9.248427391052246,-3.2003743648529053
1761401413427242500,0.672242431640625,0.5989245176315308,-9.221940994262695,-3.176731586456299
1761401413437324000,0.682323974609375,0.6206219792366028,-9.24940013885498,-3.1051299571990967
1761401413447386000,0.69238623046875,0.6281786561012268,-9.287707328796387,-2.978536605834961
1761401413457486000,0.702486083984375,0.6261585354804993,-9.290250778198242,-2.859050989151001
1761401413467567400,0.7125673828125,0.6085013151168823,-9.315464973449707,-2.7801918983459473
1761401413477648400,0.7226484375,0.5786486268043518,-9.314416885375977,-2.764479875564575
1761401413487729200,0.732729248046875,0.49971479177474976,-9.307534217834473,-2.7892448902130127
1761401413497810000,0.742809814453125,0.4470423460006714,-9.292196273803711,-2.815281867980957
1761401413507890200,0.75289013671875,0.444049596786499,-9.276932716369629,-2.803011655807495
1761401413517971700,0.7629716796875,0.47884035110473633,-9.278055191040039,-2.7589433193206787
1761401413528052500,0.773052490234375,0.5350292325019836,-9.316062927246094,-2.7484686374664307
1761401413538134000,0.783134033203125,0.585232675075531,-9.346888542175293,-2.7486932277679443
1761401413548232700,0.793232666015625,0.6211457252502441,-9.362300872802734,-2.723778486251831
1761401413558274000,0.803274169921875,0.6308721303939819,-9.36589241027832,-2.676044225692749
1761401413568400400,0.813400390625,0.6382791996002197,-9.32893180847168,-2.60317063331604
1761401413578434800,0.823434814453125,0.6014683842658997,-9.278953552246094,-2.536058187484741
1761401413588515300,0.833515380859375,0.6147112846374512,-9.249025344848633,-2.5050084590911865
1761401413598619600,0.84361962890625,0.6433668732643127,-9.314641952514648,-2.50874924659729
1761401413608701000,0.853700927734375,0.6741922497749329,-9.419612884521484,-2.5543887615203857
1761401413618759000,0.863759033203125,0.7003788352012634,-9.495927810668945,-2.589254379272461
1761401413628842000,0.873842041015625,0.6979097723960876,-9.476774215698242,-2.5987563133239746
1761401413638920400,0.88392041015625,0.7124994397163391,-9.391929626464844,-2.5545384883880615
1761401413649024000,0.89402392578125,0.6971616148948669,-9.355043411254883,-2.5030629634857178
1761401413659105500,0.90410546875,0.6877344250679016,-9.386168479919434,-2.4409635066986084
1761401413669164800,0.914164794921875,0.6925976872444153,-9.48530387878418,-2.4363245964050293
1761401413679266800,0.924266845703125,0.7257423996925354,-9.431283950805664,-2.5475802421569824
1761401413689352400,0.9343525390625,0.7612065076828003,-9.366491317749023,-2.6791117191314697
1761401413699429600,0.9444296875,0.7620295286178589,-9.346065521240234,-2.790217638015747
1761401413709486800,0.95448681640625,0.778564453125,-9.336338996887207,-2.8714709281921387
1761401413719590400,0.96459033203125,0.7869441509246826,-9.337535858154297,-2.858377456665039
1761401413729672200,0.974672119140625,0.7263409495353699,-9.330727577209473,-2.749366521835327
1761401413739743200,0.9847431640625,0.6609492897987366,-9.289278030395508,-2.6546459197998047
1761401413749831700,0.994831787109375,0.6098480820655823,-9.239298820495605,-2.632948398590088
1761401413759903000,1.004903076171875,0.6037877202033997,-9.218948364257812,-2.6628012657165527
1761401413770006300,1.01500634765625,0.612017810344696,-9.273865699768066,-2.6867432594299316
1761401413780053500,1.025053466796875,0.5615899562835693,-9.368436813354492,-2.7439796924591064
1761401413790158600,1.03515869140625,0.5544821619987488,-9.45567512512207,-2.6950480937957764
1761401413800239400,1.0452392578125,0.5426607728004456,-9.556157112121582,-2.6425251960754395
1761401413810290700,1.055290771484375,0.5499930381774902,-9.580099105834961,-2.578031539916992
1761401413820361700,1.06536181640625,0.5310638546943665,-9.54194164276123,-2.533738851547241
1761401413830478800,1.075478759765625,0.5067477822303772,-9.517176628112793,-2.508225440979004
1761401413840563000,1.08556298828125,0.5416133403778076,-9.435848236083984,-2.4485950469970703
1761401413850643200,1.095643310546875,0.5562030076980591,-9.352200508117676,-2.404376983642578
1761401413860747500,1.10574755859375,0.5528361201286316,-9.293766975402832,-2.3517045974731445
1761401413870805800,1.1158056640625,0.5409399271011353,-9.289053916931152,-2.3349452018737793
1761401413880863700,1.12586376953125,0.5336825251579285,-9.323695182800293,-2.338536500930786
1761401413890967800,1.1359677734375,0.5073463320732117,-9.320253372192383,-2.3586628437042236
1761401413901048800,1.146048828125,0.5238812565803528,-9.322497367858887,-2.412532329559326
1761401413911114500,1.156114501953125,0.5252280235290527,-9.372476577758789,-2.484433174133301
1761401413921211000,1.1662109375,0.5299415588378906,-9.427393913269043,-2.500070333480835
1761401413931281200,1.17628125,0.5573252439498901,-9.4845552444458,-2.520570755004883
1761401413941372700,1.18637255859375,0.5632359385490417,-9.528773307800293,-2.5218424797058105
1761401413951473200,1.19647314453125,0.5752069354057312,-9.517924308776855,-2.5170540809631348
1761401413961534200,1.2065341796875,0.5621885061264038,-9.439214706420898,-2.493037223815918
1761401413971592700,1.2165927734375,0.5766285061836243,-9.340004920959473,-2.4858546257019043
1761401413981696300,1.2266962890625,0.5909937024116516,-9.305289268493652,-2.4847323894500732
1761401413991757000,1.236757080078125,0.6579565405845642,-9.333645820617676,-2.475454807281494
1761401414001857800,1.24685791015625,0.7273883819580078,-9.381230354309082,-2.4316110610961914
1761401414011916300,1.256916259765625,0.7801356315612793,-9.43599796295166,-2.3733272552490234
1761401414022019800,1.267019775390625,0.7695114016532898,-9.416994094848633,-2.3207297325134277
1761401414032101400,1.277101318359375,0.7325509190559387,-9.374122619628906,-2.3049428462982178
1761401414042182000,1.287181884765625,0.6822726726531982,-9.374346733093262,-2.3370401859283447
1761401414052263000,1.297262939453125,0.6748656034469604,-9.404125213623047,-2.4087164402008057
1761401414062344400,1.307344482421875,0.678307294845581,-9.413702011108398,-2.4349780082702637
1761401414072424400,1.317424560546875,0.6794295310974121,-9.413702011108398,-2.428992509841919
1761401414082505700,1.327505615234375,0.660275936126709,-9.412579536437988,-2.434828281402588
1761401414092586000,1.3375859375,0.619499683380127,-9.456947326660156,-2.4800937175750732
1761401414102667500,1.34766748046875,0.5415384769439697,-9.493009567260742,-2.545560121536255
1761401414112726000,1.35772607421875,0.5079448819160461,-9.459640502929688,-2.599130392074585
1761401414122829600,1.36782958984375,0.4875193238258362,-9.372476577758789,-2.657489061355591
1761401414132910000,1.37791015625,0.548346996307373,-9.312472343444824,-2.7031285762786865
1761401414142992000,1.387991943359375,0.5972036719322205,-9.275212287902832,-2.736722230911255
1761401414153072400,1.398072265625,0.6694786548614502,-9.256657600402832,-2.779219150543213
1761401414163153700,1.408153564453125,0.7483376860618591,-9.25635814666748,-2.7843070030212402
1761401414173212000,1.4182119140625,0.7902361750602722,-9.231069564819336,-2.7665748596191406
1761401414183315500,1.4283154296875,0.8035539388656616,-9.221567153930664,-2.709263563156128
1761401414193373400,1.43837353515625,0.8085668087005615,-9.251420021057129,-2.6447699069976807
1761401414203459000,1.448458984375,0.8026561141014099,-9.29690933227539,-2.60893177986145
1761401414213551000,1.458551025390625,0.7931541204452515,-9.367464065551758,-2.586261510848999
1761401414223639600,1.4686396484375,0.7644237279891968,-9.423727989196777,-2.5730185508728027
1761401414233720600,1.478720458984375,0.7735515832901001,-9.457246780395508,-2.5861120223999023
1761401414243822000,1.488822021484375,0.7435492873191833,-9.46450424194336,-2.6122236251831055
1761401414253862700,1.498862548828125,0.7172878384590149,-9.462259292602539,-2.6216509342193604
1761401414263972000,1.50897216796875,0.7399579882621765,-9.438241958618164,-2.628908395767212
1761401414274044400,1.51904443359375,0.7387608885765076,-9.414375305175781,-2.625317096710205
1761401414284125000,1.529125,0.7197569012641907,-9.388188362121582,-2.608482837677002
1761401414294206200,1.539206298828125,0.694617748260498,-9.388263702392578,-2.6191070079803467
1761401414304286700,1.54928662109375,0.6861632466316223,-9.37397289276123,-2.6465654373168945
1761401414314333000,1.5593330078125,0.6968623399734497,-9.332149505615234,-2.6262147426605225
1761401414324449000,1.569448974609375,0.693345844745636,-9.297582626342773,-2.6069862842559814
1761401414334530300,1.5795302734375,0.6765116453170776,-9.307159423828125,-2.6368391513824463
1761401414344610600,1.589610595703125,0.6765116453170776,-9.307159423828125,-2.6523265838623047
1761401414354691800,1.59969189453125,0.6693289875984192,-9.292794227600098,-2.6571149826049805
1761401414364755200,1.609755126953125,0.674117386341095,-9.29878044128418,-2.648735284805298
1761401414374854100,1.619854248046875,0.6848913431167603,-9.325041770935059,-2.639308214187622
1761401414384912000,1.629911865234375,0.6968623399734497,-9.359607696533203,-2.6238205432891846
1761401414394998000,1.639998046875,0.6847416758537292,-9.37053108215332,-2.603320360183716
1761401414405074000,1.650073974609375,0.7015010714530945,-9.390807151794434,-2.5855133533477783
1761401414415179000,1.660178955078125,0.6991817355155945,-9.402778625488281,-2.566434621810913
1761401414425259000,1.670259033203125,0.6860884428024292,-9.373000144958496,-2.5400235652923584
1761401414435319600,1.680319580078125,0.6634931564331055,-9.338508605957031,-2.5195980072021484
1761401414445402600,1.690402587890625,0.6635679602622986,-9.322946548461914,-2.5124154090881348
1761401414455479800,1.700479736328125,0.6492027640342712,-9.344494819641113,-2.506355047225952
1761401414465559800,1.710559814453125,0.6527940630912781,-9.36245059967041,-2.505232810974121
1761401414475663600,1.72066357421875,0.6527940630912781,-9.392229080200195,-2.525583505630493
1761401414485721900,1.730721923828125,0.673069953918457,-9.408838272094727,-2.551994562149048
1761401414495825400,1.740825439453125,0.6753893494606018,-9.414824485778809,-2.5567829608917236
1761401414505884700,1.750884765625,0.6885574460029602,-9.412355422973633,-2.5604491233825684
1761401414515963100,1.760963134765625,0.6813748478889465,-9.405172348022461,-2.569951057434082
1761401414526068700,1.77106884765625,0.6766612529754639,-9.406444549560547,-2.548403263092041
1761401414536148700,1.781148681640625,0.6815244555473328,-9.401656150817871,-2.526930332183838
1761401414546187300,1.791187255859375,0.6708253622055054,-9.411307334899902,-2.5101709365844727
1761401414556311800,1.801311767578125,0.6637924313545227,-9.378986358642578,-2.5125651359558105
1761401414566392600,1.811392578125,0.6816741228103638,-9.36821174621582,-2.5126397609710693
1761401414576469800,1.8214697265625,0.675688624382019,-9.377714157104492,-2.528127431869507
1761401414586550800,1.83155078125,0.6815244555473328,-9.389610290527344,-2.5568578243255615
1761401414596612000,1.841612060546875,0.6622960567474365,-9.401656150817871,-2.591423988342285
1761401414606715600,1.851715576171875,0.6418704986572266,-9.423203468322754,-2.6272623538970947
1761401414616798200,1.861798095703125,0.6453869938850403,-9.43031120300293,-2.6320507526397705
1761401414626892800,1.871892822265625,0.6454617977142334,-9.422006607055664,-2.62127685546875
1761401414636961300,1.881961181640625,0.6430675983428955,-9.40404987335205,-2.6140942573547363
1761401414647033600,1.89203369140625,0.6370820999145508,-9.3921537399292,-2.6367642879486084
1761401414657120000,1.9021201171875,0.6693289875984192,-9.350180625915527,-2.6535985469818115
1761401414667204000,1.9122041015625,0.7196820378303528,-9.293842315673828,-2.614318609237671
1761401414677304000,1.922303955078125,0.714893639087677,-9.28074836730957,-2.61783504486084
1761401414687363300,1.93236328125,0.7231985330581665,-9.292645454406738,-2.636988639831543
1761401414697445600,1.942445556640625,0.707486629486084,-9.329680442810059,-2.680009603500366
1761401414707502600,1.952502685546875,0.6750152707099915,-9.3620023727417,-2.7228806018829346
1761401414717606400,1.9626064453125,0.6951414942741394,-9.369110107421875,-2.7396399974823
1761401414727687400,1.9726875,0.7202057838439941,-9.377340316772461,-2.7636568546295166
1761401414737768700,1.982768798828125,0.7202057838439941,-9.351078033447266,-2.754080057144165
1761401414747852000,1.99285205078125,0.7286603450775146,-9.336712837219238,-2.7361984252929688
1761401414757907200,2.0029072265625,0.7406313419342041,-9.314043045043945,-2.726696491241455
1761401414767988500,2.012988525390625,0.7263409495353699,-9.296161651611328,-2.7230303287506104
1761401414778072800,2.02307275390625,0.6988075971603394,-9.28074836730957,-2.733654499053955
1761401414788162300,2.033162353515625,0.6975356936454773,-9.268777847290039,-2.7682957649230957
1761401414798254000,2.043254150390625,0.7094318866729736,-9.287707328796387,-2.8197710514068604
1761401414808334800,2.0533349609375,0.678307294845581,-9.292645454406738,-2.830395221710205
1761401414818393600,2.0633935546875,0.6771101951599121,-9.310526847839355,-2.8232126235961914
1761401414828476200,2.07347607421875,0.6962637901306152,-9.317634582519531,-2.8185739517211914
1761401414838580500,2.08358056640625,0.6950666904449463,-9.31045150756836,-2.826878786087036
1761401414848658200,2.093658203125,0.6723217368125916,-9.261594772338867,-2.8315176963806152
1761401414858740000,2.103739990234375,0.6842927932739258,-9.237652778625488,-2.833986520767212
1761401414868799200,2.11379931640625,0.7093570828437805,-9.255459785461426,-2.8460323810577393
1761401414878901800,2.12390185546875,0.7077859044075012,-9.28067398071289,-2.8243350982666016
1761401414888965000,2.133965087890625,0.7234230041503906,-9.294964790344238,-2.8005425930023193
1761401414899041000,2.144041015625,0.7199065089225769,-9.30461597442627,-2.781388998031616
1761401414909121800,2.154121826171875,0.7343465685844421,-9.311723709106445,-2.736048698425293
1761401414919203300,2.164203369140625,0.7151929140090942,-9.318981170654297,-2.7467479705810547
1761401414929307400,2.174307373046875,0.7115268111228943,-9.324892044067383,-2.7789947986602783
1761401414939366400,2.184366455078125,0.7055413126945496,-9.30581283569336,-2.7789947986602783
1761401414949450500,2.194450439453125,0.718709409236908,-9.284265518188477,-2.7777976989746094
1761401414959529700,2.20452978515625,0.7071873545646667,-9.285387992858887,-2.7671735286712646
1761401414969608200,2.214608154296875,0.7096563577651978,-9.297358512878418,-2.754080057144165
1761401414979689000,2.22468896484375,0.7359925508499146,-9.291297912597656,-2.7386674880981445
1761401414989793000,2.23479296875,0.7587375044822693,-9.282843589782715,-2.729165554046631
1761401414999872800,2.244872802734375,0.7526771426200867,-9.291223526000977,-2.754229784011841
1761401415009922000,2.254922119140625,0.7514052391052246,-9.295936584472656,-2.775777578353882
1761401415020012500,2.265012451171875,0.7561188340187073,-9.297134399414062,-2.799644708633423
1761401415030099700,2.275099609375,0.7501333355903625,-9.317410469055176,-2.792462110519409
1761401415040197000,2.285197021484375,0.7395090460777283,-9.327061653137207,-2.750638484954834
1761401415050278400,2.2952783203125,0.7467664480209351,-9.31509017944336,-2.729165554046631
1761401415060337200,2.305337158203125,0.7598597407341003,-9.300724983215332,-2.743530750274658
1761401415070439700,2.315439697265625,0.763301432132721,-9.273192405700684,-2.7853543758392334
1761401415080498200,2.325498291015625,0.7609072327613831,-9.275586128234863,-2.797250509262085
1761401415090598100,2.33559814453125,0.762104332447052,-9.295862197875977,-2.793734073638916
1761401415100668000,2.34566796875,0.7597101330757141,-9.304242134094238,-2.7841572761535645
1761401415110764000,2.355763916015625,0.7477391362190247,-9.307908058166504,-2.7876737117767334
1761401415120844800,2.3658447265625,0.7223755717277527,-9.302072525024414,-2.826953649520874
1761401415130926300,2.37592626953125,0.7092074155807495,-9.273416519165039,-2.855534553527832
1761401415141006300,2.38600634765625,0.7067384123802185,-9.267431259155273,-2.877007484436035
1761401415151089200,2.396089111328125,0.7104045152664185,-9.262642860412598,-2.853140354156494
1761401415161169000,2.4061689453125,0.7189338803291321,-9.296086311340332,-2.7923126220703125
1761401415171249400,2.41624951171875,0.7597101330757141,-9.318681716918945,-2.751835584640503
1761401415181310200,2.426310302734375,0.7955483198165894,-9.319729804992676,-2.7543795108795166
1761401415191411000,2.436410888671875,0.8026561141014099,-9.308955192565918,-2.769941806793213
1761401415201470200,2.44647021484375,0.7978677153587341,-9.306561470031738,-2.762759208679199
1761401415211553000,2.456552978515625,0.8145523071289062,-9.301697731018066,-2.7771992683410645
1761401415221644300,2.466644287109375,0.8003367185592651,-9.307758331298828,-2.7567737102508545
1761401415231736300,2.476736328125,0.7812579274177551,-9.301847457885742,-2.741211414337158
1761401415241811200,2.486811279296875,0.741828441619873,-9.298480987548828,-2.733804225921631
1761401415251874600,2.49687451171875,0.7263409495353699,-9.291373252868652,-2.726621627807617
1761401415261978400,2.506978271484375,0.7083844542503357,-9.314118385314941,-2.731335163116455
1761401415272037000,2.517037109375,0.6940191984176636,-9.338134765625,-2.7288661003112793
1761401415282139600,2.5271396484375,0.707336962223053,-9.328483581542969,-2.71225643157959
1761401415292221200,2.53722119140625,0.7301567196846008,-9.317634582519531,-2.6872670650482178
1761401415302302500,2.547302490234375,0.7255179286003113,-9.314118385314941,-2.6513538360595703
1761401415312383200,2.55738330078125,0.7326257228851318,-9.327211380004883,-2.6502315998077393
1761401415322445800,2.56744580078125,0.7564929127693176,-9.349806785583496,-2.6694600582122803
1761401415332532200,2.5775322265625,0.7684639096260071,-9.358111381530762,-2.6599581241607666
1761401415342605800,2.587605712890625,0.7636755108833313,-9.366491317749023,-2.6671407222747803
1761401415352672300,2.59767236328125,0.7528268098831177,-9.356988906860352,-2.6850223541259766
1761401415362765000,2.60776513671875,0.7624036073684692,-9.355717658996582,-2.6838252544403076
1761401415372869000,2.617869140625,0.7529016137123108,-9.355792045593262,-2.657489061355591
1761401415382949600,2.62794970703125,0.7398831248283386,-9.370231628417969,-2.6216509342193604
1761401415393030400,2.638030517578125,0.714893639087677,-9.3620023727417,-2.6036195755004883
1761401415403099000,2.648098876953125,0.6897545456886292,-9.352499961853027,-2.611849546432495
1761401415413168600,2.658168701171875,0.6646154522895813,-9.350180625915527,-2.6332478523254395
1761401415423274000,2.66827392578125,0.652569591999054,-9.374122619628906,-2.648735284805298
1761401415433355500,2.67835546875,0.6801029443740845,-9.390732765197754,-2.6309282779693604
1761401415443412500,2.68841259765625,0.6917746663093567,-9.387290954589844,-2.59853196144104
1761401415453517000,2.69851708984375,0.6954407691955566,-9.351452827453613,-2.5674819946289062
1761401415463603200,2.708603271484375,0.7396587133407593,-9.327435493469238,-2.568828821182251
1761401415473679600,2.7186796875,0.7431751489639282,-9.33693790435791,-2.587982416152954
1761401415483760000,2.728760009765625,0.7478887438774109,-9.356016159057617,-2.608333110809326
1761401415493840600,2.738840576171875,0.7610568404197693,-9.378686904907227,-2.6024224758148193
1761401415503921400,2.74892138671875,0.7431003451347351,-9.389460563659668,-2.6023476123809814
1761401415513979600,2.758979736328125,0.7096563577651978,-9.381230354309082,-2.6010007858276367
1761401415524083200,2.769083251953125,0.7196072340011597,-9.37389850616455,-2.611999273300171
1761401415534164500,2.77916455078125,0.7184101343154907,-9.3643217086792,-2.608407974243164
1761401415544245200,2.789245361328125,0.692148745059967,-9.365668296813965,-2.6046669483184814
1761401415554327000,2.7993271484375,0.6646902561187744,-9.362226486206055,-2.6033949851989746
1761401415564430800,2.809430908203125,0.6622960567474365,-9.351452827453613,-2.6045174598693848
1761401415574487300,2.8194873046875,0.689679741859436,-9.363273620605469,-2.6226234436035156
1761401415584586800,2.829586669921875,0.7171382308006287,-9.363123893737793,-2.631078004837036
1761401415594627600,2.839627685546875,0.7398831248283386,-9.371429443359375,-2.628833532333374
1761401415604732000,2.84973193359375,0.7530512809753418,-9.37853717803955,-2.6217257976531982
1761401415614813000,2.85981298828125,0.7338976263999939,-9.369034767150879,-2.6263644695281982
1761401415624893400,2.8698935546875,0.7183353304862976,-9.348758697509766,-2.629880905151367
1761401415634951400,2.879951416015625,0.7039701342582703,-9.350030899047852,-2.653748035430908
1761401415645034800,2.89003466796875,0.7386112213134766,-9.334319114685059,-2.651503562927246
1761401415655113200,2.90011328125,0.7684639096260071,-9.342623710632324,-2.651578426361084
1761401415665217500,2.910217529296875,0.7936030626296997,-9.332972526550293,-2.6385598182678223
1761401415675298300,2.92029833984375,0.7684639096260071,-9.334243774414062,-2.6599581241607666
1761401415685378800,2.93037890625,0.7469161152839661,-9.342623710632324,-2.6837503910064697
1761401415695459600,2.94045947265625,0.7312789559364319,-9.325939178466797,-2.706420660018921
1761401415705518300,2.950518310546875,0.7300818562507629,-9.312846183776855,-2.706345796585083
1761401415715604700,2.960604736328125,0.7228992581367493,-9.30805778503418,-2.703951597213745
1761401415725680600,2.9706806640625,0.7300070524215698,-9.333122253417969,-2.731484889984131
1761401415735783200,2.980783203125,0.7371148467063904,-9.321150779724121,-2.7410616874694824
1761401415745852200,2.99085205078125,0.7610568404197693,-9.331775665283203,-2.742408514022827
1761401415755945700,3.00094580078125,0.7789385318756104,-9.336488723754883,-2.7591679096221924
1761401415766004000,3.01100390625,0.820687472820282,-9.331476211547852,-2.7748796939849854
1761401415776108300,3.0211083984375,0.819490373134613,-9.313593864440918,-2.7676970958709717
1761401415786189000,3.03118896484375,0.8100631833076477,-9.285013198852539,-2.734178304672241
1761401415796269600,3.04126953125,0.7957727909088135,-9.265934944152832,-2.736497640609741
1761401415806351000,3.05135107421875,0.7681646347045898,-9.293542861938477,-2.751910448074341
1761401415816408800,3.061408935546875,0.7238719463348389,-9.305588722229004,-2.772036552429199
1761401415826507000,3.071507080078125,0.6976104974746704,-9.302146911621094,-2.7743561267852783
1761401415836555500,3.081555419921875,0.6952162981033325,-9.30813217163086,-2.7659764289855957
1761401415846653200,3.091653076171875,0.6949170231819153,-9.342923164367676,-2.745476007461548
1761401415856755200,3.101755126953125,0.6913257241249084,-9.339406967163086,-2.744278907775879
1761401415866818600,3.111818603515625,0.7236474752426147,-9.295039176940918,-2.7216835021972656
1761401415876894500,3.12189453125,0.7499836683273315,-9.291373252868652,-2.7158477306365967
1761401415887002000,3.132002197265625,0.7547720670700073,-9.318831443786621,-2.7170448303222656
1761401415897078000,3.142078125,0.7677905559539795,-9.325939178466797,-2.7374703884124756
1761401415907164200,3.1521640625,0.7761702537536621,-9.354595184326172,-2.7374703884124756
1761401415917240300,3.162240234375,0.7655459642410278,-9.354669570922852,-2.706420660018921
1761401415927322000,3.172322021484375,0.749160647392273,-9.340229988098145,-2.7112836837768555
1761401415937403400,3.1824033203125,0.7515549063682556,-9.322273254394531,-2.7124807834625244
1761401415947478300,3.192478271484375,0.7682394981384277,-9.305438995361328,-2.7352259159088135
1761401415957565200,3.202565185546875,0.7719056010246277,-9.274389266967773,-2.724451780319214
1761401415967646200,3.212646240234375,0.786270797252655,-9.275586128234863,-2.7041759490966797
1761401415977726500,3.2227265625,0.7731027007102966,-9.27917766571045,-2.7064952850341797
1761401415987807500,3.232807373046875,0.7431751489639282,-9.28882884979248,-2.7231051921844482
1761401415997889800,3.242889892578125,0.7025485634803772,-9.316512107849121,-2.7253496646881104
1761401416007970600,3.252970458984375,0.6786065697669983,-9.317784309387207,-2.7300631999969482
1761401416018051000,3.263051025390625,0.7096563577651978,-9.329605102539062,-2.7409868240356445
1761401416028130800,3.273130859375,0.7406313419342041,-9.340229988098145,-2.7578210830688477
1761401416038212400,3.28321240234375,0.7801356315612793,-9.362750053405762,-2.73769474029541
1761401416048294000,3.2932939453125,0.8004863858222961,-9.35309886932373,-2.7246763706207275
1761401416058356000,3.30335595703125,0.7945756912231445,-9.319729804992676,-2.713827610015869
1761401416068432000,3.313431884765625,0.8112602829933167,-9.314866065979004,-2.7270705699920654
1761401416078514200,3.32351416015625,0.8087912797927856,-9.311274528503418,-2.7497406005859375
1761401416088595000,3.333594970703125,0.7920318245887756,-9.300576210021973,-2.771138906478882
1761401416098698500,3.343698486328125,0.7896376252174377,-9.289801597595215,-2.785504102706909
1761401416108778200,3.3537783203125,0.7705588340759277,-9.289876937866211,-2.7602901458740234
1761401416118860300,3.3638603515625,0.7562684416770935,-9.280449867248535,-2.7411365509033203
1761401416128937500,3.3739375,0.7455693483352661,-9.291223526000977,-2.727893590927124
1761401416138979300,3.383979248046875,0.7335983514785767,-9.31157398223877,-2.727893590927124
1761401416149103600,3.394103515625,0.7312041521072388,-9.331924438476562,-2.725499391555786
1761401416159183600,3.40418359375,0.7550713419914246,-9.34853458404541,-2.724451780319214
1761401416169266000,3.414265869140625,0.7789385318756104,-9.3497314453125,-2.698190450668335
1761401416179345700,3.424345703125,0.7981669902801514,-9.330503463745117,-2.6791117191314697
1761401416189427500,3.434427490234375,0.8125321865081787,-9.336488723754883,-2.672078847885132
1761401416199499300,3.444499267578125,0.8160486817359924,-9.328034400939941,-2.6839749813079834
1761401416209566200,3.454566162109375,0.7945008873939514,-9.344868659973145,-2.693476915359497
1761401416219669800,3.464669677734375,0.7778162956237793,-9.340154647827148,-2.695796251296997
1761401416229750300,3.474750244140625,0.741828441619873,-9.321150779724121,-2.7195138931274414
1761401416239831300,3.484831298828125,0.7417536377906799,-9.317559242248535,-2.7445781230926514
1761401416249913000,3.4949130859375,0.7484124898910522,-9.320926666259766,-2.716221809387207
1761401416259993600,3.50499365234375,0.7318027019500732,-9.340154647827148,-2.676717519760132
1761401416270074600,3.51507470703125,0.7389853000640869,-9.341352462768555,-2.6624271869659424
1761401416280155400,3.5251552734375,0.7497591972351074,-9.324592590332031,-2.669609785079956
1761401416290237000,3.53523681640625,0.7496843934059143,-9.311424255371094,-2.6862943172454834
1761401416300294700,3.545294677734375,0.7448211908340454,-9.299453735351562,-2.719738245010376
1761401416310375400,3.55537548828125,0.7686883807182312,-9.29458999633789,-2.7317841053009033
1761401416320457200,3.565457275390625,0.7627776861190796,-9.319729804992676,-2.7103111743927
1761401416330539500,3.57553955078125,0.761954665184021,-9.34269905090332,-2.6955718994140625
1761401416340641800,3.585641845703125,0.7644237279891968,-9.373823165893555,-2.676492929458618
1761401416350722800,3.595722900390625,0.7668927311897278,-9.386917114257812,-2.651428699493408
1761401416360804600,3.6058046875,0.7310545444488525,-9.363199234008789,-2.6524763107299805
1761401416370884600,3.615884521484375,0.7154921889305115,-9.340529441833496,-2.6547956466674805
1761401416380966000,3.6259658203125,0.6939443945884705,-9.342998504638672,-2.667814016342163
1761401416391045600,3.636045654296875,0.68317049741745,-9.362226486206055,-2.666616916656494
1761401416401128200,3.646128173828125,0.6928220987319946,-9.354969024658203,-2.648735284805298
1761401416411209000,3.656208984375,0.7232733964920044,-9.333196640014648,-2.633547067642212
1761401416421289200,3.666289306640625,0.7436240911483765,-9.316362380981445,-2.632424831390381
1761401416431370500,3.67637060546875,0.7412298917770386,-9.324742317199707,-2.6348190307617188
1761401416441428000,3.686427978515625,0.7327753305435181,-9.331924438476562,-2.650306463241577
1761401416451532500,3.696532470703125,0.7208791971206665,-9.337985038757324,-2.6466403007507324
1761401416461613600,3.706613525390625,0.7220762968063354,-9.361852645874023,-2.63594126701355
1761401416471671000,3.716671142578125,0.7172878384590149,-9.382203102111816,-2.6203789710998535
1761401416481774800,3.72677490234375,0.7136965394020081,-9.37741470336914,-2.6251673698425293
1761401416491856400,3.7368564453125,0.7419032454490662,-9.351153373718262,-2.6525509357452393
1761401416501937700,3.746937744140625,0.7526771426200867,-9.335591316223145,-2.6478374004364014
1761401416511995600,3.75699560546875,0.7419780492782593,-9.34157657623291,-2.6501567363739014
1761401416522076700,3.76707666015625,0.7562684416770935,-9.349881172180176,-2.657414197921753
1761401416532180200,3.77718017578125,0.7765443325042725,-9.347412109375,-2.6610803604125977
1761401416542261000,3.787260986328125,0.7860463261604309,-9.359308242797852,-2.671929121017456
1761401416552342000,3.797342041015625,0.7777414321899414,-9.335441589355469,-2.677839756011963
1761401416562422800,3.8074228515625,0.7752724289894104,-9.349806785583496,-2.6897358894348145
1761401416572503600,3.817503662109375,0.7585878372192383,-9.358186721801758,-2.702903985977173
1761401416582556700,3.827556640625,0.7466916441917419,-9.335515975952148,-2.6956467628479004
1761401416592665600,3.83766552734375,0.7539491057395935,-9.317559242248535,-2.6837503910064697
1761401416602746400,3.847746337890625,0.7515549063682556,-9.340304374694824,-2.6657938957214355
1761401416612804900,3.857804931640625,0.7671172022819519,-9.336638450622559,-2.6586861610412598
1761401416622885400,3.867885498046875,0.7599346041679382,-9.315165519714355,-2.677764892578125
1761401416632989700,3.87798974609375,0.7742249965667725,-9.297208786010742,-2.6897358894348145
1761401416643071000,3.888071044921875,0.783801794052124,-9.294739723205566,-2.699387550354004
1761401416653151500,3.8981513671875,0.787467896938324,-9.329306602478027,-2.7054479122161865
1761401416663232800,3.908232666015625,0.7755717039108276,-9.319804191589355,-2.694599151611328
1761401416673312800,3.918312744140625,0.7552210092544556,-9.329455375671387,-2.700509786605835
1761401416683395000,3.92839501953125,0.7312789559364319,-9.34269905090332,-2.7124061584472656
1761401416693475300,3.938475341796875,0.7383867502212524,-9.364171981811523,-2.724377155303955
1761401416703555800,3.948555908203125,0.7718307971954346,-9.356839179992676,-2.7293150424957275
1761401416713637400,3.958637451171875,0.8173205852508545,-9.326837539672852,-2.7008092403411865
1761401416723718100,3.96871826171875,0.7948001623153687,-9.294665336608887,-2.666018486022949
1761401416733776600,3.978776611328125,0.8018330931663513,-9.29346752166748,-2.688763380050659
1761401416743857400,3.988857421875,0.8089408874511719,-9.305289268493652,-2.7222821712493896
1761401416753961200,3.998961181640625,0.8063970804214478,-9.335142135620117,-2.7473464012145996
1761401416764019000,4.00901904296875,0.8135796785354614,-9.324368476867676,-2.764105796813965
1761401416774124000,4.0191240234375,0.7979425191879272,-9.324442863464355,-2.7783963680267334
1761401416784204000,4.0292041015625,0.782380223274231,-9.348384857177734,-2.7843070030212402
1761401416794285300,4.039285400390625,0.7835025191307068,-9.351901054382324,-2.8022634983062744
1761401416804366300,4.049366455078125,0.784849226474762,-9.3543701171875,-2.7700164318084717
1761401416814447600,4.059447509765625,0.8105120658874512,-9.320701599121094,-2.7117326259613037
1761401416824527000,4.069527099609375,0.8094646334648132,-9.294440269470215,-2.686593532562256
1761401416834609200,4.079609130859375,0.8022072315216064,-9.268178939819336,-2.7079918384552
1761401416844690700,4.089690673828125,0.7877671718597412,-9.29690933227539,-2.740238666534424
1761401416854769700,4.099769775390625,0.7746738791465759,-9.31845760345459,-2.7246763706207275
1761401416864820200,4.1098203125,0.7615057826042175,-9.337611198425293,-2.7198879718780518
1761401416874893600,4.1198935546875,0.7686135768890381,-9.35309886932373,-2.736647367477417
1761401416895080200,4.140080078125,0.7906851172447205,-9.343596458435059,-2.7783215045928955
1761401416905175800,4.15017578125,0.8025813102722168,-9.292196273803711,-2.796203136444092
1761401416915256300,4.16025634765625,0.8037784099578857,-9.262269020080566,-2.8021886348724365
1761401416925337600,4.170337646484375,0.7942764163017273,-9.271920204162598,-2.789020538330078
1761401416935418600,4.180418701171875,0.7991396188735962,-9.282693862915039,-2.7555766105651855
1761401416945499600,4.190499755859375,0.7813327312469482,-9.297134399414062,-2.724451780319214
1761401416955580700,4.20058056640625,0.782529890537262,-9.304316520690918,-2.7124807834625244
1761401416965662000,4.210661865234375,0.7896376252174377,-9.289876937866211,-2.7352259159088135
1761401416975742200,4.2207421875,0.7969698905944824,-9.271845817565918,-2.7700164318084717
1761401416985823200,4.2308232421875,0.7968950867652893,-9.289727210998535,-2.7963528633117676
1761401416995904500,4.240904541015625,0.8363245725631714,-9.311050415039062,-2.7846062183380127
1761401417005985500,4.250985595703125,0.8399158716201782,-9.314641952514648,-2.782212018966675
1761401417016066600,4.261066650390625,0.8232312798500061,-9.320701599121094,-2.779742956161499
1761401417026147300,4.271147216796875,0.8040028810501099,-9.32197380065918,-2.7904419898986816
1761401417036228600,4.281228515625,0.7705588340759277,-9.322123527526855,-2.790292501449585
1761401417046309600,4.2913095703125,0.7634510397911072,-9.325715065002441,-2.7735331058502197
1761401417056390000,4.301389892578125,0.7933785915374756,-9.301697731018066,-2.756923198699951
1761401417066470400,4.311470458984375,0.7851485013961792,-9.28030014038086,-2.7353005409240723
1761401417086611700,4.33161181640625,0.7993640899658203,-9.319580078125,-2.7688941955566406
1761401417096713500,4.34171337890625,0.804077684879303,-9.305214881896973,-2.7736825942993164
1761401417106795000,4.351794921875,0.7957727909088135,-9.28613567352295,-2.767622232437134
1761401417116876300,4.361876220703125,0.7921814918518066,-9.299304008483887,-2.7556512355804443
1761401417126958600,4.37195849609375,0.7778162956237793,-9.323246002197266,-2.765228033065796
1761401417137042200,4.382042236328125,0.7934533953666687,-9.319580078125,-2.7688941955566406
1761401417147118600,4.39211865234375,0.805349588394165,-9.330278396606445,-2.7881226539611816
1761401417157203500,4.402203369140625,0.8077437877655029,-9.308731079101562,-2.7940332889556885
1761401417167282200,4.4122822265625,0.8123825788497925,-9.276409149169922,-2.8394484519958496
1761401417177361000,4.42236083984375,0.8325836658477783,-9.239224433898926,-2.8861353397369385
1761401417187443000,4.43244287109375,0.8445546627044678,-9.238027572631836,-2.876633405685425
1761401417197501000,4.4425009765625,0.8208370804786682,-9.262043952941895,-2.829946517944336
1761401417207604700,4.452604736328125,0.7934533953666687,-9.249100685119629,-2.783184766769409
1761401417217685200,4.462685302734375,0.772279679775238,-9.239972114562988,-2.7730841636657715
1761401417227766500,4.4727666015625,0.7625532150268555,-9.274613380432129,-2.806528091430664
1761401417237847600,4.48284765625,0.7935281991958618,-9.309104919433594,-2.848501443862915
1761401417247928000,4.492927978515625,0.8137292861938477,-9.295862197875977,-2.8749125003814697
1761401417257996800,4.502996826171875,0.8508394360542297,-9.265859603881836,-2.8559086322784424
1761401417268091100,4.513091064453125,0.8640823364257812,-9.288530349731445,-2.8285248279571533
1761401417278152000,4.52315185546875,0.8762030005455017,-9.332673072814941,-2.7795934677124023
1761401417288251400,4.53325146484375,0.8809913992881775,-9.342249870300293,-2.761711597442627
1761401417298332400,4.54333251953125,0.8506149649620056,-9.293169021606445,-2.759467124938965
1761401417308413700,4.55341357421875,0.8159738779067993,-9.25748062133789,-2.764030933380127
1761401417318494500,4.563494384765625,0.8111854791641235,-9.256282806396484,-2.7712135314941406
1761401417328575700,4.57357568359375,0.8326584696769714,-9.28845500946045,-2.7724854946136475
1761401417338651100,4.583651123046875,0.8577975630760193,-9.330129623413086,-2.7631332874298096
1761401417348737800,4.59373779296875,0.8661024570465088,-9.320552825927734,-2.7655274868011475
1761401417358818800,4.60381884765625,0.8756044507026672,-9.29301929473877,-2.7906665802001953
1761401417368899800,4.61389990234375,0.8851064443588257,-9.255908966064453,-2.8300960063934326
1761401417378980900,4.62398095703125,0.9064298272132874,-9.255759239196777,-2.8755857944488525
1761401417389062000,4.634061767578125,0.91712886095047,-9.267655372619629,-2.883965492248535
1761401417399143200,4.64414306640625,0.9244611263275146,-9.264063835144043,-2.8517935276031494
1761401417409225200,4.65422509765625,0.8898948431015015,-9.27259349822998,-2.814608573913574
1761401417419304700,4.6643046875,0.8732102513313293,-9.297807693481445,-2.803759813308716
1761401417429386000,4.674385986328125,0.8552537560462952,-9.3026704788208,-2.80129075050354
1761401417439450000,4.6844501953125,0.8611644506454468,-9.299004554748535,-2.825232744216919
1761401417449547500,4.694547607421875,0.8622866868972778,-9.29301929473877,-2.849100112915039
1761401417459628500,4.704628662109375,0.87163907289505,-9.278728485107422,-2.8430397510528564
1761401417469709800,4.714709716796875,0.8750807046890259,-9.278728485107422,-2.877755641937256
1761401417479769000,4.72476904296875,0.8703671097755432,-9.275136947631836,-2.8645875453948975
1761401417489870800,4.734870849609375,0.8798691034317017,-9.271546363830566,-2.877755641937256
1761401417499952600,4.74495263671875,0.8859294652938843,-9.260771751403809,-2.852691411972046
1761401417510033200,4.755033203125,0.8860790729522705,-9.258378028869629,-2.8191723823547363
1761401417520114400,4.765114501953125,0.8991723656654358,-9.264288902282715,-2.8168530464172363
1761401417530195000,4.77519482421875,0.8836848735809326,-9.279925346374512,-2.8120646476745605
1761401417540274700,4.785274658203125,0.8898948431015015,-9.303718566894531,-2.8098201751708984
1761401417550356500,4.7953564453125,0.8599673509597778,-9.29421615600586,-2.821641445159912
1761401417560417800,4.805417724609375,0.8527846932411194,-9.272743225097656,-2.82515811920166
1761401417570519600,4.81551953125,0.8516624569892883,-9.26563549041748,-2.8167781829833984
1761401417580599800,4.825599853515625,0.8624363541603088,-9.281123161315918,-2.806079149246216
1761401417590681000,4.83568115234375,0.8444798588752747,-9.312247276306152,-2.8084733486175537
1761401417600739800,4.84573974609375,0.8683470487594604,-9.316885948181152,-2.8157308101654053
1761401417610821400,4.8558212890625,0.8672247529029846,-9.285911560058594,-2.802562713623047
1761401417620924000,4.865923828125,0.867598831653595,-9.279776573181152,-2.819471836090088
1761401417631004200,4.876004150390625,0.8616133332252502,-9.27139663696289,-2.822988271713257
1761401417641087000,4.8860869140625,0.8867524266242981,-9.26294231414795,-2.7968015670776367
1761401417651167500,4.89616748046875,0.8952069878578186,-9.268927574157715,-2.768220901489258
1761401417661247500,4.90624755859375,0.8892214894294739,-9.2725191116333,-2.7801170349121094
1761401417671329300,4.916329345703125,0.8878747224807739,-9.27603530883789,-2.8207437992095947
1761401417681409000,4.926408935546875,0.8781483173370361,-9.268852233886719,-2.882843255996704
1761401417691490800,4.93649072265625,0.8458265662193298,-9.241543769836426,-2.898181200027466
1761401417701571000,4.946571044921875,0.8394669890403748,-9.252467155456543,-2.901547908782959
1761401417711652400,4.95665234375,0.8382698893547058,-9.26563549041748,-2.8884546756744385
1761401417721732600,4.966732666015625,0.8646808862686157,-9.284639358520508,-2.853888511657715
1761401417731814700,4.976814697265625,0.9030629396438599,-9.301249504089355,-2.8015153408050537
1761401417741872600,4.98687255859375,0.9056068062782288,-9.315614700317383,-2.7632827758789062
1761401417751961300,4.99696142578125,0.9091981053352356,-9.294066429138184,-2.766874074935913
1761401417762057700,5.0070576171875,0.8923638463020325,-9.26907730102539,-2.799046277999878
1761401417772138200,5.01713818359375,0.8850316405296326,-9.247529029846191,-2.8384008407592773
1761401417782218500,5.027218505859375,0.8875754475593567,-9.279701232910156,-2.844536066055298
1761401417792300800,5.03730078125,0.8732102513313293,-9.289353370666504,-2.8372786045074463
1761401417802381300,5.04738134765625,0.8506149649620056,-9.288305282592773,-2.8120646476745605
1761401417812463000,5.057463134765625,0.8375216722488403,-9.282394409179688,-2.798896551132202
1761401417822542600,5.06754248046875,0.8328080773353577,-9.28957748413086,-2.7737574577331543
1761401417832624000,5.0776240234375,0.8363993763923645,-9.306336402893066,-2.7630584239959717
1761401417842703600,5.08770361328125,0.8363993763923645,-9.308731079101562,-2.75348162651062
1761401417852787000,5.097786865234375,0.8471733331680298,-9.297882080078125,-2.753556489944458
1761401417862867200,5.1078671875,0.8620622754096985,-9.294515609741211,-2.7449522018432617
1761401417872948000,5.117947998046875,0.8669254779815674,-9.32077693939209,-2.7282676696777344
1761401417883029000,5.128029052734375,0.8693196773529053,-9.329156875610352,-2.7270705699920654
1761401417893087200,5.138087158203125,0.8788216710090637,-9.312397003173828,-2.737844467163086
1761401417903191300,5.14819140625,0.8667758107185364,-9.296834945678711,-2.7688193321228027
1761401417913272300,5.158272216796875,0.8690952062606812,-9.272892951965332,-2.8022634983062744
1761401417923353000,5.16835302734375,0.8522610068321228,-9.281347274780273,-2.830919027328491
1761401417933432600,5.1784326171875,0.8390928506851196,-9.265859603881836,-2.8320412635803223
1761401417943515000,5.188514892578125,0.8396914005279541,-9.271620750427246,-2.8203697204589844
1761401417953596000,5.198595947265625,0.8589198589324951,-9.282320022583008,-2.7846062183380127
1761401417963677000,5.208677001953125,0.8613888621330261,-9.294290542602539,-2.753556489944458
1761401417973757700,5.2187578125,0.8625859618186951,-9.299078941345215,-2.7655274868011475
1761401417983839200,5.228839111328125,0.8671499490737915,-9.314566612243652,-2.8109424114227295
1761401417993896700,5.238896728515625,0.875454843044281,-9.324069023132324,-2.8336873054504395
1761401418004000800,5.249000732421875,0.8803180456161499,-9.29653549194336,-2.820519208908081
1761401418014050000,5.259050048828125,0.8900445103645325,-9.281047821044922,-2.777573347091675
1761401418024162600,5.26916259765625,0.8877251148223877,-9.301399230957031,-2.7393407821655273
1761401418034242800,5.279242919921875,0.8769512176513672,-9.302596092224121,-2.7416601181030273
1761401418044323800,5.28932373046875,0.8327332735061646,-9.304017066955566,-2.756998062133789
1761401418054405000,5.299405029296875,0.8051251173019409,-9.312472343444824,-2.7736079692840576
1761401418064486700,5.309486572265625,0.7824550271034241,-9.330428123474121,-2.7759273052215576
1761401418074580000,5.319580078125,0.7955483198165894,-9.307683944702148,-2.790292501449585
1761401418084648400,5.3296484375,0.8242787718772888,-9.301623344421387,-2.7880477905273438
1761401418094729200,5.339729248046875,0.8709656596183777,-9.282320022583008,-2.7667245864868164
1761401418104810000,5.34981005859375,0.861463725566864,-9.305065155029297,-2.723703622817993
1761401418114890000,5.359889892578125,0.8328829407691956,-9.304017066955566,-2.7032034397125244
1761401418124972500,5.36997265625,0.8316109776496887,-9.280150413513184,-2.73305606842041
1761401418135053600,5.380053466796875,0.8470984697341919,-9.251344680786133,-2.762983560562134
1761401418145111600,5.390111572265625,0.8434323668479919,-9.285985946655273,-2.7701661586761475
1761401418155215000,5.400215087890625,0.8709656596183777,-9.339706420898438,-2.745251417160034
1761401418165295900,5.4102958984375,0.8973019123077393,-9.359907150268555,-2.7346272468566895
1761401418175377000,5.420376953125,0.8972271084785461,-9.358634948730469,-2.7525837421417236
1761401418185457700,5.430457763671875,0.9173533320426941,-9.355043411254883,-2.76814603805542
1761401418195539700,5.440539794921875,0.8922142386436462,-9.334842681884766,-2.777573347091675
1761401418205620000,5.450619873046875,0.8684218525886536,-9.281197547912598,-2.7702410221099854
1761401418215701200,5.460701171875,0.8361749649047852,-9.245509147644043,-2.759317398071289
1761401418225782300,5.4707822265625,0.8218845725059509,-9.253889083862305,-2.7556512355804443
1761401418235863300,5.48086328125,0.819490373134613,-9.286211013793945,-2.7496657371520996
1761401418245943300,5.490943359375,0.8075193166732788,-9.314866065979004,-2.7532570362091064
1761401418256023600,5.5010234375,0.8254758715629578,-9.3172607421875,-2.737769603729248
1761401418266069500,5.511069580078125,0.8433575630187988,-9.304017066955566,-2.7474212646484375
1761401418276187400,5.5211875,0.8576479554176331,-9.293169021606445,-2.760664224624634
1761401418286267100,5.53126708984375,0.8599673509597778,-9.295562744140625,-2.779742956161499
1761401418296326700,5.54132666015625,0.8491933941841125,-9.296759605407715,-2.7904419898986816
1761401418306429200,5.55142919921875,0.8503904938697815,-9.30154800415039,-2.782137155532837
1761401418316511000,5.561510986328125,0.8504653573036194,-9.275286674499512,-2.778470993041992
1761401418326591500,5.571591552734375,0.8325088024139404,-9.290849685668945,-2.7748796939849854
1761401418336650200,5.581650146484375,0.8277952671051025,-9.313593864440918,-2.764105796813965
1761401418346752500,5.59175244140625,0.8394669890403748,-9.343522071838379,-2.7437551021575928
1761401418356834300,5.601834228515625,0.8503156900405884,-9.325565338134766,-2.7210850715637207
1761401418366915000,5.6119150390625,0.8790461421012878,-9.301623344421387,-2.713977336883545
1761401418376998700,5.62199853515625,0.8729857802391052,-9.283666610717773,-2.7474212646484375
1761401418387077600,5.63207763671875,0.8824129700660706,-9.26802921295166,-2.779742956161499
1761401418397160400,5.642160400390625,0.8763526678085327,-9.275212287902832,-2.804807186126709
1761401418407216400,5.65221630859375,0.8692448735237122,-9.3003511428833,-2.7940332889556885
1761401418417320400,5.662320556640625,0.8477718830108643,-9.317185401916504,-2.784381866455078
1761401418427380500,5.67238037109375,0.8352771401405334,-9.321749687194824,-2.771512985229492
1761401418437460000,5.6824599609375,0.8281693458557129,-9.331400871276855,-2.7619361877441406
1761401418447563000,5.69256298828125,0.8162731528282166,-9.320701599121094,-2.733205795288086
1761401418457642800,5.702642822265625,0.8043769598007202,-9.29922866821289,-2.7247512340545654
1761401418467724800,5.712724853515625,0.8187421560287476,-9.28725814819336,-2.7259483337402344
1761401418477783300,5.722783203125,0.8713397979736328,-9.282245635986328,-2.719064950942993
1761401418487886000,5.732885986328125,0.8976011872291565,-9.312023162841797,-2.725125312805176
1761401418497967400,5.74296728515625,0.9083002805709839,-9.29878044128418,-2.7502644062042236
1761401418508048600,5.753048583984375,0.8979004621505737,-9.315764427185059,-2.796577215194702
1761401418518129700,5.763129638671875,0.8727613091468811,-9.314641952514648,-2.8119897842407227
1761401418528227000,5.77322705078125,0.8500164151191711,-9.304017066955566,-2.8274025917053223
1761401418538291200,5.783291259765625,0.8428338170051575,-9.296834945678711,-2.8190228939056396
1761401418548338400,5.79333837890625,0.8477718830108643,-9.292120933532715,-2.7736079692840576
1761401418558453000,5.803452880859375,0.8217349052429199,-9.2910737991333,-2.701781749725342
1761401418568534500,5.813534423828125,0.8170213103294373,-9.301847457885742,-2.6862194538116455
1761401418578592300,5.82359228515625,0.840888500213623,-9.313743591308594,-2.697143077850342
1761401418588696000,5.833696044921875,0.8314613699913025,-9.29690933227539,-2.741360902786255
1761401418598777000,5.843777099609375,0.8587702512741089,-9.280000686645508,-2.782137155532837
1761401418608857600,5.853857666015625,0.87665194272995,-9.29189682006836,-2.7929859161376953
1761401418618939400,5.863939453125,0.894533634185791,-9.324069023132324,-2.801440477371216
1761401418629020200,5.874020263671875,0.8981249332427979,-9.338358879089355,-2.797924041748047
1761401418639100700,5.8841005859375,0.9148843288421631,-9.33349609375,-2.8075008392333984
1761401418649182500,5.894182373046875,0.9088988304138184,-9.319205284118652,-2.8039095401763916
1761401418659263000,5.904262939453125,0.8778490424156189,-9.29421615600586,-2.802562713623047
1761401418669301500,5.914301513671875,0.8576479554176331,-9.284789085388184,-2.776151657104492
1761401418679402800,5.92440283203125,0.838569164276123,-9.295638084411621,-2.7414357662200928
1761401418689506000,5.934506103515625,0.8147767782211304,-9.296984672546387,-2.7222073078155518
1761401418699586800,5.9445869140625,0.7968950867652893,-9.288679122924805,-2.717344045639038
1761401418709680000,5.95468017578125,0.802730917930603,-9.285088539123535,-2.748394012451172
1761401418719748600,5.96474853515625,0.8277952671051025,-9.289727210998535,-2.7664999961853027
1761401418729830000,5.974829833984375,0.8384943008422852,-9.302820205688477,-2.7748796939849854
1761401418739910400,5.984910400390625,0.8504653573036194,-9.30154800415039,-2.760589361190796
1761401418749991700,5.99499169921875,0.8497171401977539,-9.287108421325684,-2.75003981590271
1761401418760072200,6.005072265625,0.8604910373687744,-9.285836219787598,-2.748842716217041
1761401418770153700,6.01515380859375,0.8699930310249329,-9.308506965637207,-2.77046537399292
1761401418780214300,6.02521435546875,0.866401731967926,-9.328857421875,-2.764479875564575
1761401418790315500,6.0353154296875,0.8615385293960571,-9.320477485656738,-2.7835588455200195
1761401418800396500,6.045396484375,0.8627356290817261,-9.313295364379883,-2.7787704467773438
1761401418810478300,6.055478271484375,0.8723124265670776,-9.303718566894531,-2.7811646461486816
1761401418820558300,6.065558349609375,0.866401731967926,-9.324069023132324,-2.769268274307251
1761401418830639400,6.075639404296875,0.8502408862113953,-9.325565338134766,-2.7557260990142822
1761401418840698600,6.08569873046875,0.8239794969558716,-9.290999412536621,-2.7519853115081787
1761401418850801400,6.095801513671875,0.834678590297699,-9.265859603881836,-2.768744707107544
1761401418860881400,6.10588134765625,0.8394669890403748,-9.288604736328125,-2.759242534637451
1761401418870948400,6.1159482421875,0.8539069890975952,-9.299304008483887,-2.7329812049865723
1761401418881044200,6.126044189453125,0.8515127897262573,-9.32197380065918,-2.7210850715637207
1761401418891125200,6.136125244140625,0.8515127897262573,-9.32197380065918,-2.7270705699920654
1761401418901206300,6.146206298828125,0.8418611884117126,-9.326762199401855,-2.7556512355804443
1761401418911287800,6.156287841796875,0.8699182271957397,-9.309703826904297,-2.7764508724212646
1761401418921368600,6.16636865234375,0.8771008253097534,-9.285761833190918,-2.7776479721069336
1761401418931448800,6.17644873046875,0.8759785294532776,-9.29533863067627,-2.7596914768218994
1761401418941529600,6.186529541015625,0.8580220341682434,-9.314566612243652,-2.7584197521209717
1761401418951610400,6.1966103515625,0.825775146484375,-9.309927940368652,-2.759467124938965
1761401418961692400,6.2066923828125,0.8006359934806824,-9.2980318069458,-2.782062292098999
1761401418971773200,6.216773193359375,0.8006359934806824,-9.295638084411621,-2.7736825942993164
1761401418981851600,6.2268515625,0.8161983489990234,-9.315913200378418,-2.7678468227386475
1761401418991935500,6.236935546875,0.8515875935554504,-9.319580078125,-2.7414357662200928
1761401419002015700,6.247015625,0.8612392544746399,-9.292046546936035,-2.7223570346832275
1761401419012078800,6.257078857421875,0.8468740582466125,-9.272967338562012,-2.734178304672241
1761401419022178300,6.26717822265625,0.8634837865829468,-9.26211929321289,-2.782062292098999
1761401419032240000,6.277240234375,0.8776245713233948,-9.29069995880127,-2.823961019515991
1761401419052420000,6.297420166015625,0.8860042691230774,-9.322946548461914,-2.820444345474243
1761401419062501600,6.307501708984375,0.9040355682373047,-9.344345092773438,-2.7918636798858643
1761401419072583000,6.3175830078125,0.881589949131012,-9.344345092773438,-2.7847559452056885
1761401419082664400,6.32766455078125,0.8517372608184814,-9.315838813781738,-2.7714381217956543
1761401419092744000,6.337743896484375,0.8470236659049988,-9.280000686645508,-2.77854585647583
1761401419102826200,6.347826171875,0.8362497687339783,-9.247828483581543,-2.7700912952423096
1761401419112907300,6.3579072265625,0.8280196785926819,-9.258602142333984,-2.7473464012145996
1761401419122987000,6.367987060546875,0.8352022767066956,-9.295638084411621,-2.736722230911255
1761401419133068300,6.378068359375,0.8530091643333435,-9.32421875,-2.749965190887451
1761401419143120000,6.388119873046875,0.862511157989502,-9.318158149719238,-2.7667245864868164
1761401419153230300,6.398230224609375,0.8658779859542847,-9.308655738830566,-2.7941081523895264
1761401419163310800,6.408310791015625,0.8885480761528015,-9.301323890686035,-2.822913408279419
1761401419173377500,6.41837744140625,0.8801683783531189,-9.299004554748535,-2.821641445159912
1761401419183472600,6.42847265625,0.8551040887832642,-9.260847091674805,-2.8214919567108154
1761401419193553700,6.4385537109375,0.8444049954414368,-9.246631622314453,-2.7987470626831055
1761401419203624200,6.448624267578125,0.8384943008422852,-9.266982078552246,-2.7748796939849854
1761401419213717000,6.458717041015625,0.8528595566749573,-9.303942680358887,-2.761786460876465
1761401419223797000,6.468796875,0.8529343605041504,-9.309927940368652,-2.7498903274536133
1761401419233877800,6.478877685546875,0.8547300100326538,-9.299304008483887,-2.7747302055358887
1761401419243935700,6.488935791015625,0.8749310970306396,-9.284863471984863,-2.7974750995635986
1761401419254017500,6.499017578125,0.8713397979736328,-9.282544136047363,-2.8010663986206055
1761401419264097800,6.509097900390625,0.8629601001739502,-9.28493881225586,-2.811765432357788
1761401419274178800,6.5191787109375,0.8545055389404297,-9.277755737304688,-2.8296470642089844
1761401419284259800,6.529259765625,0.868870735168457,-9.274165153503418,-2.835707426071167
1761401419294364700,6.53936474609375,0.8604910373687744,-9.276558876037598,-2.8440122604370117
1761401419304444700,6.549444580078125,0.8736591935157776,-9.265785217285156,-2.8261306285858154
1761401419314526500,6.5595263671875,0.8995464444160461,-9.267805099487305,-2.790741443634033
1761401419324607500,6.569607421875,0.8935609459877014,-9.292943954467773,-2.7823617458343506
1761401419334686500,6.5796865234375,0.8744073510169983,-9.303792953491211,-2.7906665802001953
1761401419344768500,6.5897685546875,0.8660276532173157,-9.29182243347168,-2.8132617473602295
1761401419354841300,6.59984130859375,0.8683470487594604,-9.255983352661133,-2.8348095417022705
1761401419364930000,6.609929931640625,0.8599673509597778,-9.251194953918457,-2.8395233154296875
1761401419375011300,6.62001123046875,0.8672247529029846,-9.27034854888916,-2.8084733486175537
1761401419385091300,6.63009130859375,0.8827870488166809,-9.309703826904297,-2.7811646461486816
1761401419395172900,6.6401728515625,0.8916904926300049,-9.321450233459473,-2.7766754627227783
1761401419405254400,6.65025439453125,0.8534581065177917,-9.314416885375977,-2.789618968963623
1761401419415336700,6.660336669921875,0.8450035452842712,-9.288155555725098,-2.815805673599243
1761401419425415700,6.670415771484375,0.8545055389404297,-9.2725191116333,-2.8481273651123047
1761401419435497000,6.6804970703125,0.8867524266242981,-9.27603530883789,-2.836306095123291
1761401419445577700,6.69057763671875,0.9024643898010254,-9.283143043518066,-2.78857159614563
1761401419455659500,6.700659423828125,0.8989478945732117,-9.2748384475708,-2.7777976989746094
1761401419465740500,6.710740478515625,0.8940846920013428,-9.283217430114746,-2.7981483936309814
1761401419475820800,6.72082080078125,0.8886229395866394,-9.274988174438477,-2.8336873054504395
1761401419485901800,6.73090185546875,0.8694692850112915,-9.285836219787598,-2.8527660369873047
1761401419495983600,6.740983642578125,0.8886229395866394,-9.315614700317383,-2.8277766704559326
1761401419506063600,6.751063720703125,0.8947580456733704,-9.321599960327148,-2.7823617458343506
1761401419516148700,6.761148681640625,0.864980161190033,-9.307458877563477,-2.75116229057312
1761401419526245600,6.77124560546875,0.8613888621330261,-9.274015426635742,-2.7714381217956543
1761401419546387200,6.79138720703125,0.8504653573036194,-9.309853553771973,-2.8072762489318848
1761401419556468700,6.80146875,0.8361749649047852,-9.318307876586914,-2.7941081523895264
1761401419566549200,6.81154931640625,0.8566004633903503,-9.307458877563477,-2.7654526233673096
1761401419576631000,6.821631103515625,0.861463725566864,-9.299078941345215,-2.7427825927734375
1761401419586711800,6.8317119140625,0.8506897687911987,-9.272892951965332,-2.7439048290252686
1761401419596793300,6.84179345703125,0.8458265662193298,-9.26570987701416,-2.7641806602478027
1761401419606860300,6.8518603515625,0.842235267162323,-9.280000686645508,-2.782137155532837
1761401419616955400,6.861955322265625,0.8553285598754883,-9.29189682006836,-2.782212018966675
1761401419627037400,6.872037353515625,0.8386439681053162,-9.28957748413086,-2.7689690589904785
1761401419637113000,6.882113037109375,0.8373720645904541,-9.282469749450684,-2.765302896499634
1761401419647198500,6.892198486328125,0.8313865661621094,-9.295638084411621,-2.762908697128296
1761401419657278200,6.9022783203125,0.8253262042999268,-9.306411743164062,-2.7748050689697266
1761401419667336400,6.91233642578125,0.8456020951271057,-9.314716339111328,-2.7880477905273438
1761401419677440300,6.922440185546875,0.8610895872116089,-9.315838813781738,-2.7965023517608643
1761401419687521500,6.932521484375,0.898199737071991,-9.29414176940918,-2.799046277999878
1761401419697602000,6.94260205078125,0.9137620329856873,-9.264213562011719,-2.797924041748047
1761401419707683600,6.95268359375,0.8838345408439636,-9.260771751403809,-2.7929859161376953
1761401419717763800,6.962763916015625,0.8607155084609985,-9.26219367980957,-2.811840295791626
1761401419737927000,6.982927001953125,0.8284686207771301,-9.31965446472168,-2.7997944355010986
1761401419747973000,6.99297314453125,0.8248773217201233,-9.301773071289062,-2.8033108711242676
1761401419758113000,7.003113037109375,0.8392425179481506,-9.271845817565918,-2.793808937072754
1761401419768169700,7.013169677734375,0.8427590131759644,-9.292120933532715,-2.8033857345581055
1761401419778230300,7.023230224609375,0.8571242094039917,-9.311200141906738,-2.80705189704895
1761401419788330200,7.033330322265625,0.8607155084609985,-9.308805465698242,-2.8058547973632812
1761401419798412500,7.04341259765625,0.8551788926124573,-9.283592224121094,-2.800018787384033
1761401419808492800,7.053492919921875,0.8480711579322815,-9.254936218261719,-2.784456491470337
1761401419818574000,7.063573974609375,0.841038167476654,-9.26219367980957,-2.7438299655914307
1761401419828654300,7.073654296875,0.8326584696769714,-9.305289268493652,-2.7222821712493896
1761401419838734800,7.08373486328125,0.8183680772781372,-9.328034400939941,-2.711508274078369
1761401419848816000,7.093816162109375,0.8123825788497925,-9.344793319702148,-2.715099573135376
1761401419858897400,7.1038974609375,0.8111106157302856,-9.328034400939941,-2.737769603729248
1761401419868979000,7.11397900390625,0.8169465065002441,-9.292120933532715,-2.7843070030212402
1761401419879059700,7.124059814453125,0.842085599899292,-9.272817611694336,-2.8227639198303223
1761401419889140200,7.13414013671875,0.8636334538459778,-9.277531623840332,-2.804882049560547
1761401419899221200,7.14422119140625,0.8684966564178467,-9.284713745117188,-2.778620719909668
1761401419909296400,7.15429638671875,0.8661772608757019,-9.289502143859863,-2.7607390880584717
1761401419919383600,7.164383544921875,0.863783061504364,-9.277606010437012,-2.75116229057312
1761401419929457400,7.17445751953125,0.8290671706199646,-9.293243408203125,-2.7772738933563232
1761401419939545600,7.184545654296875,0.8254010081291199,-9.309927940368652,-2.802412986755371
1761401419949626600,7.194626708984375,0.8564508557319641,-9.324143409729004,-2.8049569129943848
1761401419959707100,7.20470703125,0.8732102513313293,-9.309778213500977,-2.801365613937378
1761401419969788400,7.214788330078125,0.8827870488166809,-9.310900688171387,-2.799046277999878
1761401419979868700,7.22486865234375,0.8982745409011841,-9.294066429138184,-2.814608573913574
1761401419989951000,7.234950927734375,0.8958803415298462,-9.27139663696289,-2.814608573913574
1761401420000031200,7.24503125,0.8504653573036194,-9.269227027893066,-2.807201385498047
1761401420010115800,7.25511572265625,0.8433575630187988,-9.280000686645508,-2.7893197536468506
1761401420020192800,7.26519287109375,0.8290671706199646,-9.302820205688477,-2.7665748596191406
1761401420030274300,7.2752744140625,0.8196399807929993,-9.32197380065918,-2.735450267791748
1761401420040337200,7.285337158203125,0.8221838474273682,-9.335066795349121,-2.7247512340545654
1761401420050435800,7.295435791015625,0.8509142398834229,-9.32661247253418,-2.7141268253326416
1761401420060517000,7.30551708984375,0.8520365357398987,-9.32773494720459,-2.7356746196746826
1761401420070574800,7.315574951171875,0.8399906754493713,-9.297957420349121,-2.7654526233673096
1761401420080679000,7.325678955078125,0.8340051770210266,-9.30154800415039,-2.7654526233673096
1761401420090760400,7.335760498046875,0.824428379535675,-9.303942680358887,-2.7689690589904785
1761401420100841200,7.34584130859375,0.8173954486846924,-9.319580078125,-2.7199628353118896
1761401420110921500,7.35592138671875,0.8127566576004028,-9.305289268493652,-2.688838243484497
1761401420121002500,7.36600244140625,0.8232312798500061,-9.299378395080566,-2.689960479736328
1761401420131083300,7.376083251953125,0.8207622766494751,-9.311274528503418,-2.7198879718780518
1761401420141164800,7.386164794921875,0.8457517623901367,-9.329081535339355,-2.7474961280822754
1761401420151244500,7.39624462890625,0.8612392544746399,-9.331400871276855,-2.7630584239959717
1761401420161326600,7.40632666015625,0.8551788926124573,-9.311050415039062,-2.77854585647583
1761401420171389400,7.416389404296875,0.8718634843826294,-9.305065155029297,-2.7917888164520264
1761401420181474600,7.426474609375,0.8635586500167847,-9.29069995880127,-2.7929110527038574
1761401420191569400,7.4365693359375,0.840888500213623,-9.301623344421387,-2.7748796939849854
1761401420201651000,7.44665087890625,0.8099883794784546,-9.314866065979004,-2.7509377002716064
1761401420211722200,7.45672216796875,0.783801794052124,-9.325715065002441,-2.7341034412384033
1761401420221812500,7.4668125,0.784998893737793,-9.322123527526855,-2.718541145324707
1761401420231894000,7.47689404296875,0.7992892861366272,-9.306561470031738,-2.743680238723755
1761401420241974500,7.486974609375,0.8314613699913025,-9.295638084411621,-2.778470993041992
1761401420252055600,7.4970556640625,0.8529343605041504,-9.29189682006836,-2.7905168533325195
1761401420262136600,7.507136474609375,0.8589946627616882,-9.307458877563477,-2.7607390880584717
1761401420272217000,7.517217041015625,0.8661772608757019,-9.334918022155762,-2.752434015274048
1761401420282280400,7.527280517578125,0.8479214906692505,-9.3172607421875,-2.740163803100586
1761401420292368000,7.537367919921875,0.8227823972702026,-9.310153007507324,-2.7555766105651855
1761401420302460000,7.5474599609375,0.795174241065979,-9.310227394104004,-2.7817630767822266
1761401420312543000,7.55754296875,0.7879916429519653,-9.322198867797852,-2.794856309890747
1761401420322623000,7.567623046875,0.8322095274925232,-9.314866065979004,-2.7771244049072266
1761401420332702700,7.57770263671875,0.8324339985847473,-9.299378395080566,-2.7245266437530518
1761401420342783000,7.587782958984375,0.819340705871582,-9.288679122924805,-2.7113585472106934
1761401420352864500,7.597864501953125,0.8264485001564026,-9.295862197875977,-2.7257237434387207
1761401420362945500,7.607945556640625,0.8277952671051025,-9.308805465698242,-2.761711597442627
1761401420373026600,7.618026611328125,0.8396914005279541,-9.309927940368652,-2.779668092727661
1761401420383107600,7.628107666015625,0.8695441484451294,-9.309853553771973,-2.778620719909668
1761401420393188900,7.63818896484375,0.879120945930481,-9.322946548461914,-2.772710084915161
1761401420403272000,7.64827197265625,0.8659528493881226,-9.32421875,-2.7702410221099854
1761401420413352000,7.65835205078125,0.8660276532173157,-9.32302188873291,-2.757072925567627
1761401420423431000,7.668430908203125,0.8577227592468262,-9.312322616577148,-2.734328031539917
1761401420433512000,7.678511962890625,0.8207622766494751,-9.310077667236328,-2.717493772506714
1761401420443593700,7.68859375,0.8051999807357788,-9.300576210021973,-2.719813108444214
1761401420453674800,7.6986748046875,0.802730917930603,-9.298181533813477,-2.7484686374664307
1761401420463732500,7.708732421875,0.8182932734489441,-9.305289268493652,-2.7449522018432617
1761401420473836000,7.7188359375,0.8289923667907715,-9.314791679382324,-2.7461493015289307
1761401420483918600,7.728918701171875,0.8457517623901367,-9.307608604431152,-2.7403135299682617
1761401420493998300,7.738998291015625,0.8433575630187988,-9.284863471984863,-2.7426328659057617
1761401420504079400,7.749079345703125,0.8684218525886536,-9.280000686645508,-2.757072925567627
1761401420514161000,7.759160888671875,0.8696189522743225,-9.282394409179688,-2.758270025253296
1761401420524243700,7.76924365234375,0.8494178652763367,-9.294365882873535,-2.7678468227386475
1761401420534322400,7.779322509765625,0.8350526690483093,-9.296759605407715,-2.777348756790161
1761401420544403500,7.789403564453125,0.8470236659049988,-9.313444137573242,-2.7642555236816406
1761401420554463700,7.799463623046875,0.863783061504364,-9.331326484680176,-2.7440543174743652
1761401420564565500,7.8095654296875,0.8518120646476746,-9.334992408752441,-2.7475709915161133
1761401420584727000,7.82972705078125,0.841038167476654,-9.293169021606445,-2.762983560562134
1761401420594808300,7.839808349609375,0.8482207655906677,-9.26683235168457,-2.779742956161499
1761401420604889000,7.84988916015625,0.8505401611328125,-9.253664016723633,-2.80361008644104
1761401420614966000,7.859966064453125,0.8517372608184814,-9.240571022033691,-2.802412986755371
1761401420625050400,7.87005029296875,0.8577227592468262,-9.274015426635742,-2.7941081523895264
1761401420635132000,7.8801318359375,0.8887725472450256,-9.292943954467773,-2.7799675464630127
1761401420645172000,7.890171875,0.8911667466163635,-9.323993682861328,-2.7787704467773438
1761401420655293400,7.90029345703125,0.8696189522743225,-9.343222618103027,-2.7834839820861816
1761401420665374000,7.9103740234375,0.8540566563606262,-9.332523345947266,-2.806079149246216
1761401420675455700,7.920455810546875,0.8624363541603088,-9.302596092224121,-2.8120646476745605
1761401420685562400,7.930562255859375,0.8493430614471436,-9.26563549041748,-2.798896551132202
1761401420695618300,7.940618408203125,0.8457517623901367,-9.256133079528809,-2.7892448902130127
1761401420705698800,7.95069873046875,0.8530091643333435,-9.28957748413086,-2.7726352214813232
1761401420715779800,7.96077978515625,0.8649053573608398,-9.313369750976562,-2.771512985229492
1761401420725855200,7.970855224609375,0.864980161190033,-9.294290542602539,-2.7631332874298096
1761401420735942700,7.980942626953125,0.8625859618186951,-9.277606010437012,-2.760664224624634
1761401420746022000,7.99102197265625,0.8553285598754883,-9.301473617553711,-2.7834091186523438
1761401420756081200,8.0010810546875,0.8576479554176331,-9.301473617553711,-2.802487850189209
1761401420766184400,8.011184326171875,0.8684218525886536,-9.276334762573242,-2.8073511123657227
1761401420776265000,8.021264892578126,0.858845055103302,-9.26802921295166,-2.802487850189209
1761401420786345500,8.031345458984376,0.8552537560462952,-9.288305282592773,-2.800093650817871
1761401420796427000,8.041427001953124,0.842085599899292,-9.311050415039062,-2.800093650817871
1761401420806485000,8.051485107421875,0.8301894664764404,-9.313519477844238,-2.800018787384033
1761401420816589300,8.06158935546875,0.839766263961792,-9.306336402893066,-2.780940055847168
1761401420826670600,8.071670654296875,0.8530091643333435,-9.29077434539795,-2.757072925567627
1761401420836750300,8.081750244140625,0.8518120646476746,-9.3003511428833,-2.7642555236816406
1761401420846831600,8.09183154296875,0.8565256595611572,-9.312322616577148,-2.7474961280822754
1761401420856912600,8.10191259765625,0.8601917624473572,-9.32548999786377,-2.7200376987457275
1761401420866996000,8.111995849609375,0.8566004633903503,-9.338658332824707,-2.709263563156128
1761401420877074700,8.12207470703125,0.8542062640190125,-9.330278396606445,-2.70686936378479
1761401420887156500,8.132156494140625,0.8326584696769714,-9.310077667236328,-2.7246763706207275
1761401420897236500,8.142236572265626,0.8374468684196472,-9.335066795349121,-2.73073673248291
1761401420907295000,8.152294921875,0.8386439681053162,-9.32317066192627,-2.7175686359405518
1761401420917398500,8.1623984375,0.8279448747634888,-9.307683944702148,-2.7210850715637207
1761401420927479300,8.172479248046875,0.803928017616272,-9.287482261657715,-2.742483139038086
1761401420937538000,8.1825380859375,0.823006808757782,-9.282544136047363,-2.7556512355804443
1761401420947641000,8.19264111328125,0.8254758715629578,-9.300500869750977,-2.7437551021575928
1761401420957722400,8.202722412109376,0.8279448747634888,-9.31965446472168,-2.715099573135376
1761401420967803600,8.2128037109375,0.824428379535675,-9.322049140930176,-2.6780643463134766
1761401420977865700,8.22286572265625,0.8172457814216614,-9.325639724731445,-2.688763380050659
1761401420987964400,8.23296435546875,0.8195651769638062,-9.31965446472168,-2.7103111743927
1761401420998045700,8.243045654296875,0.8040028810501099,-9.340004920959473,-2.7234044075012207
1761401421008126700,8.253126708984375,0.8084171414375305,-9.319804191589355,-2.744802713394165
1761401421018207700,8.263207763671875,0.8299649953842163,-9.323246002197266,-2.740088939666748
1761401421028288800,8.273288818359376,0.8419359922409058,-9.31845760345459,-2.737769603729248
1761401421038351600,8.2833515625,0.8598176836967468,-9.292046546936035,-2.7449522018432617
1761401421048440300,8.2934404296875,0.8513631820678711,-9.2957124710083,-2.7712135314941406
1761401421058509000,8.303509033203126,0.8429834842681885,-9.300500869750977,-2.7807905673980713
1761401421068613600,8.313613525390625,0.8310872912406921,-9.314866065979004,-2.7520599365234375
1761401421078711800,8.3237119140625,0.816871702671051,-9.309030532836914,-2.7316346168518066
1761401421088753200,8.333753173828125,0.8375964760780334,-9.333869934082031,-2.7248260974884033
1761401421098855400,8.34385546875,0.8482955694198608,-9.348160743713379,-2.7379941940307617
1761401421108937000,8.35393701171875,0.8363245725631714,-9.331476211547852,-2.7439048290252686
1761401421119018800,8.364018798828125,0.8387935757637024,-9.307534217834473,-2.733130931854248
1761401421129098200,8.37409814453125,0.8340051770210266,-9.305214881896973,-2.7259483337402344
1761401421139179300,8.38417919921875,0.8292916417121887,-9.305214881896973,-2.715174436569214
1761401421149261300,8.39426123046875,0.8352771401405334,-9.306411743164062,-2.712780237197876
1761401421159341600,8.404341552734374,0.8328829407691956,-9.317185401916504,-2.703278064727783
1761401421169421800,8.414421875,0.8084920048713684,-9.328184127807617,-2.720860481262207
1761401421179503600,8.424503662109375,0.8060229420661926,-9.346065521240234,-2.744802713394165
1761401421189583000,8.4345830078125,0.8239046335220337,-9.337611198425293,-2.7591679096221924
1761401421199665700,8.444665771484376,0.8502408862113953,-9.298107147216797,-2.75812029838562
1761401421209747000,8.454746826171874,0.8527098894119263,-9.28613567352295,-2.7317841053009033
1761401421219828000,8.464827880859374,0.8324339985847473,-9.299378395080566,-2.716221809387207
1761401421229909000,8.474908935546875,0.8479214906692505,-9.307683944702148,-2.738966703414917
1761401421239989200,8.4849892578125,0.8262988328933716,-9.296984672546387,-2.763956308364868
1761401421250070500,8.495070556640625,0.8207622766494751,-9.300426483154297,-2.761711597442627
1761401421260152000,8.505152099609376,0.8147019743919373,-9.302820205688477,-2.7736825942993164
1761401421270232800,8.51523291015625,0.8290671706199646,-9.309927940368652,-2.7701661586761475
1761401421280313600,8.525313720703124,0.8458265662193298,-9.318233489990234,-2.7618613243103027
1761401421290394600,8.53539453125,0.864980161190033,-9.32534122467041,-2.749965190887451
1761401421300476200,8.54547607421875,0.8661772608757019,-9.320552825927734,-2.754753589630127
1761401421310556400,8.555556396484375,0.8720879554748535,-9.3049898147583,-2.778695583343506
1761401421320637200,8.56563720703125,0.8565256595611572,-9.29189682006836,-2.7893946170806885
1761401421330717000,8.575717041015626,0.840888500213623,-9.293243408203125,-2.78086519241333
1761401421340799500,8.585799560546874,0.8349030017852783,-9.308805465698242,-2.7748796939849854
1761401421350880000,8.5958798828125,0.8110358119010925,-9.302895545959473,-2.766425132751465
1761401421360960800,8.605960693359375,0.8051251173019409,-9.2933931350708,-2.7556512355804443
1761401421371042600,8.61604248046875,0.803928017616272,-9.263540267944336,-2.7615621089935303
1761401421381100500,8.6261005859375,0.803928017616272,-9.273117065429688,-2.7507882118225098
1761401421391203600,8.63620361328125,0.8147019743919373,-9.300500869750977,-2.7508628368377686
1761401421401284600,8.64628466796875,0.8313865661621094,-9.326762199401855,-2.7522096633911133
1761401421411339000,8.656339111328125,0.8478466868400574,-9.332747459411621,-2.7461493015289307
1761401421421447000,8.666447021484375,0.8574234843254089,-9.32317066192627,-2.7426328659057617
1761401421431527700,8.676527587890625,0.8634089827537537,-9.32548999786377,-2.7414357662200928
1761401421441610500,8.686610595703126,0.8442553877830505,-9.294515609741211,-2.7520599365234375
1761401421451690000,8.69668994140625,0.8251017332077026,-9.290999412536621,-2.767547607421875
1761401421461771000,8.70677099609375,0.8227075338363647,-9.306561470031738,-2.769941806793213
1761401421471852300,8.716852294921875,0.8108113408088684,-9.320926666259766,-2.7543795108795166
1761401421481910000,8.726909912109376,0.8335562944412231,-9.316062927246094,-2.73769474029541
1761401421492013800,8.737013916015625,0.8490437865257263,-9.300500869750977,-2.7497406005859375
1761401421502094800,8.7470947265625,0.8514379858970642,-9.305214881896973,-2.765302896499634
1761401421512175900,8.75717578125,0.8657283782958984,-9.306336402893066,-2.7712883949279785
1761401421522256000,8.767255859375,0.87163907289505,-9.297957420349121,-2.783259391784668
1761401421532337700,8.777337646484375,0.8513631820678711,-9.296834945678711,-2.789170265197754
1761401421542418000,8.78741796875,0.836997926235199,-9.302895545959473,-2.793883800506592
1761401421552476400,8.797476318359376,0.8095394372940063,-9.31853199005127,-2.7806408405303955
1761401421562579700,8.807579833984375,0.8071452379226685,-9.320926666259766,-2.767472743988037
1761401421572661200,8.8176611328125,0.821959376335144,-9.294440269470215,-2.7676970958709717
1761401421582742500,8.827742431640624,0.8399158716201782,-9.284863471984863,-2.7534067630767822
1761401421592822800,8.83782275390625,0.8518868684768677,-9.274015426635742,-2.7462990283966064
1761401421602904000,8.847904052734375,0.8482207655906677,-9.277606010437012,-2.7618613243103027
1761401421612986400,8.857986328125,0.8254758715629578,-9.277681350708008,-2.7748796939849854
1761401421623065600,8.868065673828125,0.8325088024139404,-9.30154800415039,-2.8107926845550537
1761401421633147400,8.8781474609375,0.8587702512741089,-9.330129623413086,-2.8133366107940674
1761401421643228700,8.888228759765624,0.8398410677909851,-9.332598686218262,-2.7690439224243164
1761401421653309200,8.89830908203125,0.8243535757064819,-9.29922866821289,-2.7498154640197754
1761401421663371800,8.908371826171875,0.8040028810501099,-9.28381633758545,-2.7700164318084717
1761401421673470700,8.918470703125,0.8051999807357788,-9.289727210998535,-2.7760021686553955
1761401421683547000,8.928546875,0.821959376335144,-9.293318748474121,-2.7462241649627686
1761401421693633000,8.938633056640626,0.8399906754493713,-9.296834945678711,-2.734328031539917
1761401421703714000,8.948714111328124,0.8721627593040466,-9.299078941345215,-2.747645616531372
1761401421713796000,8.958796142578125,0.8972271084785461,-9.308506965637207,-2.7632827758789062
1761401421723875300,8.968875244140625,0.8959551453590393,-9.304915428161621,-2.7859530448913574
1761401421733957000,8.97895703125,0.8931868672370911,-9.306262016296387,-2.775029420852661
1761401421744038000,8.989037841796875,0.8561515808105469,-9.319580078125,-2.7700912952423096
1761401421754118400,8.999118408203126,0.8119336366653442,-9.337685585021973,-2.766350507736206
1761401421764199000,9.009198974609374,0.7928548455238342,-9.332972526550293,-2.7566988468170166
1761401421774280400,9.019280517578125,0.8013094067573547,-9.304316520690918,-2.7375452518463135
1761401421784362000,9.029362060546875,0.7989152073860168,-9.294739723205566,-2.745924949645996
1761401421794442000,9.03944189453125,0.8311620950698853,-9.299378395080566,-2.7508628368377686
1761401421804523000,9.04952294921875,0.8609399795532227,-9.276558876037598,-2.7712883949279785
1761401421814604500,9.0596044921875,0.8659528493881226,-9.277606010437012,-2.77854585647583
1761401421824660500,9.069660400390624,0.8755296468734741,-9.27034854888916,-2.777423620223999
1761401421834766600,9.0797666015625,0.8635586500167847,-9.276409149169922,-2.7881226539611816
1761401421844846600,9.0898466796875,0.8563759922981262,-9.287182807922363,-2.783334255218506
1761401421854927600,9.099927734375,0.8229320049285889,-9.32077693939209,-2.786776065826416
1761401421865009200,9.110009033203125,0.816871702671051,-9.311200141906738,-2.8010663986206055
1761401421875070200,9.1200703125,0.8038532137870789,-9.311274528503418,-2.7735331058502197
1761401421885172000,9.130171875,0.7943512201309204,-9.311349868774414,-2.7603650093078613
1761401421895252200,9.140252197265625,0.7957727909088135,-9.310077667236328,-2.7509377002716064
1761401421905332700,9.150332763671875,0.8030301928520203,-9.308880805969238,-2.734253168106079
1761401421915413800,9.160413818359375,0.8209867477416992,-9.300426483154297,-2.736722230911255
1761401421925495000,9.1704951171875,0.844853937625885,-9.303942680358887,-2.7379941940307617
1761401421935554300,9.18055419921875,0.8723124265670776,-9.29421615600586,-2.7428572177886963
1761401421945656600,9.190656494140624,0.883011519908905,-9.312097549438477,-2.77046537399292
1761401421955737600,9.200737548828124,0.8853309154510498,-9.312023162841797,-2.7800421714782715
1761401421965819100,9.210819091796875,0.8745570182800293,-9.304915428161621,-2.794257879257202
1761401421975900200,9.220900146484375,0.8453028202056885,-9.308805465698242,-2.7962779998779297
1761401421985980200,9.230980224609375,0.8238298296928406,-9.314866065979004,-2.7985973358154297
1761401421996062000,9.24106201171875,0.7986907362937927,-9.299453735351562,-2.8032360076904297
1761401422006142700,9.251142822265624,0.81672203540802,-9.295787811279297,-2.773458242416382
1761401422016223000,9.261222900390624,0.8288426995277405,-9.302969932556152,-2.722132444381714
1761401422026304000,9.271303955078125,0.8325088024139404,-9.312546730041504,-2.694674015045166
1761401422036385500,9.281385498046875,0.8348281979560852,-9.31853199005127,-2.713827610015869
1761401422046466300,9.29146630859375,0.8467243909835815,-9.298107147216797,-2.741360902786255
1761401422056547800,9.3015478515625,0.8411129713058472,-9.262043952941895,-2.7893197536468506
1761401422066607900,9.31160791015625,0.8481459617614746,-9.257181167602539,-2.831143617630005
1761401422076686300,9.321686279296875,0.8553285598754883,-9.281047821044922,-2.8180501461029053
1761401422086790000,9.331789794921875,0.8304138779640198,-9.309927940368652,-2.7737574577331543
1761401422096870400,9.341870361328125,0.8387935757637024,-9.314641952514648,-2.760664224624634
1761401422106953000,9.351952880859375,0.8340800404548645,-9.32661247253418,-2.7486932277679443
1761401422117035300,9.36203515625,0.8543559312820435,-9.32773494720459,-2.747645616531372
1761401422127113700,9.37211376953125,0.8794202208518982,-9.310900688171387,-2.7620856761932373
1761401422137196500,9.382196533203125,0.903137743473053,-9.29646110534668,-2.7812392711639404
1761401422147275800,9.39227587890625,0.8983493447303772,-9.274988174438477,-2.7895443439483643
1761401422157357000,9.402357177734375,0.8744821548461914,-9.287034034729004,-2.77390718460083
1761401422167437800,9.412437744140625,0.8720879554748535,-9.301399230957031,-2.7679216861724854
1761401422177519000,9.42251904296875,0.8518120646476746,-9.307458877563477,-2.752284526824951
1761401422187600000,9.432599853515624,0.8243535757064819,-9.310003280639648,-2.7498154640197754
1761401422197680400,9.442680419921874,0.802880585193634,-9.31965446472168,-2.7497406005859375
1761401422217842700,9.4628427734375,0.8491185903549194,-9.348310470581055,-2.73305606842041
1761401422227923500,9.47292333984375,0.8586205840110779,-9.314791679382324,-2.7497406005859375
1761401422238004700,9.483004638671876,0.8634089827537537,-9.26219367980957,-2.764105796813965
1761401422248085800,9.493085693359374,0.8490437865257263,-9.263465881347656,-2.7736079692840576
1761401422258143000,9.50314306640625,0.834678590297699,-9.296984672546387,-2.7556512355804443
1761401422268247000,9.5132470703125,0.81440269947052,-9.301847457885742,-2.741211414337158
1761401422278306000,9.52330615234375,0.8108862042427063,-9.311424255371094,-2.725648880004883
1761401422288409300,9.533409423828125,0.7882161140441895,-9.317484855651855,-2.725574254989624
1761401422298490000,9.543489990234375,0.7909843921661377,-9.335216522216797,-2.7281928062438965
1761401422308571400,9.5535712890625,0.8279448747634888,-9.326687812805176,-2.7403135299682617
1761401422318635000,9.563635009765624,0.8327332735061646,-9.305214881896973,-2.7426328659057617
1761401422328733000,9.57373291015625,0.8674492239952087,-9.30386734008789,-2.7416601181030273
1761401422338814000,9.58381396484375,0.8709656596183777,-9.307458877563477,-2.7428572177886963
1761401422348895500,9.5938955078125,0.8685714602470398,-9.318158149719238,-2.747645616531372
1761401422358976500,9.6039765625,0.8291419744491577,-9.308805465698242,-2.7450270652770996
1761401422369026800,9.61402685546875,0.8195651769638062,-9.315988540649414,-2.7426328659057617
1761401422379138000,9.624137939453124,0.7971943616867065,-9.333945274353027,-2.737844467163086
1761401422389219300,9.63421923828125,0.7948001623153687,-9.335142135620117,-2.7211599349975586
1761401422399299600,9.644299560546875,0.8271218538284302,-9.332598686218262,-2.7129297256469727
1761401422409340400,9.65434033203125,0.8462755084037781,-9.337311744689941,-2.7118074893951416
1761401422419462100,9.664462158203126,0.8581717014312744,-9.333645820617676,-2.7249755859375
1761401422429542400,9.67454248046875,0.8616881370544434,-9.315689086914062,-2.751311779022217
1761401422439601700,9.6846015625,0.8388684391975403,-9.287108421325684,-2.773832321166992
1761401422449684200,9.694684326171876,0.8186673521995544,-9.270498275756836,-2.760589361190796
1761401422459763500,9.704763427734376,0.8102127909660339,-9.29690933227539,-2.734253168106079
1761401422469843500,9.714843505859376,0.8126070499420166,-9.327959060668945,-2.716371536254883
1761401422479904000,9.724904052734376,0.8006359934806824,-9.336338996887207,-2.7246763706207275
1761401422490029000,9.735029052734374,0.7923310995101929,-9.323246002197266,-2.716296672821045
1761401422500109800,9.74510986328125,0.789936900138855,-9.301773071289062,-2.7281928062438965
1761401422510168000,9.75516796875,0.7971195578575134,-9.286211013793945,-2.7222073078155518
1761401422520270600,9.7652705078125,0.8102876543998718,-9.290924072265625,-2.716296672821045
1761401422530353400,9.775353515625,0.8138789534568787,-9.305289268493652,-2.7008092403411865
1761401422540433700,9.78543359375,0.8280196785926819,-9.333869934082031,-2.7211599349975586
1761401422550514200,9.79551416015625,0.8411129713058472,-9.35773754119873,-2.72841739654541
1761401422560595200,9.80559521484375,0.8638579249382019,-9.345691680908203,-2.729689121246338
1761401422570676200,9.81567626953125,0.8661772608757019,-9.321749687194824,-2.7487680912017822
1761401422580757200,9.82575732421875,0.8720879554748535,-9.301399230957031,-2.777498483657837
1761401422590838300,9.83583837890625,0.8337807655334473,-9.293169021606445,-2.800018787384033
1761401422600920300,9.84592041015625,0.8170213103294373,-9.310003280639648,-2.8023383617401123
1761401422611000800,9.856000732421874,0.8254758715629578,-9.3218994140625,-2.7689690589904785
1761401422621080600,9.86608056640625,0.8112602829933167,-9.322049140930176,-2.740163803100586
1761401422631162600,9.87616259765625,0.8004863858222961,-9.307758331298828,-2.736572504043579
1761401422641245400,9.886245361328125,0.802880585193634,-9.289801597595215,-2.7496657371520996
1761401422651324700,9.89632470703125,0.8195651769638062,-9.287332534790039,-2.7700912952423096
1761401422661404200,9.906404052734375,0.8290671706199646,-9.28725814819336,-2.786850690841675
1761401422671486000,9.91648583984375,0.8302642703056335,-9.278878211975098,-2.7736825942993164
1761401422681567500,9.9265673828125,0.8266729712486267,-9.269376754760742,-2.7712883949279785
1761401422691648000,9.93664794921875,0.8087912797927856,-9.275436401367188,-2.761636734008789
1761401422701729000,9.94672900390625,0.809165358543396,-9.296759605407715,-2.77622652053833
1761401422711784200,9.9567841796875,0.8210615515708923,-9.32773494720459,-2.7810897827148438
1761401422721889800,9.966889892578125,0.847322940826416,-9.334842681884766,-2.790741443634033
1761401422731971800,9.976971923828126,0.8580220341682434,-9.319205284118652,-2.797924041748047
1761401422742053400,9.987053466796874,0.8580968379974365,-9.272668838500977,-2.796726942062378
1761401422752133600,9.997133544921875,0.8604910373687744,-9.253514289855957,-2.8038346767425537
1761401422762215200,10.007215087890625,0.8509142398834229,-9.27147102355957,-2.79665207862854
1761401422772295200,10.017295166015625,0.8425345420837402,-9.276259422302246,-2.794257879257202
1761401422782376200,10.027376220703125,0.8517372608184814,-9.269227027893066,-2.7857284545898438
1761401422792457700,10.037457763671876,0.8338555693626404,-9.276484489440918,-2.782062292098999
1761401422802538000,10.0475380859375,0.8063222169876099,-9.293318748474121,-2.791564464569092
1761401422812619800,10.057619873046875,0.8074445128440857,-9.325565338134766,-2.8035354614257812
1761401422822711000,10.0677109375,0.8313865661621094,-9.338583946228027,-2.7881226539611816
1761401422832791300,10.077791259765625,0.8661024570465088,-9.320552825927734,-2.771512985229492
1761401422842861600,10.087861572265625,0.8792705535888672,-9.310976028442383,-2.7596168518066406
1761401422852927000,10.097927001953124,0.8960300087928772,-9.3073091506958,-2.7608885765075684
1761401422863023600,10.108023681640624,0.8780734539031982,-9.287034034729004,-2.771512985229492
1761401422873106000,10.11810595703125,0.8684966564178467,-9.271546363830566,-2.7846062183380127
1761401422883186400,10.1281865234375,0.8482207655906677,-9.268104553222656,-2.7713632583618164
1761401422893267200,10.13826708984375,0.8242787718772888,-9.295638084411621,-2.779668092727661
1761401422903348200,10.14834814453125,0.8254758715629578,-9.327884674072266,-2.762983560562134
1761401422913429500,10.158429443359376,0.8158990740776062,-9.333945274353027,-2.7664999961853027
1761401422923510300,10.16851025390625,0.802730917930603,-9.2957124710083,-2.7819876670837402
1761401422933591600,10.178591552734375,0.8217349052429199,-9.278878211975098,-2.8190977573394775
1761401422943672300,10.18867236328125,0.8684218525886536,-9.276334762573242,-2.797774314880371
1761401422953753300,10.19875341796875,0.8865280151367188,-9.264363288879395,-2.748842716217041
1761401422963843600,10.208843505859376,0.8865280151367188,-9.261969566345215,-2.7428572177886963
1761401422973914600,10.21891455078125,0.903137743473053,-9.278578758239746,-2.790741443634033
1761401422983995600,10.22899560546875,0.9005939364433289,-9.286884307861328,-2.820594072341919
1761401422994076200,10.239076171875,0.8838345408439636,-9.3073091506958,-2.839672803878784
1761401423004158200,10.249158203125,0.8718634843826294,-9.326462745666504,-2.843264102935791
1761401423014239000,10.259239013671875,0.8551040887832642,-9.315764427185059,-2.8407204151153564
1761401423024319200,10.2693193359375,0.8276455998420715,-9.294365882873535,-2.834660053253174
1761401423034400500,10.279400390625,0.8325088024139404,-9.291971206665039,-2.8095955848693848
1761401423044482000,10.28948193359375,0.8601917624473572,-9.282394409179688,-2.7618613243103027
1761401423054563000,10.29956298828125,0.8722376227378845,-9.278728485107422,-2.7404630184173584
1761401423064642800,10.309642822265625,0.8601917624473572,-9.278803825378418,-2.75348162651062
1761401423074724900,10.319724853515625,0.8756792545318604,-9.29421615600586,-2.771512985229492
1761401423084805600,10.3298056640625,0.8481459617614746,-9.305065155029297,-2.7929110527038574
1761401423094886000,10.339885986328126,0.8481459617614746,-9.32302188873291,-2.7846062183380127
1761401423104930300,10.349930419921876,0.8458265662193298,-9.317035675048828,-2.7714381217956543
1761401423115048000,10.3600478515625,0.8350526690483093,-9.3218994140625,-2.762983560562134
1761401423125128400,10.37012841796875,0.8494178652763367,-9.311050415039062,-2.752284526824951
1761401423135210500,10.38021044921875,0.8363993763923645,-9.302820205688477,-2.734328031539917
1761401423145291000,10.390291015625,0.8304138779640198,-9.274165153503418,-2.7222821712493896
1761401423155373300,10.400373291015624,0.843582034111023,-9.276484489440918,-2.7271454334259033
1761401423165452800,10.410452880859374,0.8447791337966919,-9.290849685668945,-2.7259483337402344
1761401423175534600,10.42053466796875,0.8531588315963745,-9.315913200378418,-2.7117326259613037
1761401423185615000,10.430614990234375,0.858695387840271,-9.312397003173828,-2.716296672821045
1761401423195696000,10.440696044921875,0.8479214906692505,-9.2957124710083,-2.737769603729248
1761401423205776600,10.450776611328125,0.8310872912406921,-9.300576210021973,-2.766350507736206
1761401423215838500,10.46083837890625,0.8382698893547058,-9.32085132598877,-2.765228033065796
1761401423225938400,10.4709384765625,0.8347533941268921,-9.329231262207031,-2.73537540435791
1761401423236019700,10.481019775390624,0.8299649953842163,-9.343596458435059,-2.7269957065582275
1761401423246100700,10.491100830078125,0.8335562944412231,-9.331625938415527,-2.7305870056152344
1761401423256182000,10.50118212890625,0.8622118830680847,-9.310003280639648,-2.7498154640197754
1761401423266262300,10.51126220703125,0.880392849445343,-9.305065155029297,-2.7427825927734375
1761401423276343800,10.52134375,0.8529343605041504,-9.30154800415039,-2.754603862762451
1761401423286425000,10.531425048828124,0.860042154788971,-9.305139541625977,-2.7618613243103027
1761401423296474600,10.541474609375,0.8624363541603088,-9.30154800415039,-2.758270025253296
1761401423306586400,10.55158642578125,0.8564508557319641,-9.294365882873535,-2.7725603580474854
1761401423316667600,10.561667724609375,0.8659528493881226,-9.276409149169922,-2.7857284545898438
1761401423326722800,10.571722900390625,0.8743325471878052,-9.288305282592773,-2.781014919281006
1761401423336830000,10.581829833984376,0.8707412481307983,-9.30386734008789,-2.773832321166992
1761401423346909700,10.59190966796875,0.877923846244812,-9.316961288452148,-2.7631332874298096
1761401423356994300,10.601994384765625,0.8527846932411194,-9.330204010009766,-2.77854585647583
1761401423367072500,10.612072509765625,0.8181436061859131,-9.315988540649414,-2.787973165512085
1761401423377152500,10.622152587890625,0.8120833039283752,-9.302895545959473,-2.8166286945343018
1761401423387235800,10.63223583984375,0.8252514004707336,-9.288530349731445,-2.7975499629974365
1761401423397315300,10.6423154296875,0.8290671706199646,-9.277755737304688,-2.742558002471924
1761401423407396000,10.65239599609375,0.8399158716201782,-9.277755737304688,-2.715099573135376
1761401423417477400,10.662477294921874,0.8744821548461914,-9.285985946655273,-2.734402894973755
1761401423427558400,10.672558349609375,0.8684966564178467,-9.308581352233887,-2.7655274868011475
1761401423437638700,10.682638671875,0.8839093446731567,-9.314492225646973,-2.8086230754852295
1761401423447720000,10.692719970703125,0.8862287402153015,-9.304915428161621,-2.824185371398926
1761401423457778400,10.7027783203125,0.8851064443588257,-9.3073091506958,-2.8050317764282227
1761401423467882000,10.712882080078124,0.8518120646476746,-9.32421875,-2.757072925567627
1761401423477963500,10.722963623046875,0.8255506753921509,-9.329081535339355,-2.7450270652770996
1761401423488044300,10.733044189453125,0.8316109776496887,-9.338658332824707,-2.729539632797241
1761401423498125300,10.743125244140625,0.8292167782783508,-9.335142135620117,-2.711583137512207
1761401423508205800,10.753205810546875,0.8182932734489441,-9.2957124710083,-2.740163803100586
1761401423518286300,10.763286376953126,0.8326584696769714,-9.26107120513916,-2.7485435009002686
1761401423528367900,10.773367919921874,0.8289923667907715,-9.252691268920898,-2.762833833694458
1761401423538425900,10.78342578125,0.8337807655334473,-9.265785217285156,-2.7557260990142822
1761401423548529700,10.79352978515625,0.8445546627044678,-9.289651870727539,-2.761786460876465
1761401423558611200,10.803611083984375,0.8695441484451294,-9.322946548461914,-2.7714381217956543
1761401423568677000,10.813677001953126,0.8743325471878052,-9.308581352233887,-2.7858033180236816
1761401423578772200,10.823772216796876,0.875454843044281,-9.288305282592773,-2.80129075050354
1761401423588853500,10.833853515625,0.8589946627616882,-9.29182243347168,-2.801365613937378
1761401423598934800,10.843934814453124,0.8506149649620056,-9.306187629699707,-2.803759813308716
1761401423609012200,10.85401220703125,0.8423848748207092,-9.293169021606445,-2.7702410221099854
1761401423619096600,10.8640966796875,0.826897382736206,-9.296759605407715,-2.756998062133789
1761401423629177000,10.874177001953125,0.8303390741348267,-9.296759605407715,-2.7869255542755127
1761401423639258600,10.884258544921876,0.8350526690483093,-9.287108421325684,-2.8155810832977295
1761401423649340000,10.89433984375,0.8637082576751709,-9.285836219787598,-2.8145337104797363
1761401423659420000,10.904419921875,0.8793454170227051,-9.27027416229248,-2.8050317764282227
1761401423669500700,10.914500732421875,0.899621307849884,-9.264213562011719,-2.8086979389190674
1761401423679559400,10.924559326171876,0.8959551453590393,-9.265411376953125,-2.821866035461426
1761401423689663700,10.934663818359375,0.8863783478736877,-9.29646110534668,-2.821791172027588
1761401423699743700,10.94474365234375,0.899621307849884,-9.279701232910156,-2.8075008392333984
1761401423709800400,10.954800537109374,0.902090311050415,-9.29885482788086,-2.786027669906616
1761401423719906000,10.964906005859374,0.8816647529602051,-9.337162017822266,-2.8003182411193848
1761401423729986800,10.97498681640625,0.8541314601898193,-9.342025756835938,-2.819322109222412
1761401423740045600,10.985045654296876,0.8505401611328125,-9.313369750976562,-2.82403564453125
1761401423750148600,10.995148681640625,0.8566752672195435,-9.255908966064453,-2.822913408279419
1761401423760208400,11.00520849609375,0.8711153268814087,-9.245135307312012,-2.795454978942871
1761401423770311200,11.015311279296874,0.8855553269386292,-9.269001960754395,-2.769268274307251
1761401423780391700,11.0253916015625,0.8914660215377808,-9.278504371643066,-2.7717373371124268
1761401423790473500,11.035473388671875,0.8699930310249329,-9.27027416229248,-2.773982048034668
1761401423800575500,11.045575439453126,0.8590695261955261,-9.281047821044922,-2.820519208908081
1761401423810634800,11.055634765625,0.8541314601898193,-9.300127029418945,-2.8611457347869873
1761401423820707800,11.065707763671876,0.862511157989502,-9.326388359069824,-2.8552350997924805
1761401423830796000,11.075796142578126,0.8390928506851196,-9.304915428161621,-2.8003182411193848
1761401423840878000,11.085878173828124,0.8248024582862854,-9.300201416015625,-2.7834839820861816
1761401423850955500,11.09595556640625,0.8248024582862854,-9.306187629699707,-2.772784948348999
1761401423861038800,11.106038818359375,0.8319851160049438,-9.283442497253418,-2.7894694805145264
1761401423871120600,11.11612060546875,0.8726117014884949,-9.254636764526367,-2.7956044673919678
1761401423881201000,11.126200927734375,0.8976759910583496,-9.24491024017334,-2.7992706298828125
1761401423891283000,11.136282958984374,0.9084498882293701,-9.269974708557129,-2.7934348583221436
1761401423901363000,11.146363037109374,0.8964040875434875,-9.309478759765625,-2.7981483936309814
1761401423911445200,11.1564453125,0.8900445103645325,-9.312023162841797,-2.8110921382904053
1761401423921525200,11.166525146484375,0.8804676532745361,-9.315614700317383,-2.815805673599243
1761401423931605800,11.176605712890625,0.8577227592468262,-9.321674346923828,-2.8157308101654053
1761401423941687000,11.18668701171875,0.8375216722488403,-9.327810287475586,-2.77622652053833
1761401423951767600,11.196767578125,0.8436568379402161,-9.319430351257324,-2.7463738918304443
1761401423961826000,11.206825927734375,0.8316858410835266,-9.3003511428833,-2.737919330596924
1761401423971907300,11.2169072265625,0.826972246170044,-9.272892951965332,-2.7391164302825928
1761401423982011100,11.22701123046875,0.8423848748207092,-9.262043952941895,-2.7618613243103027
1761401423992068000,11.237068115234376,0.8672247529029846,-9.26802921295166,-2.7630584239959717
1761401424002172700,11.247172607421875,0.8863783478736877,-9.289502143859863,-2.7487680912017822
1761401424012254000,11.25725390625,0.8851812481880188,-9.312172889709473,-2.747645616531372
1761401424022335700,11.267335693359374,0.881589949131012,-9.313369750976562,-2.752359390258789
1761401424032415700,11.277415771484375,0.8432078957557678,-9.312322616577148,-2.7892448902130127
1761401424042497000,11.2874970703125,0.8240543007850647,-9.306411743164062,-2.811840295791626
1761401424052577800,11.297577880859375,0.8275707960128784,-9.292046546936035,-2.8202199935913086
1761401424062659300,11.307659423828126,0.8204630017280579,-9.281347274780273,-2.8022634983062744
1761401424072739800,11.31773974609375,0.8692448735237122,-9.283592224121094,-2.8035354614257812
1761401424082820400,11.3278203125,0.8943091630935669,-9.288305282592773,-2.8072762489318848
1761401424092902000,11.33790185546875,0.8931868672370911,-9.29189682006836,-2.7881226539611816
1761401424102982700,11.347982666015625,0.8788964748382568,-9.29077434539795,-2.776151657104492
1761401424113065200,11.358065185546875,0.8681225776672363,-9.293243408203125,-2.779668092727661
1761401424123144200,11.368144287109375,0.8536825180053711,-9.289651870727539,-2.7927615642547607
1761401424133225700,11.378225830078126,0.8334066271781921,-9.277831077575684,-2.7985973358154297
1761401424143305700,11.3883056640625,0.8417115211486816,-9.294515609741211,-2.808248996734619
1761401424153387000,11.398386962890624,0.8622866868972778,-9.320552825927734,-2.802487850189209
1761401424163468000,11.408468017578125,0.8599673509597778,-9.317035675048828,-2.7941081523895264
1761401424173549000,11.418549072265625,0.8575730919837952,-9.317035675048828,-2.784531354904175
1761401424183631000,11.428631103515626,0.8539817929267883,-9.302745819091797,-2.779742956161499
1761401424193711000,11.438711181640626,0.8743325471878052,-9.279925346374512,-2.779817819595337
1761401424203792400,11.44879248046875,0.8935609459877014,-9.279850959777832,-2.7572224140167236
1761401424213873700,11.458873779296875,0.8936358094215393,-9.29541301727295,-2.730886220932007
1761401424223953000,11.468952880859375,0.8756792545318604,-9.291971206665039,-2.722506523132324
1761401424234034700,11.47903466796875,0.8458265662193298,-9.278803825378418,-2.7653777599334717
1761401424244115700,11.48911572265625,0.8348281979560852,-9.287182807922363,-2.834660053253174
1761401424254196700,11.49919677734375,0.8479214906692505,-9.306187629699707,-2.846705913543701
1761401424264277800,11.50927783203125,0.8301894664764404,-9.297957420349121,-2.7964274883270264
1761401424274358800,11.51935888671875,0.8506149649620056,-9.307458877563477,-2.7678468227386475
1761401424284439600,11.529439453125,0.8827870488166809,-9.308506965637207,-2.7882723808288574
1761401424294521300,11.539521240234375,0.899471640586853,-9.285761833190918,-2.8122143745422363
1761401424304607200,11.549607177734375,0.9029881358146667,-9.265411376953125,-2.8313679695129395
1761401424314683400,11.559683349609376,0.8984990119934082,-9.272443771362305,-2.8314428329467773
1761401424324763400,11.569763427734374,0.8877251148223877,-9.288081169128418,-2.820668935775757
1761401424334821400,11.5798212890625,0.8638579249382019,-9.29414176940918,-2.8062288761138916
1761401424344925700,11.58992578125,0.8459762334823608,-9.297807693481445,-2.8085482120513916
1761401424355006200,11.600006103515625,0.8722376227378845,-9.316811561584473,-2.8051066398620605
1761401424365060400,11.610060302734375,0.8579472303390503,-9.324069023132324,-2.793135643005371
1761401424375159800,11.620159912109376,0.8436568379402161,-9.312172889709473,-2.779892683029175
1761401424385249500,11.63024951171875,0.8484452366828918,-9.29069995880127,-2.7703158855438232
1761401424395297800,11.6402978515625,0.8394669890403748,-9.274239540100098,-2.763956308364868
1761401424405411300,11.650411376953125,0.8454524874687195,-9.269451141357422,-2.7712135314941406
1761401424415491800,11.660491943359375,0.8549544811248779,-9.269376754760742,-2.7712135314941406
1761401424425562400,11.670562255859375,0.8705167770385742,-9.280075073242188,-2.7724854946136475
1761401424435654100,11.680654052734376,0.8370727896690369,-9.287407875061035,-2.7735331058502197
1761401424445736000,11.69073583984375,0.8191910982131958,-9.301847457885742,-2.742408514022827
1761401424455816400,11.70081640625,0.8192659020423889,-9.320926666259766,-2.7269208431243896
1761401424465897200,11.710897216796875,0.8443301916122437,-9.3172607421875,-2.7281928062438965
1761401424475978500,11.720978515625,0.8502408862113953,-9.318382263183594,-2.756923198699951
1761401424486058800,11.731058837890625,0.8549544811248779,-9.311200141906738,-2.7819876670837402
1761401424496139500,11.741139404296876,0.8657283782958984,-9.284863471984863,-2.783259391784668
1761401424506221000,11.751220947265624,0.8621370792388916,-9.276484489440918,-2.7700912952423096
1761401424516301800,11.7613017578125,0.8717138767242432,-9.299154281616211,-2.762983560562134
1761401424526382300,11.77138232421875,0.8467243909835815,-9.314866065979004,-2.73537540435791
1761401424536463600,11.781463623046875,0.8383446931838989,-9.311274528503418,-2.738891839981079
1761401424546516200,11.79151611328125,0.8503156900405884,-9.310077667236328,-2.741360902786255
1761401424556625700,11.801625732421876,0.8544307351112366,-9.310976028442383,-2.773982048034668
1761401424566706400,11.81170654296875,0.8604162335395813,-9.290624618530273,-2.7823617458343506
1761401424576788000,11.8217880859375,0.8699930310249329,-9.289353370666504,-2.773982048034668
1761401424586868500,11.831868408203125,0.8628104329109192,-9.308506965637207,-2.7596168518066406
1761401424596951300,11.841951416015625,0.8496423363685608,-9.319355010986328,-2.7632081508636475
1761401424607032800,11.85203271484375,0.8437316417694092,-9.3026704788208,-2.7631332874298096
1761401424617111000,11.862111083984376,0.8496423363685608,-9.301399230957031,-2.7667245864868164
1761401424627169800,11.872169677734375,0.8664765357971191,-9.313295364379883,-2.74772047996521
1761401424637273000,11.882273193359374,0.8964040875434875,-9.327510833740234,-2.7275943756103516
1761401424647355000,11.89235498046875,0.9130886793136597,-9.33461856842041,-2.7335798740386963
1761401424657435100,11.90243505859375,0.9070283770561218,-9.295188903808594,-2.7742063999176025
1761401424667516400,11.912516357421875,0.8806173205375671,-9.286884307861328,-2.8098950386047363
1761401424677597000,11.922596923828126,0.8506897687911987,-9.29541301727295,-2.8312931060791016
1761401424687676400,11.932676513671876,0.8435071706771851,-9.29541301727295,-2.822913408279419
1761401424697758500,11.942758544921874,0.8149263858795166,-9.285985946655273,-2.7905168533325195
1761401424707839700,11.95283984375,0.8043021559715271,-9.268178939819336,-2.762908697128296
1761401424717921500,11.962921630859375,0.8185925483703613,-9.270573616027832,-2.7414357662200928
1761401424728002600,11.97300244140625,0.8507646322250366,-9.294290542602539,-2.7487680912017822
1761401424738060500,11.983060546875,0.862660825252533,-9.300201416015625,-2.7691187858581543
1761401424748164400,11.993164306640624,0.8733598589897156,-9.297807693481445,-2.7811646461486816
1761401424758242300,12.0032421875,0.8924387097358704,-9.29646110534668,-2.797924041748047
1761401424768325400,12.013325439453125,0.8864531517028809,-9.321599960327148,-2.8051066398620605
1761401424778407000,12.023406982421875,0.8601169586181641,-9.33125114440918,-2.8086230754852295
1761401424788487400,12.0334873046875,0.863783061504364,-9.325265884399414,-2.795454978942871
1761401424798568700,12.043568603515626,0.8429834842681885,-9.32077693939209,-2.7700164318084717
1761401424808650000,12.05364990234375,0.8287678956985474,-9.301773071289062,-2.743680238723755
1761401424818730800,12.063730712890624,0.8132804036140442,-9.295862197875977,-2.719663381576538
1761401424828789000,12.0737890625,0.8049755096435547,-9.282769203186035,-2.718466281890869
1761401424838892000,12.08389208984375,0.8001123070716858,-9.267281532287598,-2.7375452518463135
1761401424848973000,12.09397314453125,0.8215852975845337,-9.25762939453125,-2.749591112136841
1761401424859053000,12.104052978515625,0.8383446931838989,-9.270648002624512,-2.7460744380950928
1761401424869136000,12.114135986328124,0.8610147833824158,-9.311200141906738,-2.737844467163086
1761401424879216000,12.124216064453124,0.8673743605613708,-9.349283218383789,-2.7356746196746826
1761401424889298000,12.1342978515625,0.8578723669052124,-9.349283218383789,-2.7344775199890137
1761401424899377700,12.144377685546875,0.8374468684196472,-9.326687812805176,-2.762983560562134
1761401424909436200,12.154436279296876,0.8362497687339783,-9.293169021606445,-2.7737574577331543
1761401424919541000,12.164541015625,0.841038167476654,-9.283666610717773,-2.7653777599334717
1761401424929620700,12.174620849609376,0.8350526690483093,-9.293243408203125,-2.762983560562134
1761401424939702800,12.184702880859374,0.8315361738204956,-9.305214881896973,-2.756998062133789
1761401424949783000,12.194782958984375,0.8316109776496887,-9.2980318069458,-2.737844467163086
1761401424959864300,12.2048642578125,0.8196399807929993,-9.305214881896973,-2.7438299655914307
1761401424969945300,12.2149453125,0.8254010081291199,-9.312322616577148,-2.7892448902130127
1761401424980000800,12.225000732421876,0.8432827591896057,-9.297882080078125,-2.8155810832977295
1761401424990107100,12.235107177734376,0.8635586500167847,-9.284713745117188,-2.8168530464172363
1761401425000187600,12.245187744140624,0.8959551453590393,-9.276185035705566,-2.79665207862854
1761401425010268400,12.255268310546874,0.8888474106788635,-9.26907730102539,-2.770390748977661
1761401425020349200,12.26534912109375,0.8792705535888672,-9.284639358520508,-2.778695583343506
1761401425030451000,12.275450927734376,0.858845055103302,-9.330129623413086,-2.7929859161376953
1761401425040511500,12.285511474609375,0.816871702671051,-9.338733673095703,-2.8035354614257812
1761401425050593800,12.29559375,0.7965209484100342,-9.313669204711914,-2.8081741333007812
1761401425060673800,12.305673828125,0.7930793166160583,-9.28149700164795,-2.768669843673706
1761401425070754800,12.3157548828125,0.8147019743919373,-9.285013198852539,-2.7353005409240723
1761401425080835300,12.32583544921875,0.8207622766494751,-9.299378395080566,-2.713902473449707
1761401425090916900,12.335916748046875,0.8147767782211304,-9.290999412536621,-2.7305870056152344
1761401425100998100,12.345998046875,0.8325836658477783,-9.288530349731445,-2.7485435009002686
1761401425111079400,12.356079345703124,0.8503904938697815,-9.28957748413086,-2.785653591156006
1761401425121165600,12.36616552734375,0.8584709763526917,-9.300426483154297,-2.790367364883423
1761401425131221000,12.376220947265624,0.8573486804962158,-9.284863471984863,-2.7771992683410645
1761401425141321200,12.3863212890625,0.8586205840110779,-9.301623344421387,-2.7509377002716064
1761401425151402500,12.396402587890625,0.8478466868400574,-9.32077693939209,-2.7437551021575928
1761401425161483000,12.40648291015625,0.8274959921836853,-9.345991134643555,-2.764030933380127
1761401425171565000,12.41656494140625,0.8023568391799927,-9.344868659973145,-2.7758524417877197
1761401425181645000,12.42664501953125,0.795174241065979,-9.329380989074707,-2.7865514755249023
1761401425191726000,12.43672607421875,0.8215104341506958,-9.296984672546387,-2.7782466411590576
1761401425201806800,12.446806884765625,0.824428379535675,-9.266907691955566,-2.779668092727661
1761401425211867600,12.45686767578125,0.8375964760780334,-9.256133079528809,-2.777348756790161
1761401425221969000,12.466968994140625,0.8567501306533813,-9.272743225097656,-2.7667245864868164
1761401425232049700,12.477049560546876,0.8711153268814087,-9.287034034729004,-2.7560253143310547
1761401425242131200,12.487131103515624,0.8889970183372498,-9.315614700317383,-2.7608885765075684
1761401425252189200,12.497189208984375,0.8901193141937256,-9.325191497802734,-2.7764508724212646
1761401425262272000,12.50727197265625,0.8697685599327087,-9.321674346923828,-2.7895443439483643
1761401425272373500,12.51737353515625,0.8434323668479919,-9.319355010986328,-2.802562713623047
1761401425282454000,12.5274541015625,0.8242039084434509,-9.315913200378418,-2.806004285812378
1761401425292535300,12.537535400390626,0.819490373134613,-9.29922866821289,-2.786776065826416
1761401425302616600,12.547616455078124,0.8123825788497925,-9.288530349731445,-2.765228033065796
1761401425312701700,12.55770166015625,0.8149263858795166,-9.276634216308594,-2.7269957065582275
1761401425322756000,12.567756103515626,0.8043021559715271,-9.274313926696777,-2.6791865825653076
1761401425332860000,12.57785986328125,0.8305635452270508,-9.29690933227539,-2.6769418716430664
1761401425342941400,12.58794140625,0.8555530309677124,-9.29077434539795,-2.711657762527466
1761401425353021200,12.598021240234376,0.8709656596183777,-9.3049898147583,-2.757147789001465
1761401425363085000,12.6080849609375,0.8577227592468262,-9.324143409729004,-2.781014919281006
1761401425373161000,12.618160888671875,0.8529343605041504,-9.32893180847168,-2.7858033180236816
1761401425383264500,12.628264404296875,0.8528595566749573,-9.337311744689941,-2.7929859161376953
1761401425393314800,12.638314697265624,0.8361749649047852,-9.319504737854004,-2.7881226539611816
1761401425403425800,12.64842578125,0.8290671706199646,-9.29922866821289,-2.7736825942993164
1761401425413507600,12.658507568359376,0.8123825788497925,-9.28374195098877,-2.7712135314941406
1761401425423587800,12.668587890625,0.8315361738204956,-9.26219367980957,-2.759317398071289
1761401425433668600,12.678668701171874,0.8316109776496887,-9.278953552246094,-2.7426328659057617
1761401425443749600,12.68874951171875,0.8558523058891296,-9.287108421325684,-2.7082161903381348
1761401425453831200,12.6988310546875,0.8833107948303223,-9.328857421875,-2.699986219406128
1761401425463912400,12.708912353515625,0.8748562932014465,-9.334768295288086,-2.7322330474853516
1761401425473970200,12.71897021484375,0.8424597382545471,-9.345691680908203,-2.7632081508636475
1761401425484074000,12.729073974609374,0.825625479221344,-9.324143409729004,-2.806079149246216
1761401425494155300,12.7391552734375,0.8327332735061646,-9.306187629699707,-2.820444345474243
1761401425504236300,12.749236328125,0.8412626385688782,-9.287108421325684,-2.7905917167663574
1761401425514273500,12.7592734375,0.8365490436553955,-9.284789085388184,-2.754753589630127
1761401425524397800,12.769397705078125,0.8270470499992371,-9.314716339111328,-2.72841739654541
1761401425534479000,12.77947900390625,0.8258499503135681,-9.32541561126709,-2.732008695602417
1761401425544560000,12.78956005859375,0.8102876543998718,-9.309927940368652,-2.759392261505127
1761401425554640600,12.799640625,0.809015691280365,-9.29922866821289,-2.7641806602478027
1761401425564722200,12.80972216796875,0.8162731528282166,-9.284863471984863,-2.752284526824951
1761401425574802400,12.819802490234375,0.8163479566574097,-9.284863471984863,-2.7223570346832275
1761401425584883200,12.82988330078125,0.8043769598007202,-9.308805465698242,-2.736722230911255
1761401425594965000,12.839965087890626,0.8365490436553955,-9.306262016296387,-2.7667245864868164
1761401425605045200,12.850045166015626,0.8505401611328125,-9.307458877563477,-2.7893197536468506
1761401425615094300,12.86009423828125,0.8565256595611572,-9.301473617553711,-2.7929859161376953
1761401425625207000,12.87020703125,0.8720131516456604,-9.307384490966797,-2.796577215194702
1761401425635274000,12.88027392578125,0.8649053573608398,-9.29189682006836,-2.77622652053833
1761401425645347000,12.89034716796875,0.845901370048523,-9.303942680358887,-2.7415106296539307
1761401425655427300,12.90042724609375,0.8387187719345093,-9.339855194091797,-2.734328031539917
1761401425665508600,12.910508544921875,0.8233060836791992,-9.332747459411621,-2.711583137512207
1761401425675589600,12.920589599609375,0.8472481369972229,-9.333869934082031,-2.6985645294189453
1761401425685692700,12.930692626953125,0.8389432430267334,-9.327884674072266,-2.70455002784729
1761401425695774000,12.94077392578125,0.8532336354255676,-9.32421875,-2.727294921875
1761401425705860400,12.9508603515625,0.8352771401405334,-9.287182807922363,-2.7510874271392822
1761401425715936300,12.960936279296876,0.8459762334823608,-9.263240814208984,-2.775029420852661
1761401425725994000,12.970993896484375,0.824428379535675,-9.276484489440918,-2.77854585647583
1761401425736098800,12.981098876953125,0.8400655388832092,-9.296759605407715,-2.7474961280822754
1761401425746179300,12.991179443359375,0.8316858410835266,-9.317111015319824,-2.732008695602417
