time,seconds_elapsed,z,y,x
1761401412872767000,0.11776708984375,-0.0019485069205984473,-0.005229325965046883,-0.011790964752435684
1761401412882870800,0.127870849609375,-0.003264165250584483,0.008643376640975475,-0.0037637825589627028
1761401412892929500,0.137929443359375,0.00048296325257979333,0.01933518424630165,0.0011324655497446656
1761401412903032800,0.14803271484375,0.00799387414008379,0.027812020853161812,-0.0015654671005904675
1761401412913090800,0.1580908203125,0.014438935555517673,0.02959398925304413,-0.00704460171982646
1761401412923195100,0.168195068359375,0.014322358183562756,0.02011791616678238,-0.008460183627903461
1761401412933275600,0.178275634765625,0.008593414910137653,0.006378445774316788,-0.00671152351424098
1761401412943334000,0.188333984375,0.00018319295486435294,-0.007977220229804516,-0.002814509905874729
1761401412953437700,0.198437744140625,-0.005279287695884705,-0.016187595203518867,0.0007327718194574118
1761401412963519200,0.208519287109375,-0.007710758130997419,-0.024830972775816917,-0.0003497319994494319
1761401412973600000,0.21860009765625,-0.008426875807344913,-0.015488131903111935,-0.003946975339204073
1761401412983680500,0.228680419921875,-0.004413284827023745,-0.003347434801980853,-0.004296707455068827
1761401412993762000,0.238761962890625,0.0012990045361220837,0.002964395098388195,-0.004746363032609224
1761401413003842600,0.248842529296875,0.006861408706754446,0.008443529717624187,-0.005612365901470184
1761401413013923600,0.258923583984375,0.012240620329976082,0.01269027590751648,-0.005529096350073814
1761401413024004600,0.269004638671875,0.01715352199971676,0.017436638474464417,-0.00472970912232995
1761401413034086100,0.279086181640625,0.020900649949908257,0.019984684884548187,-0.0027145864441990852
1761401413044166400,0.28916650390625,0.020600879564881325,0.0164873655885458,0.0020817380864173174
1761401413054247400,0.299247314453125,0.02020118571817875,0.005962098017334938,0.009942381642758846
1761401413064328400,0.309328369140625,0.02454785630106926,-0.0022982389200478792,0.015271631069481373
1761401413074387200,0.31938720703125,0.0288445632904768,-0.015288284979760647,0.013856048695743084
1761401413084490500,0.329490478515625,0.025613704696297646,-0.03305800259113312,0.007011293899267912
1761401413094571000,0.339571044921875,0.015887824818491936,-0.051077526062726974,0.0026812786236405373
1761401413104650800,0.349650634765625,0.009192955680191517,-0.06133633106946945,0.0013323123566806316
1761401413114733300,0.3597333984375,0.008476837538182735,-0.06614930927753448,0.0016320826252922416
1761401413124813800,0.369813720703125,0.01252373680472374,-0.06704862415790558,0.0025313934311270714
1761401413134894600,0.37989453125,0.019984684884548187,-0.0649835392832756,0.00039969373028725386
1761401413144976600,0.3899765625,0.02726244181394577,-0.06433403491973877,-0.003297473071143031
1761401413155057700,0.4000576171875,0.02776205912232399,-0.06203579530119896,-0.005562404170632362
1761401413165137200,0.41013720703125,0.022532733157277107,-0.05940447747707367,-0.005179364234209061
1761401413175219000,0.420218994140625,0.015687977895140648,-0.056589968502521515,-0.003447358263656497
1761401413185300200,0.43030029296875,0.011574463918805122,-0.054208461195230484,-0.0018319295486435294
1761401413195381000,0.440381103515625,0.013639547862112522,-0.0523432232439518,-0.00019984686514362693
1761401413205433600,0.45043359375,0.017803024500608444,-0.05389203503727913,-0.00039969373028725386
1761401413215542300,0.460542236328125,0.02120042033493519,-0.06228560581803322,-0.003330780891701579
1761401413225622500,0.47062255859375,0.020883996039628983,-0.07715754210948944,-0.005895482376217842
1761401413235733000,0.48073291015625,0.01653732731938362,-0.08681680262088776,-0.007277756463736296
1761401413245786000,0.4907861328125,0.0076108346693217754,-0.08180397748947144,-0.0027145864441990852
1761401413255864000,0.500864013671875,0.0005995405954308808,-0.061469562351703644,0.0038137442898005247
1761401413265948200,0.5109482421875,-0.0002831163874361664,-0.03695501387119293,0.00576225109398365
1761401413276028400,0.5210283203125,0.003397396532818675,-0.021133804693818092,0.0013822740875184536
1761401413286109700,0.531109619140625,0.007161179091781378,-0.02476435713469982,-0.006161944940686226
1761401413296190200,0.541190185546875,0.00654498441144824,-0.04469908028841019,-0.013223200105130672
1761401413306290700,0.551290771484375,0.005878828465938568,-0.06325153261423111,-0.014139165170490742
1761401413316371700,0.561371826171875,0.0038803599309176207,-0.07374349236488342,-0.008376914076507092
1761401413326411000,0.571410888671875,-0.005778905004262924,-0.07534226775169373,0.0008993108640424907
1761401413336515600,0.581515625,-0.01756986975669861,-0.06468376517295837,0.008626722730696201
1761401413346595600,0.591595703125,-0.022016461938619614,-0.05196018144488335,0.010242151096463203
1761401413356676000,0.601676025390625,-0.014722052030265331,-0.050827719271183014,-0.0022482771892100573
1761401413366757400,0.61175732421875,-0.004396630916744471,-0.05823870375752449,-0.024248085916042328
1761401413376838700,0.621838623046875,-0.000016653904822305776,-0.07279422134160995,-0.0485960952937603
1761401413386919700,0.631919677734375,-0.0016487365355715156,-0.08758288621902466,-0.07052928954362869
1761401413397003300,0.642003173828125,-0.006994639988988638,-0.09935719519853592,-0.08704996109008789
1761401413407081000,0.6520810546875,-0.014222434721887112,-0.10863342136144638,-0.09166309237480164
1761401413417164000,0.6621640625,-0.022066423669457436,-0.11589452624320984,-0.08328618109226227
1761401413427242500,0.672242431640625,-0.03039337694644928,-0.12147358059883118,-0.06538323312997818
1761401413437324000,0.682323974609375,-0.035089775919914246,-0.1228058934211731,-0.047446973621845245
1761401413447386000,0.69238623046875,-0.030176876112818718,-0.12129038572311401,-0.03778770938515663
1761401413457486000,0.702486083984375,-0.022149693220853806,-0.1269027590751648,-0.03882025182247162
1761401413467567400,0.7125673828125,-0.018685681745409966,-0.1378110647201538,-0.04821305349469185
1761401413477648400,0.7226484375,-0.01756986975669861,-0.14500555396080017,-0.05770577862858772
1761401413487729200,0.732729248046875,-0.0201678778976202,-0.1484862118959427,-0.06348468363285065
1761401413497810000,0.742809814453125,-0.022599348798394203,-0.14906910061836243,-0.06569965183734894
1761401413507890200,0.75289013671875,-0.02429804764688015,-0.14991845190525055,-0.06533326953649521
1761401413517971700,0.7629716796875,-0.024264739826321602,-0.1502348780632019,-0.06083671376109123
1761401413528052500,0.773052490234375,-0.01886887475848198,-0.14961868524551392,-0.057672470808029175
1761401413538134000,0.783134033203125,-0.014705398119986057,-0.14314031600952148,-0.056340161710977554
1761401413548232700,0.793232666015625,-0.016637250781059265,-0.1360623985528946,-0.05385872721672058
1761401413558274000,0.803274169921875,-0.02288246527314186,-0.12105723470449448,-0.05097760260105133
1761401413568400400,0.813400390625,-0.029793836176395416,-0.10476971417665482,-0.04689739644527435
1761401413578434800,0.823434814453125,-0.034173812717199326,-0.09237921237945557,-0.0444992333650589
1761401413588515300,0.833515380859375,-0.0337408110499382,-0.08458518236875534,-0.046031393110752106
1761401413598619600,0.84361962890625,-0.030343415215611458,-0.07940582185983658,-0.048579439520835876
1761401413608701000,0.853700927734375,-0.0267961323261261,-0.08090467005968094,-0.04976186901330948
1761401413618759000,0.863759033203125,-0.031176110729575157,-0.07445960491895676,-0.04906240478157997
1761401413628842000,0.873842041015625,-0.038720328360795975,-0.06823104619979858,-0.04618127644062042
1761401413638920400,0.88392041015625,-0.044066231697797775,-0.06626588851213455,-0.04131833836436272
1761401413649024000,0.89402392578125,-0.0428338423371315,-0.06749827414751053,-0.03702162951231003
1761401413659105500,0.90410546875,-0.03907006233930588,-0.06385107338428497,-0.038270674645900726
1761401413669164800,0.914164794921875,-0.037304747849702835,-0.0379042886197567,-0.03733805567026138
1761401413679266800,0.924266845703125,-0.03562270104885101,-0.0452653132379055,-0.02629651501774788
1761401413689352400,0.9343525390625,-0.03515639156103134,-0.08306967467069626,-0.009609303437173367
1761401413699429600,0.9444296875,-0.03598908707499504,-0.09807484596967697,-0.002431470202282071
1761401413709486800,0.95448681640625,-0.03627220541238785,-0.08963131904602051,-0.007760719861835241
1761401413719590400,0.96459033203125,-0.034839969128370285,-0.06744831800460815,-0.01765313930809498
1761401413729672200,0.974672119140625,-0.028494831174612045,-0.042350880801677704,-0.023365428671240807
1761401413739743200,0.9847431640625,-0.020317763090133667,-0.02329881303012371,-0.017636485397815704
1761401413749831700,0.994831787109375,-0.014272396452724934,-0.019385145977139473,-0.007077909540385008
1761401413759903000,1.004903076171875,-0.010958269238471985,-0.028777947649359703,-0.0045964778400957584
1761401413770006300,1.01500634765625,-0.011574463918805122,-0.027379019185900688,-0.010158881545066833
1761401413780053500,1.025053466796875,-0.012723583728075027,-0.01858575828373432,-0.01598774828016758
1761401413790158600,1.03515869140625,-0.019801493734121323,-0.015438170172274113,-0.017686447128653526
1761401413800239400,1.0452392578125,-0.0308929942548275,-0.011957503855228424,-0.016387442126870155
1761401413810290700,1.055290771484375,-0.03907006233930588,-0.016920367255806923,-0.011158116161823273
1761401413820361700,1.06536181640625,-0.04025248810648918,-0.030326761305332184,-0.006311830133199692
1761401413830478800,1.075478759765625,-0.04088533669710159,-0.04806317016482353,-0.003464012173935771
1761401413840563000,1.08556298828125,-0.04221764951944351,-0.05898813158273697,0.0008660030434839427
1761401413850643200,1.095643310546875,-0.03885355964303017,-0.0633181482553482,0.009859112091362476
1761401413860747500,1.10574755859375,-0.03372415900230408,-0.06295175850391388,0.016520673409104347
1761401413870805800,1.1158056640625,-0.02588016726076603,-0.053708843886852264,0.014372319914400578
1761401413880863700,1.12586376953125,-0.01737002283334732,-0.04228426516056061,0.006145291030406952
1761401413890967800,1.1359677734375,-0.011008230969309807,-0.04303368926048279,-0.0038303982000797987
1761401413901048800,1.146048828125,-0.006828100886195898,-0.05649004504084587,-0.010808384045958519
1761401413911114500,1.156114501953125,0.0022815850097686052,-0.07381010800600052,-0.01408920343965292
1761401413921211000,1.1662109375,0.009775842539966106,-0.08708326518535614,-0.013972626067698002
1761401413931281200,1.17628125,0.011208077892661095,-0.0880325436592102,-0.011208077892661095
1761401413941372700,1.18637255859375,0.011874234303832054,-0.08005531877279282,-0.007311064284294844
1761401413951473200,1.19647314453125,0.011008230969309807,-0.06834762543439865,-0.0026479708030819893
1761401413961534200,1.2065341796875,0.010092265903949738,-0.05732274055480957,0.0018319295486435294
1761401413971592700,1.2165927734375,0.012623660266399384,-0.0567898154258728,0.005745597183704376
1761401413981696300,1.2266962890625,0.015854516997933388,-0.059004783630371094,0.005695635452866554
1761401413991757000,1.236757080078125,0.016920367255806923,-0.057222817093133926,0.0026812786236405373
1761401414001857800,1.24685791015625,0.013373085297644138,-0.04729709029197693,0.0005995405954308808
1761401414011916300,1.256916259765625,0.00489624822512269,-0.024997511878609657,0.00004996171628590673
1761401414022019800,1.267019775390625,-0.0038470521103590727,0.0015821210108697414,0.0010825038189068437
1761401414032101400,1.277101318359375,-0.008310298435389996,0.025613704696297646,0.004263399634510279
1761401414042182000,1.287181884765625,-0.00849349144846201,0.05142725631594658,0.01194084994494915
1761401414052263000,1.297262939453125,-0.006228560581803322,0.07560873031616211,0.02288246527314186
1761401414062344400,1.307344482421875,-0.003130934201180935,0.09541022032499313,0.03645539656281471
1761401414072424400,1.317424560546875,-0.00038303982000797987,0.10498621314764023,0.04731374233961105
1761401414082505700,1.327505615234375,0.004230091813951731,0.11289682239294052,0.0523432232439518
1761401414092586000,1.3375859375,0.008859877474606037,0.12089069187641144,0.05347568914294243
1761401414102667500,1.34766748046875,0.008426875807344913,0.12750229239463806,0.05460815504193306
1761401414112726000,1.35772607421875,0.002398162381723523,0.12826837599277496,0.05747262388467789
1761401414122829600,1.36782958984375,-0.006111983209848404,0.12144027650356293,0.06343472003936768
1761401414132910000,1.37791015625,-0.010541921481490135,0.10703464597463608,0.07189490646123886
1761401414142992000,1.387991943359375,-0.012823506258428097,0.10060624033212662,0.07472606748342514
1761401414153072400,1.398072265625,-0.01317323837429285,0.08961465954780579,0.06586619466543198
1761401414163153700,1.408153564453125,-0.014655436389148235,0.07680781185626984,0.050328101962804794
1761401414173212000,1.4182119140625,-0.01682044379413128,0.07067917287349701,0.029410796239972115
1761401414183315500,1.4283154296875,-0.016587289050221443,0.06826435774564743,0.011141462251543999
1761401414193373400,1.43837353515625,-0.011424578726291656,0.07207810133695602,0.004413284827023745
1761401414203459000,1.448458984375,-0.003497319994494319,0.0815042108297348,0.00679479306563735
1761401414213551000,1.458551025390625,0.0017819678178057075,0.09003101289272308,0.015787901356816292
1761401414223639600,1.4686396484375,0.004113514441996813,0.09194620698690414,0.02086734212934971
1761401414233720600,1.478720458984375,0.007677450310438871,0.08978120237588882,0.02274923399090767
1761401414243822000,1.488822021484375,0.011541156098246574,0.08200382441282272,0.0222163088619709
1761401414253862700,1.498862548828125,0.016220903024077415,0.06694869697093964,0.022815849632024765
1761401414263972000,1.50897216796875,0.017220137640833855,0.05482465401291847,0.025114089250564575
1761401414274044400,1.51904443359375,0.01850248873233795,0.05524100363254547,0.03167572617530823
1761401414284125000,1.529125,0.019718224182724953,0.05983747914433479,0.037637826055288315
1761401414294206200,1.539206298828125,0.018052833154797554,0.061602793633937836,0.04145156964659691
1761401414304286700,1.54928662109375,0.018635720014572144,0.05703962221741676,0.04183460772037506
1761401414314333000,1.5593330078125,0.023232197389006615,0.05034475401043892,0.039353176951408386
1761401414324449000,1.569448974609375,0.026646247133612633,0.04058556631207466,0.031875573098659515
1761401414334530300,1.5795302734375,0.027229133993387222,0.035755932331085205,0.022316232323646545
1761401414344610600,1.589610595703125,0.02701263315975666,0.03522300720214844,0.016420749947428703
1761401414354691800,1.59969189453125,0.026579631492495537,0.0354062020778656,0.012856814078986645
1761401414364755200,1.609755126953125,0.02604670636355877,0.03389069810509682,0.011574463918805122
1761401414374854100,1.619854248046875,0.025497129186987877,0.029327526688575745,0.009226263500750065
1761401414384912000,1.629911865234375,0.025447167456150055,0.025447167456150055,0.006295176222920418
1761401414394998000,1.639998046875,0.02446458674967289,0.019968030974268913,0.002797855995595455
1761401414405074000,1.650073974609375,0.023098966106772423,0.017969563603401184,0.0020317763555794954
1761401414415179000,1.660178955078125,0.022599348798394203,0.017553215846419334,0.0044799004681408405
1761401414425259000,1.670259033203125,0.021233728155493736,0.015721285715699196,0.006994639988988638
1761401414435319600,1.680319580078125,0.018768951296806335,0.014139165170490742,0.0053625572472810745
1761401414445402600,1.690402587890625,0.018069487065076828,0.015588055364787579,0.002964395098388195
1761401414455479800,1.700479736328125,0.01920195296406746,0.018252680078148842,-0.0010158881777897477
1761401414465559800,1.710559814453125,0.02196650020778179,0.018885528668761253,-0.00481297867372632
1761401414475663600,1.72066357421875,0.0250974353402853,0.018152756616473198,-0.004146822262555361
1761401414485721900,1.730721923828125,0.02612997591495514,0.017419984564185143,-0.0008160413126461208
1761401414495825400,1.740825439453125,0.02476435713469982,0.018302641808986664,0.003597243456169963
1761401414505884700,1.750884765625,0.024497894570231438,0.02070080302655697,0.00634513795375824
1761401414515963100,1.760963134765625,0.024281393736600876,0.025663666427135468,0.007111217360943556
1761401414526068700,1.77106884765625,0.024364663287997246,0.029793836176395416,0.00832695234566927
1761401414536148700,1.781148681640625,0.02308231219649315,0.03285815566778183,0.011224731802940369
1761401414546187300,1.791187255859375,0.023831738159060478,0.03560604900121689,0.014772013761103153
1761401414556311800,1.801311767578125,0.022815849632024765,0.03548946976661682,0.017436638474464417
1761401414566392600,1.811392578125,0.021100496873259544,0.03523966297507286,0.017253445461392403
1761401414576469800,1.8214697265625,0.02041768655180931,0.03627220541238785,0.014688744209706783
1761401414586550800,1.83155078125,0.020434340462088585,0.031042879447340965,0.012257274240255356
1761401414596612000,1.841612060546875,0.019468415528535843,0.024281393736600876,0.011741003021597862
1761401414606715600,1.851715576171875,0.018086140975356102,0.01820271834731102,0.011641079559922218
1761401414616798200,1.861798095703125,0.016387442126870155,0.016054363921284676,0.012906775809824467
1761401414626892800,1.871892822265625,0.016637250781059265,0.016437403857707977,0.016054363921284676
1761401414636961300,1.881961181640625,0.01715352199971676,0.02058422565460205,0.019218606874346733
1761401414647033600,1.89203369140625,0.019102029502391815,0.028045175597071648,0.022932427003979683
1761401414657120000,1.9021201171875,0.021183766424655914,0.03460681438446045,0.024031585082411766
1761401414667204000,1.9122041015625,0.02003464661538601,0.04421611875295639,0.024164816364645958
1761401414677304000,1.922303955078125,0.019435107707977295,0.04801320657134056,0.027062594890594482
1761401414687363300,1.93236328125,0.021233728155493736,0.048912517726421356,0.02568032033741474
1761401414697445600,1.942445556640625,0.021783307194709778,0.046947356313467026,0.022482771426439285
1761401414707502600,1.952502685546875,0.02058422565460205,0.04188457131385803,0.021233728155493736
1761401414717606400,1.9626064453125,0.015787901356816292,0.03923660144209862,0.021300343796610832
1761401414727687400,1.9726875,0.012940083630383015,0.041601452976465225,0.025830205529928207
1761401414737768700,1.982768798828125,0.012573698535561562,0.04643108695745468,0.029360834509134293
1761401414747852000,1.99285205078125,0.01277354545891285,0.05405857414007187,0.032958079129457474
1761401414757907200,2.0029072265625,0.01408920343965292,0.06788131594657898,0.03717151656746864
1761401414767988500,2.012988525390625,0.014971860684454441,0.0806715115904808,0.041135143488645554
1761401414778072800,2.02307275390625,0.015854516997933388,0.08658365160226822,0.04153483733534813
1761401414788162300,2.033162353515625,0.014239088632166386,0.08914835005998611,0.04131833836436272
1761401414798254000,2.043254150390625,0.014155819080770016,0.09192955493927002,0.042101070284843445
1761401414808334800,2.0533349609375,0.01607101783156395,0.09154651314020157,0.04205111041665077
1761401414818393600,2.0633935546875,0.016520673409104347,0.08878196775913239,0.04141826182603836
1761401414828476200,2.07347607421875,0.014955206774175167,0.08711657673120499,0.0411684513092041
1761401414838580500,2.08358056640625,0.012790199369192123,0.0852513387799263,0.04369984567165375
1761401414848658200,2.093658203125,0.009026416577398777,0.0774739682674408,0.04246745631098747
1761401414858740000,2.103739990234375,0.007261102553457022,0.07126206159591675,0.037471286952495575
1761401414868799200,2.11379931640625,0.007277756463736296,0.06871400773525238,0.03382408246397972
1761401414878901800,2.12390185546875,0.008643376640975475,0.06666558235883713,0.031875573098659515
1761401414888965000,2.133965087890625,0.009559341706335545,0.07027947902679443,0.031575802713632584
1761401414899041000,2.144041015625,0.014538859017193317,0.07049597799777985,0.030343415215611458
1761401414909121800,2.154121826171875,0.014272396452724934,0.07017955183982849,0.029843797907233238
1761401414919203300,2.164203369140625,0.011591117829084396,0.062019143253564835,0.03250842168927193
1761401414929307400,2.174307373046875,0.008893185295164585,0.057422664016485214,0.03372415900230408
1761401414939366400,2.184366455078125,0.006694869603961706,0.0535256490111351,0.03210872784256935
1761401414949450500,2.194450439453125,0.0037970903795212507,0.046980664134025574,0.02842821553349495
1761401414959529700,2.20452978515625,0.0011824272805824876,0.04055225849151611,0.023915007710456848
1761401414969608200,2.214608154296875,-0.0015321592800319195,0.039436448365449905,0.021600114181637764
1761401414979689000,2.22468896484375,-0.004713055212050676,0.0440162718296051,0.02204976975917816
1761401414989793000,2.23479296875,-0.004280053544789553,0.05139394849538803,0.022266270592808723
1761401414999872800,2.244872802734375,-0.003563935635611415,0.055624041706323624,0.02133365161716938
1761401415009922000,2.254922119140625,-0.0037304747384041548,0.05552411824464798,0.01916864514350891
1761401415020012500,2.265012451171875,-0.006062021479010582,0.0539419986307621,0.01866902783513069
1761401415030099700,2.275099609375,-0.00626186840236187,0.05414184555411339,0.019684916362166405
1761401415040197000,2.285197021484375,-0.006111983209848404,0.05280953273177147,0.02033441700041294
1761401415050278400,2.2952783203125,-0.008093797601759434,0.05184360593557358,0.018019525334239006
1761401415060337200,2.305337158203125,-0.008643376640975475,0.049745213240385056,0.014905245043337345
1761401415070439700,2.315439697265625,-0.008593414910137653,0.043066997081041336,0.011741003021597862
1761401415080498200,2.325498291015625,-0.007327718194574118,0.03718816861510277,0.011041538789868355
1761401415090598100,2.33559814453125,-0.005079440772533417,0.03349100425839424,0.010408690199255943
1761401415100668000,2.34566796875,-0.004196783993393183,0.029410796239972115,0.0103087667375803
1761401415110764000,2.355763916015625,-0.005162710323929787,0.02120042033493519,0.00729441037401557
1761401415120844800,2.3658447265625,-0.0075608729384839535,0.008776607923209667,0.003097626380622387
1761401415130926300,2.37592626953125,-0.010158881545066833,-0.004013590980321169,-0.0015488131903111935
1761401415141006300,2.38600634765625,-0.012740237638354301,-0.013373085297644138,-0.0037304747384041548
1761401415151089200,2.396089111328125,-0.013489662669599056,-0.015787901356816292,-0.004280053544789553
1761401415161169000,2.4061689453125,-0.012223966419696808,-0.013406393118202686,-0.00646171486005187
1761401415171249400,2.41624951171875,-0.010325420647859573,-0.01119142398238182,-0.009276225231587887
1761401415181310200,2.426310302734375,-0.00737767992541194,-0.008526799269020557,-0.009925727732479572
1761401415191411000,2.436410888671875,-0.004363323096185923,-0.009775842539966106,-0.010908307507634163
1761401415201470200,2.44647021484375,-0.0020484302658587694,-0.011890888214111328,-0.010891653597354889
1761401415211553000,2.456552978515625,-0.0002831163874361664,-0.015971094369888306,-0.008560107089579105
1761401415221644300,2.466644287109375,-0.0009326186846010387,-0.01665390469133854,-0.0053459033370018005
1761401415231736300,2.476736328125,-0.0027145864441990852,-0.018302641808986664,-0.005828866735100746
1761401415241811200,2.486811279296875,-0.005245979875326157,-0.022932427003979683,-0.008143759332597256
1761401415251874600,2.49687451171875,-0.008043835870921612,-0.027911944314837456,-0.012057427316904068
1761401415261978400,2.506978271484375,-0.010924961417913437,-0.0320754200220108,-0.0135895861312747
1761401415272037000,2.517037109375,-0.015404862351715565,-0.03139261156320572,-0.013822740875184536
1761401415282139600,2.5271396484375,-0.018635720014572144,-0.02914433367550373,-0.012940083630383015
1761401415292221200,2.53722119140625,-0.014072549529373646,-0.025480475276708603,-0.012557044625282288
1761401415302302500,2.547302490234375,-0.00679479306563735,-0.02333212085068226,-0.014289050363004208
1761401415312383200,2.55738330078125,-0.003047664649784565,-0.023681852966547012,-0.017603177577257156
1761401415322445800,2.56744580078125,-0.003397396532818675,-0.02501416578888893,-0.01753656193614006
1761401415332532200,2.5775322265625,-0.0014988514594733715,-0.023815084248781204,-0.01400593388825655
1761401415342605800,2.587605712890625,0.00038303982000797987,-0.023931661620736122,-0.011008230969309807
1761401415352672300,2.59767236328125,0.0015987749211490154,-0.02676282450556755,-0.008693338371813297
1761401415362765000,2.60776513671875,0.0010991577291861176,-0.032092075794935226,-0.008376914076507092
1761401415372869000,2.617869140625,-0.0007827335502952337,-0.03390735015273094,-0.007760719861835241
1761401415382949600,2.62794970703125,-0.0018485834589228034,-0.033374425023794174,-0.006928024347871542
1761401415393030400,2.638030517578125,-0.0015654671005904675,-0.03069314733147621,-0.006411753129214048
1761401415403099000,2.648098876953125,0.0008160413126461208,-0.03184226527810097,-0.0075941807590425014
1761401415413168600,2.658168701171875,0.0027145864441990852,-0.035972435027360916,-0.010158881545066833
1761401415423274000,2.66827392578125,0.004996171221137047,-0.04058556631207466,-0.01284016016870737
1761401415433355500,2.67835546875,0.0053958650678396225,-0.04163476079702377,-0.013306469656527042
1761401415443412500,2.68841259765625,0.004363323096185923,-0.03928656131029129,-0.011790964752435684
1761401415453517000,2.69851708984375,0.004096860531717539,-0.036472052335739136,-0.011158116161823273
1761401415463603200,2.708603271484375,0.0038803599309176207,-0.033041346818208694,-0.00979249645024538
1761401415473679600,2.7186796875,0.004796324763447046,-0.02701263315975666,-0.008127105422317982
1761401415483760000,2.728760009765625,0.004946209955960512,-0.022266270592808723,-0.007444295566529036
1761401415493840600,2.738840576171875,0.003930321428924799,-0.01673717424273491,-0.005612365901470184
1761401415503921400,2.74892138671875,0.0020151224453002214,-0.012340543791651726,-0.003547281725332141
1761401415513979600,2.758979736328125,0.0019485069205984473,-0.009109686128795147,-0.002314892830327153
1761401415524083200,2.769083251953125,0.0015987749211490154,-0.007261102553457022,-0.0010825038189068437
1761401415534164500,2.77916455078125,0.002864471636712551,-0.003697166917845607,0.0024980856105685234
1761401415544245200,2.789245361328125,0.003597243456169963,-0.0018485834589228034,0.0037471286486834288
1761401415554327000,2.7993271484375,0.004413284827023745,-0.002881125546991825,0.0018319295486435294
1761401415564430800,2.809430908203125,0.004912902135401964,-0.0053958650678396225,-0.00038303982000797987
1761401415574487300,2.8194873046875,0.004096860531717539,-0.006644907873123884,-0.0010158881777897477
1761401415584586800,2.829586669921875,0.004213437903672457,-0.003513973904773593,0.0011491194600239396
1761401415594627600,2.839627685546875,0.004862940404564142,0.0038137442898005247,0.005062786862254143
1761401415604732000,2.84973193359375,0.006395099684596062,0.00962595734745264,0.007660796400159597
1761401415614813000,2.85981298828125,0.00841022189706564,0.011807618662714958,0.008893185295164585
1761401415624893400,2.8698935546875,0.008560107089579105,0.006445060949772596,0.008443529717624187
1761401415634951400,2.879951416015625,0.008526799269020557,0.0025980090722441673,0.007810681592673063
1761401415645034800,2.89003466796875,0.007977220229804516,0.002314892830327153,0.007727412041276693
1761401415655113200,2.90011328125,0.0076108346693217754,0.00679479306563735,0.00937614869326353
1761401415665217500,2.910217529296875,0.009226263500750065,0.013073314912617207,0.011424578726291656
1761401415675298300,2.92029833984375,0.01169104129076004,0.016837097704410553,0.012357197701931
1761401415685378800,2.93037890625,0.012723583728075027,0.018319295719265938,0.013622893951833248
1761401415695459600,2.94045947265625,0.011174770072102547,0.01698698289692402,0.014705398119986057
1761401415705518300,2.950518310546875,0.008709992282092571,0.01745329238474369,0.01483862940222025
1761401415715604700,2.960604736328125,0.007361026015132666,0.018802259117364883,0.013456354849040508
1761401415725680600,2.9706806640625,0.006644907873123884,0.02053426392376423,0.011790964752435684
1761401415735783200,2.980783203125,0.006395099684596062,0.023282159119844437,0.010825037956237793
1761401415745852200,2.99085205078125,0.004763016942888498,0.026812786236405373,0.013056661002337933
1761401415755945700,3.00094580078125,0.0019984685350209475,0.02814509905874729,0.018002871423959732
1761401415766004000,3.01100390625,0.002414816292002797,0.032591693103313446,0.021700037643313408
1761401415776108300,3.0211083984375,0.007061255630105734,0.03587251156568527,0.021150458604097366
1761401415786189000,3.03118896484375,0.010625191032886505,0.0349898524582386,0.017753062769770622
1761401415796269600,3.04126953125,0.010491959750652313,0.032958079129457474,0.01582120917737484
1761401415806351000,3.05135107421875,0.011457886546850204,0.03437365964055061,0.01670386642217636
1761401415816408800,3.061408935546875,0.011291347444057465,0.032458461821079254,0.01695367507636547
1761401415826507000,3.071507080078125,0.008010528050363064,0.02942745015025139,0.01467209029942751
1761401415836555500,3.081555419921875,0.006062021479010582,0.024314701557159424,0.011374616995453835
1761401415846653200,3.091653076171875,0.003130934201180935,0.01875229738652706,0.007244448643177748
1761401415856755200,3.101755126953125,-0.0002165007608709857,0.012873467989265919,0.003697166917845607
1761401415866818600,3.111818603515625,-0.0021650076378136873,0.00679479306563735,0.0018152756383642554
1761401415876894500,3.12189453125,-0.0007660796400159597,0.00671152351424098,0.003547281725332141
1761401415887002000,3.132002197265625,0.002914433367550373,0.010292112827301025,0.005562404170632362
1761401415897078000,3.142078125,0.006028713658452034,0.014438935555517673,0.006295176222920418
1761401415907164200,3.1521640625,0.00816041324287653,0.017303407192230225,0.008210374973714352
1761401415917240300,3.162240234375,0.01047530584037304,0.017969563603401184,0.012040773406624794
1761401415927322000,3.172322021484375,0.011624425649642944,0.015454824082553387,0.01673717424273491
1761401415937403400,3.1824033203125,0.009725880809128284,0.01144123263657093,0.018086140975356102
1761401415947478300,3.192478271484375,0.006661561783403158,0.013239854015409946,0.016603942960500717
1761401415957565200,3.202565185546875,0.0026146629825234413,0.013822740875184536,0.012823506258428097
1761401415967646200,3.212646240234375,-0.002464778022840619,0.014955206774175167,0.009309533052146435
1761401415977726500,3.2227265625,-0.004996171221137047,0.017086906358599663,0.0053125955164432526
1761401415987807500,3.232807373046875,-0.005662327632308006,0.01803617924451828,0.0010658499086275697
1761401415997889800,3.242889892578125,-0.004080206621438265,0.018219372257590294,-0.0017320060869678855
1761401416007970600,3.252970458984375,-0.0016320826252922416,0.016220903024077415,-0.003147588111460209
1761401416018051000,3.263051025390625,-0.0002997702977154404,0.008526799269020557,-0.002831163816154003
1761401416028130800,3.273130859375,0.0017320060869678855,0.0038970138411968946,-0.0006161945057101548
1761401416038212400,3.28321240234375,0.003530627815052867,0.002414816292002797,0.0001332312385784462
1761401416048294000,3.2932939453125,0.002414816292002797,0.0011990811908617616,0.0013156584464013577
1761401416058356000,3.30335595703125,0.0017486599972471595,0.0005662327748723328,0.003197549842298031
1761401416068432000,3.313431884765625,0.0020817380864173174,0.0010658499086275697,0.004346669185906649
1761401416078514200,3.32351416015625,0.0013323123566806316,0.0002831163874361664,0.006078675389289856
1761401416088595000,3.333594970703125,0.00039969373028725386,-0.002847817726433277,0.004879594314843416
1761401416098698500,3.343698486328125,0.0005662327748723328,-0.004679747391492128,0.0038637060206383467
1761401416108778200,3.3537783203125,0.0013989279977977276,-0.006045367568731308,0.0012990045361220837
1761401416118860300,3.3638603515625,0.0014488897286355495,-0.008526799269020557,-0.000016653904822305776
1761401416128937500,3.3739375,0.002364854561164975,-0.00997568853199482,-0.002881125546991825
1761401416138979300,3.383979248046875,0.003430704353377223,-0.011424578726291656,-0.0053459033370018005
1761401416149103600,3.394103515625,0.0026146629825234413,-0.013306469656527042,-0.008693338371813297
1761401416159183600,3.40418359375,0.00046630934230051935,-0.01392266433686018,-0.010008996352553368
1761401416169266000,3.414265869140625,-0.00023315467115025967,-0.01210738904774189,-0.00799387414008379
1761401416179345700,3.424345703125,-0.0019318530103191733,-0.010042304173111916,-0.0037804364692419767
1761401416189427500,3.434427490234375,-0.0016320826252922416,-0.008376914076507092,-0.0010991577291861176
1761401416199499300,3.444499267578125,-0.0006994639988988638,-0.00687806261703372,-0.0004996171337552369
1761401416209566200,3.454566162109375,-0.00038303982000797987,-0.006844754796475172,-0.0008160413126461208
1761401416219669800,3.464669677734375,-0.0011990811908617616,-0.008210374973714352,-0.0008160413126461208
1761401416229750300,3.474750244140625,-0.0037804364692419767,-0.012790199369192123,-0.0002831163874361664
1761401416239831300,3.484831298828125,-0.0037471286486834288,-0.014205780811607838,-0.0011324655497446656
1761401416249913000,3.4949130859375,0.00009992343257181346,-0.014155819080770016,-0.0018652373692020774
1761401416259993600,3.50499365234375,0.0018152756383642554,-0.015704631805419922,-0.005945444107055664
1761401416270074600,3.51507470703125,0.0018985451897606254,-0.017253445461392403,-0.008626722730696201
1761401416280155400,3.5251552734375,0.0013489662669599056,-0.016470711678266525,-0.0074942572973668575
1761401416290237000,3.53523681640625,0.0026646247133612633,-0.01582120917737484,-0.006728177424520254
1761401416300294700,3.545294677734375,0.002348200650885701,-0.015371554531157017,-0.00654498441144824
1761401416310375400,3.55537548828125,0.002314892830327153,-0.010958269238471985,-0.005562404170632362
1761401416320457200,3.565457275390625,0.003397396532818675,-0.009026416577398777,-0.005196018144488335
1761401416330539500,3.57553955078125,0.0037304747384041548,-0.00954268779605627,-0.005279287695884705
1761401416340641800,3.585641845703125,0.0027145864441990852,-0.009675919078290462,-0.004779670853167772
1761401416350722800,3.595722900390625,0.003380742622539401,-0.00962595734745264,-0.004280053544789553
1761401416360804600,3.6058046875,0.003697166917845607,-0.012290582060813904,-0.0019818146247416735
1761401416370884600,3.615884521484375,0.0038803599309176207,-0.016270864754915237,-0.0009659265051595867
1761401416380966000,3.6259658203125,0.003930321428924799,-0.018319295719265938,0.0002831163874361664
1761401416391045600,3.636045654296875,0.003513973904773593,-0.016387442126870155,0.0010325420880690217
1761401416401128200,3.646128173828125,0.0026646247133612633,-0.01219065859913826,0.0015155053697526455
1761401416411209000,3.656208984375,0.003513973904773593,-0.004713055212050676,0.002348200650885701
1761401416421289200,3.666289306640625,0.004912902135401964,0.003364088712260127,0.0044632465578615665
1761401416431370500,3.67637060546875,0.006694869603961706,0.006911370437592268,0.003597243456169963
1761401416441428000,3.686427978515625,0.007194486912339926,0.006445060949772596,0.0010158881777897477
1761401416451532500,3.696532470703125,0.006911370437592268,0.00489624822512269,0.00023315467115025967
1761401416461613600,3.706613525390625,0.005146056413650513,0.0038803599309176207,0.0011158116394653916
1761401416471671000,3.716671142578125,0.003114280290901661,0.0021983154583722353,0.0018985451897606254
1761401416481774800,3.72677490234375,0.0007993874605745077,-0.0017153521766886115,0.0016986982664093375
1761401416491856400,3.7368564453125,0.0013156584464013577,-0.0021316998172551394,0.0015821210108697414
1761401416501937700,3.746937744140625,0.003464012173935771,-0.0015155053697526455,0.0045798239298164845
1761401416511995600,3.75699560546875,0.00626186840236187,-0.00018319295486435294,0.005695635452866554
1761401416522076700,3.76707666015625,0.007644142489880323,0.0008660030434839427,0.00704460171982646
1761401416532180200,3.77718017578125,0.00671152351424098,0.003697166917845607,0.008210374973714352
1761401416542261000,3.787260986328125,0.007710758130997419,0.00979249645024538,0.009192955680191517
1761401416552342000,3.797342041015625,0.010974923148751259,0.012207312509417534,0.011657733470201492
1761401416562422800,3.8074228515625,0.012823506258428097,0.009426110424101353,0.013473008759319782
1761401416572503600,3.817503662109375,0.013189892284572124,0.006211906671524048,0.01308996882289648
1761401416582556700,3.827556640625,0.012640314176678658,0.0022649310994893312,0.01227392815053463
1761401416592665600,3.83766552734375,0.011291347444057465,0.0018652373692020774,0.010841691866517067
1761401416602746400,3.847746337890625,0.010192189365625381,0.006678215693682432,0.011058192700147629
1761401416612804900,3.857804931640625,0.01055857539176941,0.013206546194851398,0.013289815746247768
1761401416622885400,3.867885498046875,0.010458651930093765,0.01657063513994217,0.013539624400436878
1761401416632989700,3.87798974609375,0.010192189365625381,0.015854516997933388,0.011491194367408752
1761401416643071000,3.888071044921875,0.010991577059030533,0.0168704055249691,0.011258039623498917
1761401416653151500,3.8981513671875,0.011574463918805122,0.01632082648575306,0.00874330010265112
1761401416663232800,3.908232666015625,0.012390505522489548,0.012223966419696808,0.005978751927614212
1761401416673312800,3.918312744140625,0.01194084994494915,0.008210374973714352,0.0037970903795212507
1761401416683395000,3.92839501953125,0.00937614869326353,0.004246745724231005,0.0037804364692419767
1761401416693475300,3.938475341796875,0.002897779457271099,0.0016154287150129676,0.005745597183704376
1761401416703555800,3.948555908203125,-0.0020317763555794954,0.004929556045681238,0.009725880809128284
1761401416713637400,3.958637451171875,0.0007161179091781378,0.009392802603542805,0.012507082894444466
1761401416723718100,3.96871826171875,0.007011293899267912,0.010791730135679245,0.011907542124390602
1761401416733776600,3.978776611328125,0.012723583728075027,0.008543453179299831,0.007660796400159597
1761401416743857400,3.988857421875,0.01598774828016758,0.009775842539966106,0.004230091813951731
1761401416753961200,3.998961181640625,0.018086140975356102,0.012074081227183342,0.00662825396284461
1761401416764019000,4.00901904296875,0.019318530336022377,0.012074081227183342,0.010541921481490135
1761401416774124000,4.0191240234375,0.019301876425743103,0.011674387380480766,0.012307235971093178
1761401416784204000,4.0292041015625,0.018768951296806335,0.006378445774316788,0.01317323837429285
1761401416794285300,4.039285400390625,0.016087671741843224,-0.0009159647743217647,0.013889356516301632
1761401416804366300,4.049366455078125,0.0144222816452384,-0.003314126981422305,0.014705398119986057
1761401416814447600,4.059447509765625,0.013906010426580906,-0.004213437903672457,0.01723679155111313
1761401416824527000,4.069527099609375,0.014888591133058071,-0.00646171486005187,0.0156546700745821
1761401416834609200,4.079609130859375,0.01682044379413128,-0.0053958650678396225,0.012157350778579712
1761401416844690700,4.089690673828125,0.02045099437236786,0.0025480473414063454,0.011158116161823273
1761401416854769700,4.099769775390625,0.025580398738384247,0.011424578726291656,0.015055130235850811
1761401416864820200,4.1098203125,0.027412327006459236,0.015205015428364277,0.02078407257795334
1761401416874893600,4.1198935546875,0.028711332008242607,0.015238323248922825,0.023848392069339752
1761401416895080200,4.140080078125,0.02579689770936966,0.009126340039074421,0.0222163088619709
1761401416905175800,4.15017578125,0.02033441700041294,-0.0013323123566806316,0.021566806361079216
1761401416915256300,4.16025634765625,0.016304172575473785,-0.007161179091781378,0.021067189052700996
1761401416925337600,4.170337646484375,0.015121745876967907,-0.006045367568731308,0.019185299053788185
1761401416935418600,4.180418701171875,0.015171707607805729,-0.003330780891701579,0.01925191469490528
1761401416945499600,4.190499755859375,0.015588055364787579,0.0015321592800319195,0.018552450463175774
1761401416955580700,4.20058056640625,0.01761983148753643,0.00799387414008379,0.016803789883852005
1761401416965662000,4.210661865234375,0.020767418667674065,0.011974157765507698,0.013856048695743084
1761401416975742200,4.2207421875,0.021849922835826874,0.013040007092058659,0.012040773406624794
1761401416985823200,4.2308232421875,0.023065658286213875,0.015721285715699196,0.011907542124390602
1761401416995904500,4.240904541015625,0.021799961104989052,0.01678713597357273,0.013206546194851398
1761401417005985500,4.250985595703125,0.018219372257590294,0.011790964752435684,0.011924196034669876
1761401417016066600,4.261066650390625,0.014322358183562756,0.006594946142286062,0.00954268779605627
1761401417026147300,4.271147216796875,0.01194084994494915,0.0005828866851516068,0.008526799269020557
1761401417036228600,4.281228515625,0.01005895808339119,-0.003464012173935771,0.008893185295164585
1761401417046309600,4.2913095703125,0.008793261833488941,-0.0022815850097686052,0.010791730135679245
1761401417056390000,4.301389892578125,0.010025650262832642,0.0021816615480929613,0.013722817413508892
1761401417066470400,4.311470458984375,0.013772779144346714,0.006694869603961706,0.014522205106914043
1761401417086611700,4.33161181640625,0.019901415333151817,0.015271631069481373,0.01590447872877121
1761401417096713500,4.34171337890625,0.020134570077061653,0.019435107707977295,0.017719754949212074
1761401417106795000,4.351794921875,0.020134570077061653,0.023015696555376053,0.020983919501304626
1761401417116876300,4.361876220703125,0.02041768655180931,0.026479708030819893,0.024697741493582726
1761401417126958600,4.37195849609375,0.019934723153710365,0.028994448482990265,0.026979325339198112
1761401417137042200,4.382042236328125,0.018385911360383034,0.027162518352270126,0.02726244181394577
1761401417147118600,4.39211865234375,0.016420749947428703,0.02601339854300022,0.027145864441990852
1761401417157203500,4.402203369140625,0.015971094369888306,0.027279095724225044,0.0283949077129364
1761401417167282200,4.4122822265625,0.013639547862112522,0.028028521686792374,0.029460757970809937
1761401417177361000,4.42236083984375,0.013139930553734303,0.02989375963807106,0.02964395098388195
1761401417187443000,4.43244287109375,0.014222434721887112,0.03472338989377022,0.026396438479423523
1761401417197501000,4.4425009765625,0.014322358183562756,0.037054937332868576,0.021133804693818092
1761401417207604700,4.452604736328125,0.011657733470201492,0.03573928028345108,0.015421516261994839
1761401417217685200,4.462685302734375,0.00987576600164175,0.03080972470343113,0.010758422315120697
1761401417227766500,4.4727666015625,0.010008996352553368,0.024747703224420547,0.0075275651179254055
1761401417237847600,4.48284765625,0.007311064284294844,0.019385145977139473,0.003513973904773593
1761401417247928000,4.492927978515625,0.0022982389200478792,0.01547147799283266,0.0015654671005904675
1761401417257996800,4.502996826171875,0.0009992342675104737,0.014955206774175167,0.003130934201180935
1761401417268091100,4.513091064453125,0.004146822262555361,0.019734878093004227,0.006611600052565336
1761401417278152000,4.52315185546875,0.005712289363145828,0.023598583415150642,0.00962595734745264
1761401417288251400,4.53325146484375,0.005212672054767609,0.02476435713469982,0.011741003021597862
1761401417298332400,4.54333251953125,0.004363323096185923,0.026396438479423523,0.013106622733175755
1761401417308413700,4.55341357421875,0.006245214492082596,0.025996744632720947,0.01227392815053463
1761401417318494500,4.563494384765625,0.006578292232006788,0.023698506876826286,0.011724349111318588
1761401417328575700,4.57357568359375,0.00592879019677639,0.022016461938619614,0.012357197701931
1761401417338651100,4.583651123046875,0.004912902135401964,0.021316997706890106,0.01433901209384203
1761401417348737800,4.59373779296875,0.0038303982000797987,0.019102029502391815,0.01433901209384203
1761401417358818800,4.60381884765625,0.0015321592800319195,0.018052833154797554,0.013323123566806316
1761401417368899800,4.61389990234375,0.0011491194600239396,0.017836332321166992,0.014222434721887112
1761401417378980900,4.62398095703125,0.002847817726433277,0.022732580080628395,0.01620424911379814
1761401417389062000,4.634061767578125,0.004046898800879717,0.030010337010025978,0.01748660020530224
1761401417399143200,4.64414306640625,0.005162710323929787,0.034956544637680054,0.016853751614689827
1761401417409225200,4.65422509765625,0.007960566319525242,0.035972435027360916,0.014222434721887112
1761401417419304700,4.6643046875,0.009909073822200298,0.03182561323046684,0.011041538789868355
1761401417429386000,4.674385986328125,0.007277756463736296,0.022199654951691628,0.009642611257731915
1761401417439450000,4.6844501953125,0.004829632584005594,0.013023353181779385,0.008776607923209667
1761401417449547500,4.694547607421875,0.0021983154583722353,0.00626186840236187,0.008676684461534023
1761401417459628500,4.704628662109375,0.0003497319994494319,0.0005495788645930588,0.007177833002060652
1761401417469709800,4.714709716796875,-0.0005828866851516068,-0.003314126981422305,0.007227794732898474
1761401417479769000,4.72476904296875,-0.0006661561783403158,-0.0018985451897606254,0.008043835870921612
1761401417489870800,4.734870849609375,0.0020317763555794954,0.0021316998172551394,0.009276225231587887
1761401417499952600,4.74495263671875,0.0054125189781188965,0.006594946142286062,0.01047530584037304
1761401417510033200,4.755033203125,0.009009762667119503,0.009809150360524654,0.009642611257731915
1761401417520114400,4.765114501953125,0.012357197701931,0.008543453179299831,0.008460183627903461
1761401417530195000,4.77519482421875,0.014122511260211468,0.0053125955164432526,0.005745597183704376
1761401417540274700,4.785274658203125,0.012124042958021164,-0.0000666156192892231,0.00489624822512269
1761401417550356500,4.7953564453125,0.006744831334799528,-0.006828100886195898,0.004296707455068827
1761401417560417800,4.805417724609375,0.0016154287150129676,-0.01284016016870737,0.00489624822512269
1761401417570519600,4.81551953125,0.00003330780964461155,-0.014239088632166386,0.005229325965046883
1761401417580599800,4.825599853515625,-0.00046630934230051935,-0.010974923148751259,0.005962098017334938
1761401417590681000,4.83568115234375,0.0014488897286355495,-0.011324655264616013,0.003264165250584483
1761401417600739800,4.84573974609375,0.0012490428052842617,-0.008759954012930393,-0.0003330780891701579
1761401417610821400,4.8558212890625,0.0007161179091781378,-0.0075608729384839535,-0.0001332312385784462
1761401417620924000,4.865923828125,-0.00046630934230051935,-0.006078675389289856,0.0005329249543137848
1761401417631004200,4.876004150390625,-0.00048296325257979333,-0.0018652373692020774,0.0020484302658587694
1761401417641087000,4.8860869140625,0.0017153521766886115,0.0018818912794813514,0.0026479708030819893
1761401417651167500,4.89616748046875,0.003164242021739483,0.0017819678178057075,0.0027145864441990852
1761401417661247500,4.90624755859375,0.0025980090722441673,-0.0021983154583722353,0.0006161945057101548
1761401417671329300,4.916329345703125,0.0006495022680610418,-0.00696133216843009,-0.002964395098388195
1761401417681409000,4.926408935546875,0.00023315467115025967,-0.010825037956237793,-0.005612365901470184
1761401417691490800,4.93649072265625,-0.0013656201772391796,-0.014372319914400578,-0.007927258498966694
1761401417701571000,4.946571044921875,-0.003047664649784565,-0.015021822415292263,-0.006744831334799528
1761401417711652400,4.95665234375,-0.004313361365348101,-0.015238323248922825,-0.0044965543784201145
1761401417721732600,4.966732666015625,-0.005146056413650513,-0.012706929817795753,-0.0012823506258428097
1761401417731814700,4.976814697265625,-0.00464643957093358,-0.010108919814229012,0.0016154287150129676
1761401417741872600,4.98687255859375,-0.0022649310994893312,-0.009226263500750065,0.0014988514594733715
1761401417751961300,4.99696142578125,-0.0010158881777897477,-0.011308001354336739,-0.00038303982000797987
1761401417762057700,5.0070576171875,-0.0001332312385784462,-0.015754593536257744,-0.002314892830327153
1761401417772138200,5.01713818359375,0.0009159647743217647,-0.017553215846419334,-0.003497319994494319
1761401417782218500,5.027218505859375,-0.0010325420880690217,-0.01595444045960903,-0.002981049008667469
1761401417792300800,5.03730078125,-0.002881125546991825,-0.016920367255806923,-0.004263399634510279
1761401417802381300,5.04738134765625,-0.005795558914542198,-0.017136868089437485,-0.006411753129214048
1761401417812463000,5.057463134765625,-0.007227794732898474,-0.014105857349932194,-0.006678215693682432
1761401417822542600,5.06754248046875,-0.005662327632308006,-0.010658498853445053,-0.006311830133199692
1761401417832624000,5.0776240234375,-0.006245214492082596,-0.009009762667119503,-0.006295176222920418
1761401417842703600,5.08770361328125,-0.006761485245078802,-0.00841022189706564,-0.007361026015132666
1761401417852787000,5.097786865234375,-0.007144525181502104,-0.00920960959047079,-0.008010528050363064
1761401417862867200,5.1078671875,-0.006411753129214048,-0.004130168352276087,-0.007244448643177748
1761401417872948000,5.117947998046875,-0.005262633785605431,0.0007660796400159597,-0.003713820828124881
1761401417883029000,5.128029052734375,-0.005196018144488335,0.0038470521103590727,0.0013989279977977276
1761401417893087200,5.138087158203125,-0.00567898154258728,0.005812212824821472,0.005612365901470184
1761401417903191300,5.14819140625,-0.00559571199119091,0.006228560581803322,0.006361791864037514
1761401417913272300,5.158272216796875,-0.005229325965046883,0.004946209955960512,0.00464643957093358
1761401417923353000,5.16835302734375,-0.006678215693682432,0.002897779457271099,0.0006161945057101548
1761401417933432600,5.1784326171875,-0.009959034621715546,-0.0002664624771568924,-0.0018652373692020774
1761401417943515000,5.188514892578125,-0.011407924816012383,-0.0006661561783403158,-0.002931087277829647
1761401417953596000,5.198595947265625,-0.010841691866517067,0.0038470521103590727,-0.003364088712260127
1761401417963677000,5.208677001953125,-0.010125573724508286,0.006911370437592268,-0.0021483537275344133
1761401417973757700,5.2187578125,-0.00782733503729105,0.005612365901470184,-0.002448124112561345
1761401417983839200,5.228839111328125,-0.00626186840236187,0.0022982389200478792,-0.002331546740606427
1761401417993896700,5.238896728515625,-0.005529096350073814,0.003364088712260127,-0.0021650076378136873
1761401418004000800,5.249000732421875,-0.006411753129214048,0.0082436827942729,0.0014655436389148235
1761401418014050000,5.259050048828125,-0.005745597183704376,0.013572932220995426,0.005862174555659294
1761401418024162600,5.26916259765625,-0.0022649310994893312,0.01786964014172554,0.006028713658452034
1761401418034242800,5.279242919921875,-0.0009825803572311997,0.016004402190446854,0.002831163816154003
1761401418044323800,5.28932373046875,-0.0000666156192892231,0.011008230969309807,0
1761401418054405000,5.299405029296875,-0.0021316998172551394,0.004246745724231005,-0.00009992343257181346
1761401418064486700,5.309486572265625,-0.006411753129214048,-0.0016986982664093375,0.0009992342675104737
1761401418074580000,5.319580078125,-0.011707695201039314,-0.007144525181502104,0.0026479708030819893
1761401418084648400,5.3296484375,-0.013722817413508892,-0.004829632584005594,0.003397396532818675
1761401418094729200,5.339729248046875,-0.011591117829084396,-0.0003164241788908839,0.005162710323929787
1761401418104810000,5.34981005859375,-0.005495788529515266,0.004063552711158991,0.002781202085316181
1761401418114890000,5.359889892578125,-0.002847817726433277,0.004429938737303019,-0.0012157351011410356
1761401418124972500,5.36997265625,-0.0020484302658587694,0.006278522312641144,-0.005279287695884705
1761401418135053600,5.380053466796875,-0.0006328483577817678,0.009392802603542805,-0.005645673722028732
1761401418145111600,5.390111572265625,0.0007327718194574118,0.011557810008525848,-0.003597243456169963
1761401418155215000,5.400215087890625,0.0003330780891701579,0.01392266433686018,-0.0011824272805824876
1761401418165295900,5.4102958984375,-0.0020317763555794954,0.011241385713219643,0.0020817380864173174
1761401418175377000,5.420376953125,-0.003996937070041895,0.004379977006465197,0.003513973904773593
1761401418185457700,5.430457763671875,-0.005545750260353088,0.0025647012516856194,0.005545750260353088
1761401418195539700,5.440539794921875,-0.005029479041695595,0.003380742622539401,0.007727412041276693
1761401418205620000,5.450619873046875,-0.004379977006465197,0.0053292494267225266,0.008260336704552174
1761401418215701200,5.460701171875,-0.0012823506258428097,0.0074942572973668575,0.007094563450664282
1761401418225782300,5.4707822265625,0.0021483537275344133,0.011308001354336739,0.0044799004681408405
1761401418235863300,5.48086328125,0.003264165250584483,0.01300669927150011,0.0045465161092579365
1761401418245943300,5.490943359375,0.0012157351011410356,0.010858345776796341,0.0020650841761380434
1761401418256023600,5.5010234375,-0.0003663859097287059,0.006594946142286062,-0.0008493491332046688
1761401418266069500,5.511069580078125,-0.0016487365355715156,0.004163476172834635,-0.0008660030434839427
1761401418276187400,5.5211875,-0.0010825038189068437,0.0022149693686515093,-0.0009825803572311997
1761401418286267100,5.53126708984375,-0.0007161179091781378,-0.0001498851488577202,-0.0021650076378136873
1761401418296326700,5.54132666015625,-0.0018818912794813514,-0.0015654671005904675,-0.003230857430025935
1761401418306429200,5.55142919921875,-0.0022482771892100573,-0.0021150459069758654,-0.0037637825589627028
1761401418316511000,5.561510986328125,-0.0008326952229253948,-0.0005495788645930588,-0.002431470202282071
1761401418326591500,5.571591552734375,0.00011657733557512984,0.0009825803572311997,-0.0005162710440345109
1761401418336650200,5.581650146484375,0.0015987749211490154,0.0025313934311270714,0.00003330780964461155
1761401418346752500,5.59175244140625,0.0018152756383642554,0.003630551276728511,0.00038303982000797987
1761401418356834300,5.601834228515625,-0.00009992343257181346,0.002314892830327153,-0.0006828100886195898
1761401418366915000,5.6119150390625,-0.00024980856687761843,0.0022649310994893312,-0.0009992342675104737
1761401418376998700,5.62199853515625,0.0005995405954308808,0.003380742622539401,-0.002881125546991825
1761401418387077600,5.63207763671875,0.0018152756383642554,0.0026146629825234413,-0.003647205187007785
1761401418397160400,5.642160400390625,0.003197549842298031,0.003464012173935771,-0.0026979325339198112
1761401418407216400,5.65221630859375,0.003980283159762621,0.003414050443097949,-0.0018152756383642554
1761401418417320400,5.662320556640625,0.004280053544789553,0.0026479708030819893,-0.0006661561783403158
1761401418427380500,5.67238037109375,0.003464012173935771,-0.0006328483577817678,-0.0001498851488577202
1761401418437460000,5.6824599609375,0.0015155053697526455,-0.002348200650885701,-0.0011158116394653916
1761401418447563000,5.69256298828125,-0.0003497319994494319,-0.0044965543784201145,-0.0009825803572311997
1761401418457642800,5.702642822265625,-0.0022149693686515093,-0.005079440772533417,-0.00019984686514362693
1761401418467724800,5.712724853515625,-0.0022815850097686052,-0.004163476172834635,0.0007993874605745077
1761401418477783300,5.722783203125,-0.0009326186846010387,-0.0012157351011410356,0.0009992342675104737
1761401418487886000,5.732885986328125,0.0015821210108697414,0.0013656201772391796,-0.0003330780891701579
1761401418497967400,5.74296728515625,0.0053125955164432526,0.0008326952229253948,-0.003430704353377223
1761401418508048600,5.753048583984375,0.007111217360943556,0.0011158116394653916,-0.003980283159762621
1761401418518129700,5.763129638671875,0.004829632584005594,-0.0002165007608709857,-0.0010658499086275697
1761401418528227000,5.77322705078125,0.0004163476114626974,-0.0021983154583722353,0.0025647012516856194
1761401418538291200,5.783291259765625,-0.0044965543784201145,-0.0018152756383642554,0.0037304747384041548
1761401418548338400,5.79333837890625,-0.003380742622539401,0.0015821210108697414,0.0013489662669599056
1761401418558453000,5.803452880859375,-0.0011657733703032136,-0.0018485834589228034,-0.003480666084215045
1761401418568534500,5.813534423828125,-0.0025147395208477974,-0.006861408706754446,-0.00799387414008379
1761401418578592300,5.82359228515625,-0.0018985451897606254,-0.010708460584282875,-0.010092265903949738
1761401418588696000,5.833696044921875,-0.0006828100886195898,-0.009909073822200298,-0.009409456513822079
1761401418598777000,5.843777099609375,0.0012990045361220837,-0.006161944940686226,-0.007810681592673063
1761401418608857600,5.853857666015625,0.003330780891701579,-0.0012323890114203095,-0.0044799004681408405
1761401418618939400,5.863939453125,0.005112748593091965,0.003963629249483347,-0.00011657733557512984
1761401418629020200,5.874020263671875,0.005062786862254143,0.003347434801980853,0.002448124112561345
1761401418639100700,5.8841005859375,0.0044965543784201145,-0.00019984686514362693,0.0020983919966965914
1761401418649182500,5.894182373046875,0.004296707455068827,-0.0044965543784201145,0.0020983919966965914
1761401418659263000,5.904262939453125,0.0053292494267225266,-0.00679479306563735,0.0016487365355715156
1761401418669301500,5.914301513671875,0.005079440772533417,-0.007877296768128872,0.002314892830327153
1761401418679402800,5.92440283203125,0.00609532929956913,-0.005862174555659294,0.003697166917845607
1761401418689506000,5.934506103515625,0.005612365901470184,-0.007011293899267912,0.0025647012516856194
1761401418699586800,5.9445869140625,0.005995405837893486,-0.009592649526894093,0.00018319295486435294
1761401418709680000,5.95468017578125,0.0053958650678396225,-0.011557810008525848,-0.004829632584005594
1761401418719748600,5.96474853515625,0.002981049008667469,-0.011208077892661095,-0.00609532929956913
1761401418729830000,5.974829833984375,0.0021983154583722353,-0.006894716527312994,-0.005479134619235992
1761401418739910400,5.984910400390625,0.0013156584464013577,-0.0006328483577817678,-0.004962863866239786
1761401418749991700,5.99499169921875,0.0015987749211490154,0.003597243456169963,-0.003147588111460209
1761401418760072200,6.005072265625,0.0022649310994893312,0.004413284827023745,-0.003946975339204073
1761401418770153700,6.01515380859375,0.003447358263656497,0.003147588111460209,-0.004013590980321169
1761401418780214300,6.02521435546875,0.0037637825589627028,-0.0002831163874361664,-0.0022649310994893312
1761401418790315500,6.0353154296875,0.003380742622539401,-0.003297473071143031,-0.0012323890114203095
1761401418800396500,6.045396484375,0.003697166917845607,-0.006245214492082596,-0.0003663859097287059
1761401418810478300,6.055478271484375,0.0045631700195372105,-0.008110451512038708,-0.00011657733557512984
1761401418820558300,6.065558349609375,0.005479134619235992,-0.007860642857849598,0.0010491959983482957
1761401418830639400,6.075639404296875,0.005079440772533417,-0.005179364234209061,0.0015821210108697414
1761401418840698600,6.08569873046875,0.00472970912232995,-0.003364088712260127,0.0026313168928027153
1761401418850801400,6.095801513671875,0.00601205974817276,-0.0005662327748723328,0.003147588111460209
1761401418860881400,6.10588134765625,0.008926493115723133,0.0038970138411968946,0.003364088712260127
1761401418870948400,6.1159482421875,0.00841022189706564,0.006528330501168966,0.002897779457271099
1761401418881044200,6.126044189453125,0.008859877474606037,0.006128637120127678,0.0014988514594733715
1761401418891125200,6.136125244140625,0.009026416577398777,0.005778905004262924,0.0015821210108697414
1761401418901206300,6.146206298828125,0.0074942572973668575,0.0038470521103590727,0.0005329249543137848
1761401418911287800,6.156287841796875,0.005212672054767609,0.003297473071143031,0.003597243456169963
1761401418921368600,6.16636865234375,0.0054125189781188965,0.006594946142286062,0.007144525181502104
1761401418931448800,6.17644873046875,0.00609532929956913,0.007427641656249762,0.007677450310438871
1761401418941529600,6.186529541015625,0.0075275651179254055,0.005262633785605431,0.005029479041695595
1761401418951610400,6.1966103515625,0.007361026015132666,0.002781202085316181,0.0016487365355715156
1761401418961692400,6.2066923828125,0.004912902135401964,0.0015654671005904675,0.002314892830327153
1761401418971773200,6.216773193359375,0.0013656201772391796,0.004013590980321169,0.004829632584005594
1761401418981851600,6.2268515625,-0.0009659265051595867,0.00849349144846201,0.007261102553457022
1761401418991935500,6.236935546875,0.00009992343257181346,0.011707695201039314,0.006811446975916624
1761401419002015700,6.247015625,0.002831163816154003,0.01160777173936367,0.002997702918946743
1761401419012078800,6.257078857421875,0.005712289363145828,0.007977220229804516,-0.0020151224453002214
1761401419022178300,6.26717822265625,0.0074942572973668575,0.004962863866239786,-0.003513973904773593
1761401419032240000,6.277240234375,0.009176301769912243,0.004946209955960512,-0.003214203519746661
1761401419052420000,6.297420166015625,0.009909073822200298,0.009409456513822079,0.004113514441996813
1761401419062501600,6.307501708984375,0.00954268779605627,0.008893185295164585,0.007427641656249762
1761401419072583000,6.3175830078125,0.00866003055125475,0.005262633785605431,0.009359494782984257
1761401419082664400,6.32766455078125,0.007410987745970488,-0.0007161179091781378,0.007777373772114515
1761401419092744000,6.337743896484375,0.005062786862254143,-0.004946209955960512,0.005978751927614212
1761401419102826200,6.347826171875,0.00592879019677639,-0.005778905004262924,0.003630551276728511
1761401419112907300,6.3579072265625,0.007843988947570324,-0.0016986982664093375,0.0025647012516856194
1761401419122987000,6.367987060546875,0.009176301769912243,0.0025480473414063454,0.0020650841761380434
1761401419133068300,6.378068359375,0.010974923148751259,0.006661561783403158,0.004346669185906649
1761401419143120000,6.388119873046875,0.01135796308517456,0.008776607923209667,0.006744831334799528
1761401419153230300,6.398230224609375,0.01160777173936367,0.008709992282092571,0.007860642857849598
1761401419163310800,6.408310791015625,0.010841691866517067,0.007943912409245968,0.007194486912339926
1761401419173377500,6.41837744140625,0.00866003055125475,0.006744831334799528,0.006644907873123884
1761401419183472600,6.42847265625,0.005895482376217842,0.00782733503729105,0.004413284827023745
1761401419193553700,6.4385537109375,0.004979517310857773,0.007394333835691214,0.003147588111460209
1761401419203624200,6.448624267578125,0.004962863866239786,0.008043835870921612,0.0010325420880690217
1761401419213717000,6.458717041015625,0.005895482376217842,0.010641844943165779,0.0009326186846010387
1761401419223797000,6.468796875,0.006111983209848404,0.010242151096463203,0.0017986217280849814
1761401419233877800,6.478877685546875,0.00481297867372632,0.00997568853199482,0.002781202085316181
1761401419243935700,6.488935791015625,0.0054125189781188965,0.008460183627903461,0.0044799004681408405
1761401419254017500,6.499017578125,0.006594946142286062,0.009559341706335545,0.004663093481212854
1761401419264097800,6.509097900390625,0.006977986078709364,0.008793261833488941,0.004113514441996813
1761401419274178800,6.5191787109375,0.006161944940686226,0.007427641656249762,0.0016653904458507895
1761401419284259800,6.529259765625,0.004979517310857773,0.004663093481212854,0.0005828866851516068
1761401419294364700,6.53936474609375,0.002897779457271099,0.004013590980321169,0.00046630934230051935
1761401419304444700,6.549444580078125,0.0012656967155635357,0.0045964778400957584,0.0005828866851516068
1761401419314526500,6.5595263671875,0.0024980856105685234,0.0074609494768083096,0.00018319295486435294
1761401419324607500,6.569607421875,0.004796324763447046,0.008693338371813297,0.0009492725948803127
1761401419334686500,6.5796865234375,0.004846286494284868,0.00696133216843009,0.0011990811908617616
1761401419344768500,6.5897685546875,0.003530627815052867,0.003530627815052867,-0.00004996171628590673
1761401419354841300,6.59984130859375,0.0013156584464013577,0.0025647012516856194,0.00038303982000797987
1761401419364930000,6.609929931640625,0.0021316998172551394,0.002781202085316181,-0.0003663859097287059
1761401419375011300,6.62001123046875,0.003047664649784565,0.0013156584464013577,-0.0011657733703032136
1761401419385091300,6.63009130859375,0.0027312403544783592,0.0019151991000398993,-0.002947741188108921
1761401419395172900,6.6401728515625,0.002764548175036907,0.002964395098388195,-0.002897779457271099
1761401419405254400,6.65025439453125,0.0018652373692020774,0.0017653139075264335,-0.0022649310994893312
1761401419415336700,6.660336669921875,-0.0008493491332046688,0.0014488897286355495,-0.00018319295486435294
1761401419425415700,6.670415771484375,-0.002764548175036907,0.003447358263656497,0.0005329249543137848
1761401419435497000,6.6804970703125,-0.0014488897286355495,0.005196018144488335,0.0013822740875184536
1761401419445577700,6.69057763671875,0.00024980856687761843,0.006078675389289856,-0.0003164241788908839
1761401419455659500,6.700659423828125,0.0013989279977977276,0.0006994639988988638,-0.003996937070041895
1761401419465740500,6.710740478515625,0.003164242021739483,-0.002814509905874729,-0.00696133216843009
1761401419475820800,6.72082080078125,0.004146822262555361,-0.003347434801980853,-0.006211906671524048
1761401419485901800,6.73090185546875,0.0044965543784201145,-0.002897779457271099,-0.003280819160863757
1761401419495983600,6.740983642578125,0.0038303982000797987,0.00039969373028725386,-0.0015821210108697414
1761401419506063600,6.751063720703125,0.002981049008667469,0.003663859097287059,-0.0007827335502952337
1761401419516148700,6.761148681640625,0.002747894264757633,0.0014821975491940975,-0.003130934201180935
1761401419526245600,6.77124560546875,0.003680513007566333,-0.003031010739505291,-0.0053459033370018005
1761401419546387200,6.79138720703125,0.0021483537275344133,-0.008460183627903461,-0.0022815850097686052
1761401419556468700,6.80146875,0.0005495788645930588,-0.008959800936281681,0.00019984686514362693
1761401419566549200,6.81154931640625,-0.0012490428052842617,-0.008793261833488941,0.0003330780891701579
1761401419576631000,6.821631103515625,-0.0008493491332046688,-0.006994639988988638,-0.0004330015217419714
1761401419586711800,6.8317119140625,0.0007827335502952337,-0.0045132082886993885,-0.0021650076378136873
1761401419596793300,6.84179345703125,0.0015654671005904675,-0.0017986217280849814,-0.0045964778400957584
1761401419606860300,6.8518603515625,0.003214203519746661,0.0012990045361220837,-0.005645673722028732
1761401419616955400,6.861955322265625,0.002814509905874729,0.004280053544789553,-0.004779670853167772
1761401419627037400,6.872037353515625,0.000016653904822305776,0.0044632465578615665,-0.005812212824821472
1761401419637113000,6.882113037109375,-0.0014488897286355495,0.0044799004681408405,-0.005795558914542198
1761401419647198500,6.892198486328125,-0.0026313168928027153,0.003380742622539401,-0.005212672054767609
1761401419657278200,6.9022783203125,-0.004796324763447046,0.0006994639988988638,-0.0045132082886993885
1761401419667336400,6.91233642578125,-0.006744831334799528,-0.0003497319994494319,-0.002764548175036907
1761401419677440300,6.922440185546875,-0.006128637120127678,0.00019984686514362693,-0.002348200650885701
1761401419687521500,6.932521484375,-0.005629019811749458,0.0037637825589627028,-0.002381508471444249
1761401419697602000,6.94260205078125,-0.004396630916744471,0.007777373772114515,-0.003597243456169963
1761401419707683600,6.95268359375,-0.0022815850097686052,0.010092265903949738,-0.005129402503371239
1761401419717763800,6.962763916015625,0.0003663859097287059,0.008759954012930393,-0.004779670853167772
1761401419737927000,6.982927001953125,-0.0021816615480929613,0.003314126981422305,-0.002814509905874729
1761401419747973000,6.99297314453125,-0.003980283159762621,-0.0020484302658587694,-0.0037804364692419767
1761401419758113000,7.003113037109375,-0.004013590980321169,-0.004962863866239786,-0.003930321428924799
1761401419768169700,7.013169677734375,-0.004030244890600443,-0.0053125955164432526,-0.0025147395208477974
1761401419778230300,7.023230224609375,-0.002747894264757633,-0.0053792111575603485,-0.0018485834589228034
1761401419788330200,7.033330322265625,-0.002864471636712551,-0.004413284827023745,-0.0015821210108697414
1761401419798412500,7.04341259765625,-0.003180895932018757,-0.0022649310994893312,-0.0017320060869678855
1761401419808492800,7.053492919921875,-0.0018985451897606254,0.00008326952229253948,-0.0014655436389148235
1761401419818574000,7.063573974609375,-0.0005828866851516068,0.0020151224453002214,-0.0006495022680610418
1761401419828654300,7.073654296875,0.0009659265051595867,0.005712289363145828,-0.0022149693686515093
1761401419838734800,7.08373486328125,-0.0002997702977154404,0.003497319994494319,-0.0045631700195372105
1761401419848816000,7.093816162109375,-0.005245979875326157,0.0006994639988988638,-0.0075109112076461315
1761401419858897400,7.1038974609375,-0.00979249645024538,-0.0020650841761380434,-0.0075442190282046795
1761401419868979000,7.11397900390625,-0.01210738904774189,-0.007710758130997419,-0.005062786862254143
1761401419879059700,7.124059814453125,-0.012007465586066246,-0.008543453179299831,-0.0021316998172551394
1761401419889140200,7.13414013671875,-0.009575995616614819,-0.0044465926475822926,-0.0003497319994494319
1761401419899221200,7.14422119140625,-0.00592879019677639,-0.0015155053697526455,-0.0019818146247416735
1761401419909296400,7.15429638671875,-0.003480666084215045,0.0006328483577817678,-0.00559571199119091
1761401419919383600,7.164383544921875,-0.0019651607144623995,0.003580589545890689,-0.00696133216843009
1761401419929457400,7.17445751953125,-0.0006495022680610418,0.0021650076378136873,-0.007244448643177748
1761401419939545600,7.184545654296875,0.0002997702977154404,0.0005162710440345109,-0.008426875807344913
1761401419949626600,7.194626708984375,-0.0017320060869678855,-0.004379977006465197,-0.007144525181502104
1761401419959707100,7.20470703125,-0.005179364234209061,-0.011574463918805122,-0.005745597183704376
1761401419969788400,7.214788330078125,-0.008093797601759434,-0.01875229738652706,-0.007943912409245968
1761401419979868700,7.22486865234375,-0.009142993949353695,-0.021933192387223244,-0.010292112827301025
1761401419989951000,7.234950927734375,-0.00937614869326353,-0.023998277261853218,-0.010075611993670464
1761401420000031200,7.24503125,-0.006761485245078802,-0.023015696555376053,-0.008443529717624187
1761401420010115800,7.25511572265625,-0.0037304747384041548,-0.019551685079932213,-0.006211906671524048
1761401420020192800,7.26519287109375,-0.00008326952229253948,-0.014239088632166386,-0.005912136286497116
1761401420030274300,7.2752744140625,0.002464778022840619,-0.009559341706335545,-0.006078675389289856
1761401420040337200,7.285337158203125,0.004413284827023745,-0.006062021479010582,-0.005712289363145828
1761401420050435800,7.295435791015625,0.003996937070041895,-0.007444295566529036,-0.0044965543784201145
1761401420060517000,7.30551708984375,0.0019485069205984473,-0.0094594182446599,-0.003980283159762621
1761401420070574800,7.315574951171875,-0.00023315467115025967,-0.01135796308517456,-0.004929556045681238
1761401420080679000,7.325678955078125,-0.003480666084215045,-0.012623660266399384,-0.004296707455068827
1761401420090760400,7.335760498046875,-0.005179364234209061,-0.010092265903949738,-0.003380742622539401
1761401420100841200,7.34584130859375,-0.006295176222920418,-0.00609532929956913,-0.0019318530103191733
1761401420110921500,7.35592138671875,-0.0053958650678396225,-0.003630551276728511,-0.0011824272805824876
1761401420121002500,7.36600244140625,-0.003197549842298031,-0.00046630934230051935,-0.002847817726433277
1761401420131083300,7.376083251953125,0.0006828100886195898,0.002897779457271099,-0.003930321428924799
1761401420141164800,7.386164794921875,0.003380742622539401,0.005995405837893486,-0.0025480473414063454
1761401420151244500,7.39624462890625,0.0024980856105685234,0.005962098017334938,-0.00023315467115025967
1761401420161326600,7.40632666015625,0.0019818146247416735,0.0054291728883981705,0.0021483537275344133
1761401420171389400,7.416389404296875,0.0012323890114203095,0.0022815850097686052,0.003647205187007785
1761401420181474600,7.426474609375,-0.0008493491332046688,0.0010325420880690217,0.003130934201180935
1761401420191569400,7.4365693359375,-0.0021316998172551394,0.0015488131903111935,0.0027145864441990852
1761401420201651000,7.44665087890625,-0.002398162381723523,0.003547281725332141,0.0026479708030819893
1761401420211722200,7.45672216796875,-0.0019651607144623995,0.007444295566529036,0.002947741188108921
1761401420221812500,7.4668125,-0.0010325420880690217,0.009309533052146435,0.0014821975491940975
1761401420231894000,7.47689404296875,-0.0008493491332046688,0.006828100886195898,-0.0015321592800319195
1761401420241974500,7.486974609375,-0.0011824272805824876,0.005129402503371239,-0.0007827335502952337
1761401420252055600,7.4970556640625,-0.0005329249543137848,0.005828866735100746,0.0013323123566806316
1761401420262136600,7.507136474609375,0.0002165007608709857,0.008510145358741283,0.002947741188108921
1761401420272217000,7.517217041015625,0.0015321592800319195,0.010924961417913437,0.004080206621438265
1761401420282280400,7.527280517578125,0.0006661561783403158,0.010325420647859573,0.003996937070041895
1761401420292368000,7.537367919921875,-0.0008493491332046688,0.009442764334380627,0.004679747391492128
1761401420302460000,7.5474599609375,-0.003114280290901661,0.009009762667119503,0.00567898154258728
1761401420312543000,7.55754296875,-0.005196018144488335,0.008060489781200886,0.005212672054767609
1761401420322623000,7.567623046875,-0.004629785660654306,0.007843988947570324,0.002797855995595455
1761401420332702700,7.57770263671875,-0.0020817380864173174,0.007427641656249762,0.0013656201772391796
1761401420342783000,7.587782958984375,-0.0009326186846010387,0.00704460171982646,0.0006495022680610418
1761401420352864500,7.597864501953125,0.0010491959983482957,0.00970922689884901,0.0006828100886195898
1761401420362945500,7.607945556640625,0.002448124112561345,0.011807618662714958,0.002997702918946743
1761401420373026600,7.618026611328125,0.003513973904773593,0.015404862351715565,0.004663093481212854
1761401420383107600,7.628107666015625,0.003364088712260127,0.017769716680049896,0.007161179091781378
1761401420393188900,7.63818896484375,0.0044965543784201145,0.01845252700150013,0.009675919078290462
1761401420403272000,7.64827197265625,0.005812212824821472,0.016420749947428703,0.01055857539176941
1761401420413352000,7.65835205078125,0.00646171486005187,0.016054363921284676,0.011574463918805122
1761401420423431000,7.668430908203125,0.006778139155358076,0.016270864754915237,0.01252373680472374
1761401420433512000,7.678511962890625,0.00679479306563735,0.013822740875184536,0.011158116161823273
1761401420443593700,7.68859375,0.005579058080911636,0.010691806674003601,0.008043835870921612
1761401420453674800,7.6986748046875,0.003364088712260127,0.009842458181083202,0.007311064284294844
1761401420463732500,7.708732421875,0.002448124112561345,0.01177431084215641,0.007977220229804516
1761401420473836000,7.7188359375,0.0011491194600239396,0.01342304702848196,0.010242151096463203
1761401420483918600,7.728918701171875,0.0014655436389148235,0.014738705940544605,0.009059724397957325
1761401420493998300,7.738998291015625,0.0018652373692020774,0.014622128568589687,0.006911370437592268
1761401420504079400,7.749079345703125,0.0021150459069758654,0.016220903024077415,0.004046898800879717
1761401420514161000,7.759160888671875,0.0026146629825234413,0.01950172334909439,0.0045465161092579365
1761401420524243700,7.76924365234375,0.003930321428924799,0.021100496873259544,0.004146822262555361
1761401420534322400,7.779322509765625,0.004013590980321169,0.020051300525665283,0.004313361365348101
1761401420544403500,7.789403564453125,0.002864471636712551,0.017636485397815704,0.005545750260353088
1761401420554463700,7.799463623046875,0.0014488897286355495,0.017336715012788773,0.006594946142286062
1761401420564565500,7.8095654296875,-0.0005162710440345109,0.014155819080770016,0.0074609494768083096
1761401420584727000,7.82972705078125,-0.003963629249483347,0.010908307507634163,0.005728943273425102
1761401420594808300,7.839808349609375,-0.004929556045681238,0.009642611257731915,0.004996171221137047
1761401420604889000,7.84988916015625,-0.0044965543784201145,0.00979249645024538,0.002864471636712551
1761401420614966000,7.859966064453125,-0.0015654671005904675,0.010375382378697395,0.0004996171337552369
1761401420625050400,7.87005029296875,0.0006161945057101548,0.012940083630383015,-0.0019485069205984473
1761401420635132000,7.8801318359375,0.003130934201180935,0.015421516261994839,-0.0014988514594733715
1761401420645172000,7.890171875,0.004613131750375032,0.013906010426580906,-0.0013156584464013577
1761401420655293400,7.90029345703125,0.0038303982000797987,0.008393567986786366,-0.0013489662669599056
1761401420665374000,7.9103740234375,0.0016154287150129676,-0.0013822740875184536,-0.003697166917845607
1761401420675455700,7.920455810546875,-0.0026313168928027153,-0.008959800936281681,-0.0038637060206383467
1761401420685562400,7.930562255859375,-0.005196018144488335,-0.011724349111318588,-0.0006161945057101548
1761401420695618300,7.940618408203125,-0.004246745724231005,-0.010541921481490135,0.0009992342675104737
1761401420705698800,7.95069873046875,-0.0019984685350209475,-0.00576225109398365,-0.000016653904822305776
1761401420715779800,7.96077978515625,-0.0002664624771568924,-0.0026313168928027153,-0.0017986217280849814
1761401420725855200,7.970855224609375,0.00016653904458507895,-0.00011657733557512984,-0.0018985451897606254
1761401420735942700,7.980942626953125,0.0007660796400159597,0.0005162710440345109,-0.0015155053697526455
1761401420746022000,7.99102197265625,0.0008660030434839427,-0.0002165007608709857,-0.0010158881777897477
1761401420756081200,8.0010810546875,-0.00004996171628590673,-0.0027145864441990852,-0.004130168352276087
1761401420766184400,8.011184326171875,-0.0010825038189068437,-0.005862174555659294,-0.006495022680610418
1761401420776265000,8.021264892578126,-0.0017486599972471595,-0.010775076225399971,-0.010192189365625381
1761401420786345500,8.031345458984376,-0.002914433367550373,-0.017086906358599663,-0.012090735137462616
1761401420796427000,8.041427001953124,-0.002947741188108921,-0.019968030974268913,-0.011990811675786972
1761401420806485000,8.051485107421875,-0.003114280290901661,-0.01983480155467987,-0.009559341706335545
1761401420816589300,8.06158935546875,-0.0014988514594733715,-0.0173200611025095,-0.008726646192371845
1761401420826670600,8.071670654296875,0.0006495022680610418,-0.013772779144346714,-0.0075775268487632275
1761401420836750300,8.081750244140625,0.004230091813951731,-0.011890888214111328,-0.006844754796475172
1761401420846831600,8.09183154296875,0.005029479041695595,-0.011324655264616013,-0.005645673722028732
1761401420856912600,8.10191259765625,0.006977986078709364,-0.010991577059030533,-0.005179364234209061
1761401420866996000,8.111995849609375,0.00609532929956913,-0.013772779144346714,-0.00464643957093358
1761401420877074700,8.12207470703125,0.004613131750375032,-0.01828598789870739,-0.005295941606163979
1761401420887156500,8.132156494140625,0.002914433367550373,-0.02008460834622383,-0.004862940404564142
1761401420897236500,8.142236572265626,0.002764548175036907,-0.01712021417915821,-0.003130934201180935
1761401420907295000,8.152294921875,0.0016986982664093375,-0.014472243376076221,-0.002764548175036907
1761401420917398500,8.1623984375,0.00003330780964461155,-0.014239088632166386,-0.003946975339204073
1761401420927479300,8.172479248046875,0.0002664624771568924,-0.014105857349932194,-0.007744065951555967
1761401420937538000,8.1825380859375,0.0006495022680610418,-0.009142993949353695,-0.008909839205443859
1761401420947641000,8.19264111328125,0.0013156584464013577,-0.005129402503371239,-0.007244448643177748
1761401420957722400,8.202722412109376,0.0017986217280849814,-0.0003497319994494319,-0.005079440772533417
1761401420967803600,8.2128037109375,0.0015321592800319195,0.0009159647743217647,-0.003563935635611415
1761401420977865700,8.22286572265625,0.0016154287150129676,-0.0025980090722441673,-0.005229325965046883
1761401420987964400,8.23296435546875,0.0006161945057101548,-0.006744831334799528,-0.006828100886195898
1761401420998045700,8.243045654296875,-0.00009992343257181346,-0.0053625572472810745,-0.006128637120127678
1761401421008126700,8.253126708984375,-0.0014322358183562756,-0.005212672054767609,-0.003064318560063839
1761401421018207700,8.263207763671875,-0.0017486599972471595,-0.0007327718194574118,-0.0016154287150129676
1761401421028288800,8.273288818359376,-0.0009326186846010387,0.0014988514594733715,-0.00048296325257979333
1761401421038351600,8.2833515625,-0.00044965543202124536,0.0020151224453002214,-0.0010158881777897477
1761401421048440300,8.2934404296875,0.00039969373028725386,0.003697166917845607,-0.0005495788645930588
1761401421058509000,8.303509033203126,0.003380742622539401,0.005579058080911636,-0.0000666156192892231
1761401421068613600,8.313613525390625,0.0045798239298164845,0.005179364234209061,0.0018652373692020774
1761401421078711800,8.3237119140625,0.004113514441996813,0.0017819678178057075,0.0012323890114203095
1761401421088753200,8.333753173828125,0.003447358263656497,0.00048296325257979333,-0.0008826569537632167
1761401421098855400,8.34385546875,0.0021150459069758654,-0.0009492725948803127,-0.003530627815052867
1761401421108937000,8.35393701171875,0.00016653904458507895,-0.0016320826252922416,-0.003380742622539401
1761401421119018800,8.364018798828125,-0.0005995405954308808,0.0009159647743217647,-0.00019984686514362693
1761401421129098200,8.37409814453125,0.0016154287150129676,0.006161944940686226,0.003330780891701579
1761401421139179300,8.38417919921875,0.002764548175036907,0.010325420647859573,0.0045798239298164845
1761401421149261300,8.39426123046875,0.003464012173935771,0.012656968086957932,0.003613897366449237
1761401421159341600,8.404341552734374,0.0038470521103590727,0.011574463918805122,0.0018319295486435294
1761401421169421800,8.414421875,0.0019151991000398993,0.00841022189706564,0.00004996171628590673
1761401421179503600,8.424503662109375,-0.002481431933119893,0.005828866735100746,0.0013323123566806316
1761401421189583000,8.4345830078125,-0.004763016942888498,0.005878828465938568,0.0027145864441990852
1761401421199665700,8.444665771484376,-0.004113514441996813,0.006578292232006788,0.003547281725332141
1761401421209747000,8.454746826171874,-0.00024980856687761843,0.008010528050363064,0.0044465926475822926
1761401421219828000,8.464827880859374,0.003663859097287059,0.008193721063435078,0.0019818146247416735
1761401421229909000,8.474908935546875,0.004046898800879717,0.008843223564326763,-0.0005995405954308808
1761401421239989200,8.4849892578125,0.004096860531717539,0.009592649526894093,-0.00024980856687761843
1761401421250070500,8.495070556640625,0.004213437903672457,0.011574463918805122,0.0013656201772391796
1761401421260152000,8.505152099609376,0.003996937070041895,0.01185758039355278,0.0019984685350209475
1761401421270232800,8.51523291015625,0.002997702918946743,0.011907542124390602,0.002314892830327153
1761401421280313600,8.525313720703124,0.002464778022840619,0.00997568853199482,0.0020317763555794954
1761401421290394600,8.53539453125,0.0021316998172551394,0.005778905004262924,0.0025147395208477974
1761401421310556400,8.555556396484375,0.004280053544789553,-0.00003330780964461155,0.002881125546991825
1761401421320637200,8.56563720703125,0.006228560581803322,0.0012490428052842617,0.005279287695884705
1761401421330717000,8.575717041015626,0.007344372104853392,0.005962098017334938,0.00782733503729105
1761401421340799500,8.585799560546874,0.008376914076507092,0.008510145358741283,0.009942381642758846
1761401421350880000,8.5958798828125,0.007177833002060652,0.0072111408226192,0.008060489781200886
1761401421360960800,8.605960693359375,0.005895482376217842,0.0026146629825234413,0.0038970138411968946
1761401421371042600,8.61604248046875,0.004230091813951731,-0.0010325420880690217,-0.0006161945057101548
1761401421381100500,8.6261005859375,0.004230091813951731,-0.0014322358183562756,-0.0026146629825234413
1761401421391203600,8.63620361328125,0.003497319994494319,-0.003547281725332141,-0.004230091813951731
1761401421401284600,8.64628466796875,0.0017486599972471595,-0.003930321428924799,-0.004679747391492128
1761401421411339000,8.656339111328125,0.0025980090722441673,0.0009326186846010387,-0.002897779457271099
1761401421421447000,8.666447021484375,0.0045298621989786625,0.003364088712260127,0.00044965543202124536
1761401421431527700,8.676527587890625,0.005978751927614212,0.005795558914542198,0.0026812786236405373
1761401421441610500,8.686610595703126,0.0074776033870875835,0.003364088712260127,0.004080206621438265
1761401421451690000,8.69668994140625,0.007261102553457022,0.0000666156192892231,0.0018985451897606254
1761401421461771000,8.70677099609375,0.004846286494284868,-0.0003497319994494319,-0.0002831163874361664
1761401421471852300,8.716852294921875,0.003330780891701579,0.0003497319994494319,-0.0002997702977154404
1761401421481910000,8.726909912109376,0.0016487365355715156,0.00048296325257979333,0.0005995405954308808
1761401421492013800,8.737013916015625,0.0016986982664093375,0.0003330780891701579,0.0026812786236405373
1761401421502094800,8.7470947265625,0.004213437903672457,0.0020983919966965914,0.0019151991000398993
1761401421512175900,8.75717578125,0.005728943273425102,0.00592879019677639,0.002314892830327153
1761401421522256000,8.767255859375,0.0074609494768083096,0.008027181960642338,0.0037471286486834288
1761401421532337700,8.777337646484375,0.007877296768128872,0.0075109112076461315,0.003014356829226017
1761401421542418000,8.78741796875,0.008693338371813297,0.005295941606163979,0.0015155053697526455
1761401421552476400,8.797476318359376,0.006811446975916624,0.0015488131903111935,0.00038303982000797987
1761401421562579700,8.807579833984375,0.003464012173935771,-0.0013489662669599056,0.0019984685350209475
1761401421572661200,8.8176611328125,0.0010325420880690217,-0.004113514441996813,0.003114280290901661
1761401421582742500,8.827742431640624,-0.0006994639988988638,-0.004080206621438265,0.002914433367550373
1761401421592822800,8.83782275390625,-0.0009992342675104737,-0.0020484302658587694,-0.0003663859097287059
1761401421602904000,8.847904052734375,-0.0002831163874361664,0.0019984685350209475,-0.0007494257297366858
1761401421612986400,8.857986328125,-0.0005995405954308808,0.004862940404564142,0.0000666156192892231
1761401421623065600,8.868065673828125,0.00009992343257181346,0.00737767992541194,0.0014988514594733715
1761401421633147400,8.8781474609375,0.003230857430025935,0.008310298435389996,0.002847817726433277
1761401421643228700,8.888228759765624,0.006578292232006788,0.005146056413650513,0.0025813551619648933
1761401421653309200,8.89830908203125,0.006445060949772596,-0.003264165250584483,-0.0008326952229253948
1761401421663371800,8.908371826171875,0.003114280290901661,-0.009909073822200298,-0.0045132082886993885
1761401421673470700,8.918470703125,0.0012990045361220837,-0.009892419911921024,-0.004912902135401964
1761401421683547000,8.928546875,-0.0004996171337552369,-0.005229325965046883,-0.003597243456169963
1761401421693633000,8.938633056640626,-0.0016487365355715156,0.0006828100886195898,-0.0008993108640424907
1761401421703714000,8.948714111328124,-0.0007161179091781378,0.004379977006465197,0.0003330780891701579
1761401421713796000,8.958796142578125,0.0007993874605745077,0.005662327632308006,0
1761401421723875300,8.968875244140625,0.003497319994494319,0.007144525181502104,0.0005828866851516068
1761401421733957000,8.97895703125,0.006694869603961706,0.00576225109398365,0.0021650076378136873
1761401421744038000,8.989037841796875,0.009559341706335545,0.002348200650885701,0.003280819160863757
1761401421754118400,8.999118408203126,0.009959034621715546,-0.0007494257297366858,0.0037804364692419767
1761401421764199000,9.009198974609374,0.0075941807590425014,-0.0012656967155635357,0.003414050443097949
1761401421774280400,9.019280517578125,0.004246745724231005,-0.0019651607144623995,0.005029479041695595
1761401421784362000,9.029362060546875,0.0018652373692020774,-0.0019318530103191733,0.004946209955960512
1761401421794442000,9.03944189453125,0.0005995405954308808,-0.0013489662669599056,0.003031010739505291
1761401421804523000,9.04952294921875,-0.0004163476114626974,0.0003497319994494319,0.0017986217280849814
1761401421814604500,9.0596044921875,-0.00008326952229253948,0.004629785660654306,0.0019818146247416735
1761401421824660500,9.069660400390624,0.002981049008667469,0.00929287914186716,0.0007993874605745077
1761401421834766600,9.0797666015625,0.006994639988988638,0.013356431387364864,0.002881125546991825
1761401421844846600,9.0898466796875,0.009809150360524654,0.014155819080770016,0.0037637825589627028
1761401421854927600,9.099927734375,0.008610068820416927,0.009093032218515873,0.003197549842298031
1761401421865009200,9.110009033203125,0.005995405837893486,0.003613897366449237,0.0006161945057101548
1761401421875070200,9.1200703125,0.004280053544789553,-0.0008993108640424907,-0.0016320826252922416
1761401421885172000,9.130171875,0.0015821210108697414,-0.005579058080911636,-0.002997702918946743
1761401421895252200,9.140252197265625,-0.0024980856105685234,-0.009575995616614819,-0.0045631700195372105
1761401421905332700,9.150332763671875,-0.006028713658452034,-0.010841691866517067,-0.004379977006465197
1761401421915413800,9.160413818359375,-0.00646171486005187,-0.005795558914542198,-0.003297473071143031
1761401421925495000,9.1704951171875,-0.004080206621438265,0.0013489662669599056,-0.0018818912794813514
1761401421935554300,9.18055419921875,-0.0005329249543137848,0.006428407039493322,0.00009992343257181346
1761401421945656600,9.190656494140624,0.003114280290901661,0.009825804270803928,0.0011158116394653916
1761401421955737600,9.200737548828124,0.0054624807089567184,0.012706929817795753,0.0018818912794813514
1761401421965819100,9.210819091796875,0.008560107089579105,0.01202411949634552,0.00039969373028725386
1761401421975900200,9.220900146484375,0.00832695234566927,0.005562404170632362,-0.0005662327748723328
1761401421985980200,9.230980224609375,0.0037304747384041548,-0.004429938737303019,-0.0016986982664093375
1761401421996062000,9.24106201171875,-0.002364854561164975,-0.011258039623498917,-0.0011990811908617616
1761401422006142700,9.251142822265624,-0.006894716527312994,-0.009043070487678051,-0.0001332312385784462
1761401422016223000,9.261222900390624,-0.007327718194574118,-0.003180895932018757,0.002414816292002797
1761401422026304000,9.271303955078125,-0.004330015275627375,0.0019151991000398993,0.0037304747384041548
1761401422036385500,9.281385498046875,-0.0017486599972471595,0.006478368770331144,0.0014821975491940975
1761401422046466300,9.29146630859375,-0.0013822740875184536,0.007960566319525242,0.00009992343257181346
1761401422056547800,9.3015478515625,-0.0012656967155635357,0.007327718194574118,-0.0007827335502952337
1761401422066607900,9.31160791015625,-0.0004330015217419714,0.00654498441144824,-0.003130934201180935
1761401422076686300,9.321686279296875,0.0014155819080770016,0.003464012173935771,-0.004363323096185923
1761401422086790000,9.331789794921875,-0.0011824272805824876,-0.0037304747384041548,-0.008610068820416927
1761401422096870400,9.341870361328125,-0.005029479041695595,-0.00987576600164175,-0.0103087667375803
1761401422106953000,9.351952880859375,-0.005479134619235992,-0.011308001354336739,-0.010108919814229012
1761401422117035300,9.36203515625,-0.005978751927614212,-0.011008230969309807,-0.006994639988988638
1761401422127113700,9.37211376953125,-0.00481297867372632,-0.006661561783403158,-0.004962863866239786
1761401422137196500,9.382196533203125,-0.0010991577291861176,-0.0019818146247416735,-0.002431470202282071
1761401422147275800,9.39227587890625,0.0020650841761380434,0.002764548175036907,-0.0008160413126461208
1761401422157357000,9.402357177734375,0.004296707455068827,0.005745597183704376,0.0011158116394653916
1761401422167437800,9.412437744140625,0.004879594314843416,0.006778139155358076,0.0017320060869678855
1761401422177519000,9.42251904296875,0.004030244890600443,0.004130168352276087,0.0005662327748723328
1761401422187600000,9.432599853515624,0.002381508471444249,-0.0020817380864173174,-0.0013656201772391796
1761401422197680400,9.442680419921874,-0.000016653904822305776,-0.0075775268487632275,-0.003247511340305209
1761401422217842700,9.4628427734375,-0.0019984685350209475,-0.008726646192371845,-0.003047664649784565
1761401422227923500,9.47292333984375,-0.0017653139075264335,-0.008859877474606037,-0.003663859097287059
1761401422238004700,9.483004638671876,-0.0005995405954308808,-0.008909839205443859,-0.004180130083113909
1761401422248085800,9.493085693359374,0.0024980856105685234,-0.005046132951974869,-0.003264165250584483
1761401422258143000,9.50314306640625,0.004196783993393183,0.0000666156192892231,-0.0004163476114626974
1761401422268247000,9.5132470703125,0.003930321428924799,0.002464778022840619,0.0015821210108697414
1761401422278306000,9.52330615234375,0.003497319994494319,0.0016154287150129676,0.0011158116394653916
1761401422288409300,9.533409423828125,0.003380742622539401,-0.00048296325257979333,-0.002831163816154003
1761401422298490000,9.543489990234375,0.0022482771892100573,-0.006811446975916624,-0.006844754796475172
1761401422318635000,9.563635009765624,-0.0019818146247416735,-0.01144123263657093,-0.0075109112076461315
1761401422328733000,9.57373291015625,-0.0020484302658587694,-0.007444295566529036,-0.006211906671524048
1761401422338814000,9.58381396484375,-0.00024980856687761843,-0.004763016942888498,-0.003647205187007785
1761401422348895500,9.5938955078125,0.0010325420880690217,-0.0011824272805824876,-0.0020983919966965914
1761401422358976500,9.6039765625,0.0025647012516856194,0.0007494257297366858,-0.0015987749211490154
1761401422369026800,9.61402685546875,0.003580589545890689,0.0005662327748723328,-0.0004163476114626974
1761401422379138000,9.624137939453124,0.005062786862254143,-0.0006495022680610418,-0.0008826569537632167
1761401422389219300,9.63421923828125,0.0038470521103590727,-0.003547281725332141,-0.002764548175036907
1761401422399299600,9.644299560546875,0.002897779457271099,-0.006145291030406952,-0.003164242021739483
1761401422409340400,9.65434033203125,0.0037637825589627028,-0.003680513007566333,-0.002431470202282071
1761401422419462100,9.664462158203126,0.00489624822512269,-0.0011990811908617616,-0.0010658499086275697
1761401422429542400,9.67454248046875,0.004246745724231005,-0.0008493491332046688,0.0014988514594733715
1761401422439601700,9.6846015625,0.003913667518645525,-0.00046630934230051935,0.00464643957093358
1761401422449684200,9.694684326171876,0.005945444107055664,-0.00011657733557512984,0.0053625572472810745
1761401422459763500,9.704763427734376,0.008526799269020557,0.003380742622539401,0.004280053544789553
1761401422469843500,9.714843505859376,0.008310298435389996,0.003647205187007785,0.0017986217280849814
1761401422479904000,9.724904052734376,0.005662327632308006,0.0015155053697526455,0.0006994639988988638
1761401422490029000,9.735029052734374,0.002481431933119893,-0.0002165007608709857,-0.0006495022680610418
1761401422500109800,9.74510986328125,0.0011824272805824876,-0.0026146629825234413,-0.0008326952229253948
1761401422510168000,9.75516796875,0.0018652373692020774,-0.002348200650885701,-0.0016986982664093375
1761401422520270600,9.7652705078125,0.002814509905874729,-0.0017153521766886115,-0.002997702918946743
1761401422530353400,9.775353515625,0.002964395098388195,-0.0026979325339198112,-0.005162710323929787
1761401422540433700,9.78543359375,0.0026646247133612633,-0.0014488897286355495,-0.005245979875326157
1761401422550514200,9.79551416015625,0.003530627815052867,0.0045298621989786625,-0.002348200650885701
1761401422560595200,9.80559521484375,0.006062021479010582,0.010924961417913437,0.003264165250584483
1761401422570676200,9.81567626953125,0.007893950678408146,0.015571401454508305,0.008393567986786366
1761401422580757200,9.82575732421875,0.009842458181083202,0.015721285715699196,0.009609303437173367
1761401422590838300,9.83583837890625,0.010625191032886505,0.012723583728075027,0.00937614869326353
1761401422600920300,9.84592041015625,0.010342074558138847,0.008993108756840229,0.008526799269020557
1761401422611000800,9.856000732421874,0.010342074558138847,0.007361026015132666,0.008793261833488941
1761401422621080600,9.86608056640625,0.009759188629686832,0.006594946142286062,0.009559341706335545
1761401422631162600,9.87616259765625,0.008476837538182735,0.005728943273425102,0.009692572988569736
1761401422641245400,9.886245361328125,0.007927258498966694,0.0038470521103590727,0.00866003055125475
1761401422651324700,9.89632470703125,0.007277756463736296,0.004030244890600443,0.006994639988988638
1761401422661404200,9.906404052734375,0.007810681592673063,0.005262633785605431,0.00489624822512269
1761401422671486000,9.91648583984375,0.007427641656249762,0.0075275651179254055,0.003314126981422305
1761401422681567500,9.9265673828125,0.007111217360943556,0.00954268779605627,0.002481431933119893
1761401422691648000,9.93664794921875,0.006411753129214048,0.010325420647859573,0.0021150459069758654
1761401422701729000,9.94672900390625,0.0045964778400957584,0.010425344109535217,0.0037970903795212507
1761401422711784200,9.9567841796875,0.0014155819080770016,0.010825037956237793,0.007427641656249762
1761401422721889800,9.966889892578125,-0.0003164241788908839,0.00979249645024538,0.008759954012930393
1761401422731971800,9.976971923828126,0.0000666156192892231,0.0075775268487632275,0.009509379975497723
1761401422742053400,9.987053466796874,0.0018319295486435294,0.005295941606163979,0.009226263500750065
1761401422752133600,9.997133544921875,0.0045964778400957584,0.0044799004681408405,0.00849349144846201
1761401422762215200,10.007215087890625,0.00816041324287653,0.0053292494267225266,0.007277756463736296
1761401422772295200,10.017295166015625,0.007677450310438871,0.008959800936281681,0.006611600052565336
1761401422782376200,10.027376220703125,0.00687806261703372,0.010958269238471985,0.0054125189781188965
1761401422792457700,10.037457763671876,0.004713055212050676,0.010325420647859573,0.003014356829226017
1761401422802538000,10.0475380859375,0.0014821975491940975,0.00609532929956913,0.0018818912794813514
1761401422812619800,10.057619873046875,-0.0016320826252922416,0.0019818146247416735,0.002331546740606427
1761401422822711000,10.0677109375,-0.0016986982664093375,-0.000016653904822305776,0.0014655436389148235
1761401422832791300,10.077791259765625,-0.0009659265051595867,0.00044965543202124536,0.004013590980321169
1761401422842861600,10.087861572265625,0.0025980090722441673,0.0045798239298164845,0.005812212824821472
1761401422852927000,10.097927001953124,0.00584552064538002,0.009426110424101353,0.006511676590889692
1761401422863023600,10.108023681640624,0.007427641656249762,0.01227392815053463,0.008626722730696201
1761401422873106000,10.11810595703125,0.009642611257731915,0.016004402190446854,0.00970922689884901
1761401422883186400,10.1281865234375,0.009076378308236599,0.015205015428364277,0.010575229302048683
1761401422893267200,10.13826708984375,0.006594946142286062,0.011824272572994232,0.009176301769912243
1761401422903348200,10.14834814453125,0.002931087277829647,0.008027181960642338,0.0074776033870875835
1761401422913429500,10.158429443359376,-0.003164242021739483,0.004163476172834635,0.004979517310857773
1761401422923510300,10.16851025390625,-0.009859112091362476,0.003097626380622387,0.005162710323929787
1761401422933591600,10.178591552734375,-0.011557810008525848,0.004130168352276087,0.004846286494284868
1761401422943672300,10.18867236328125,-0.009142993949353695,0.010758422315120697,0.0037304747384041548
1761401422953753300,10.19875341796875,-0.0026812786236405373,0.014938552863895893,0.002398162381723523
1761401422963843600,10.208843505859376,0.0016320826252922416,0.013739471323788166,-0.00046630934230051935
1761401422973914600,10.21891455078125,0.00567898154258728,0.01433901209384203,-0.002831163816154003
1761401422983995600,10.22899560546875,0.006994639988988638,0.015787901356816292,0.00044965543202124536
1761401422994076200,10.239076171875,0.005745597183704376,0.012623660266399384,0.0045465161092579365
1761401423004158200,10.249158203125,0.003946975339204073,0.008526799269020557,0.004846286494284868
1761401423014239000,10.259239013671875,-0.00009992343257181346,0.0018818912794813514,0.004130168352276087
1761401423024319200,10.2693193359375,-0.0045964778400957584,-0.006844754796475172,0.004413284827023745
1761401423034400500,10.279400390625,-0.006161944940686226,-0.008543453179299831,0.003464012173935771
1761401423044482000,10.28948193359375,-0.004263399634510279,-0.006128637120127678,0.002348200650885701
1761401423054563000,10.29956298828125,-0.0008660030434839427,-0.002381508471444249,0.0021316998172551394
1761401423064642800,10.309642822265625,0.0038970138411968946,0.0018818912794813514,0.0008326952229253948
1761401423074724900,10.319724853515625,0.007710758130997419,0.003031010739505291,-0.0007327718194574118
1761401423084805600,10.3298056640625,0.01014222763478756,0.0004996171337552369,-0.0002831163874361664
1761401423094886000,10.339885986328126,0.00979249645024538,-0.003563935635611415,0.0003497319994494319
1761401423104930300,10.349930419921876,0.006311830133199692,-0.007744065951555967,0.0016154287150129676
1761401423115048000,10.3600478515625,0.003330780891701579,-0.01292342972010374,0.0008326952229253948
1761401423125128400,10.37012841796875,-0.0004996171337552369,-0.014855283312499523,-0.0007660796400159597
1761401423135210500,10.38021044921875,-0.003314126981422305,-0.013822740875184536,-0.0017986217280849814
1761401423145291000,10.390291015625,-0.004180130083113909,-0.010092265903949738,-0.0014155819080770016
1761401423155373300,10.400373291015624,-0.002864471636712551,-0.005545750260353088,-0.0015821210108697414
1761401423165452800,10.410452880859374,-0.0002997702977154404,-0.002747894264757633,-0.0025313934311270714
1761401423175534600,10.42053466796875,0.0026146629825234413,0.002398162381723523,-0.0020983919966965914
1761401423185615000,10.430614990234375,0.004613131750375032,0.002914433367550373,-0.0011491194600239396
1761401423195696000,10.440696044921875,0.004862940404564142,0.0020484302658587694,-0.0009825803572311997
1761401423205776600,10.450776611328125,0.004363323096185923,-0.003047664649784565,-0.002797855995595455
1761401423215838500,10.46083837890625,0.003164242021739483,-0.00791060458868742,-0.003996937070041895
1761401423225938400,10.4709384765625,0.0014821975491940975,-0.011124808341264725,-0.00472970912232995
1761401423236019700,10.481019775390624,-0.0006161945057101548,-0.014405627734959126,-0.004663093481212854
1761401423246100700,10.491100830078125,-0.0006661561783403158,-0.01317323837429285,-0.003697166917845607
1761401423256182000,10.50118212890625,0.0006328483577817678,-0.01047530584037304,0.0004996171337552369
1761401423266262300,10.51126220703125,0.002947741188108921,-0.0053292494267225266,0.002814509905874729
1761401423276343800,10.52134375,0.004796324763447046,-0.0021483537275344133,0.004080206621438265
1761401423286425000,10.531425048828124,0.005895482376217842,-0.00004996171628590673,0.0037970903795212507
1761401423296474600,10.541474609375,0.006944678258150816,-0.0009659265051595867,0.003014356829226017
1761401423306586400,10.55158642578125,0.006911370437592268,-0.0009326186846010387,0.002364854561164975
1761401423316667600,10.561667724609375,0.00729441037401557,0.0006828100886195898,0.0026979325339198112
1761401423326722800,10.571722900390625,0.006045367568731308,0.0015321592800319195,0.0017819678178057075
1761401423336830000,10.581829833984376,0.005878828465938568,0.0009825803572311997,-0.00023315467115025967
1761401423346909700,10.59190966796875,0.005162710323929787,-0.0008493491332046688,-0.00024980856687761843
1761401423356994300,10.601994384765625,0.004663093481212854,-0.0017653139075264335,0.0020650841761380434
1761401423367072500,10.612072509765625,0.002931087277829647,-0.005545750260353088,0.0038303982000797987
1761401423377152500,10.622152587890625,0.00044965543202124536,-0.008976454846560955,0.003164242021739483
1761401423387235800,10.63223583984375,0.0002664624771568924,-0.006511676590889692,0.003314126981422305
1761401423397315300,10.6423154296875,0.0016487365355715156,-0.0011324655497446656,0.002414816292002797
1761401423407396000,10.65239599609375,0.002864471636712551,0.0017320060869678855,-0.0007827335502952337
1761401423417477400,10.662477294921874,0.004713055212050676,0.005962098017334938,-0.0025980090722441673
1761401423427558400,10.672558349609375,0.0076108346693217754,0.008293644525110722,-0.0013822740875184536
1761401423437638700,10.682638671875,0.01014222763478756,0.00791060458868742,0.00039969373028725386
1761401423447720000,10.692719970703125,0.010525267571210861,0.007927258498966694,0.003913667518645525
1761401423457778400,10.7027783203125,0.010791730135679245,0.00634513795375824,0.007177833002060652
1761401423467882000,10.712882080078124,0.01110815443098545,0.0045298621989786625,0.008793261833488941
1761401423477963500,10.722963623046875,0.01022549718618393,0.0018818912794813514,0.009142993949353695
1761401423488044300,10.733044189453125,0.008759954012930393,-0.0006328483577817678,0.009259571321308613
1761401423498125300,10.743125244140625,0.0075941807590425014,-0.0006994639988988638,0.008893185295164585
1761401423508205800,10.753205810546875,0.005562404170632362,-0.0007993874605745077,0.00791060458868742
1761401423518286300,10.763286376953126,0.003513973904773593,0.003114280290901661,0.006761485245078802
1761401423528367900,10.773367919921874,0.0037471286486834288,0.006844754796475172,0.005279287695884705
1761401423538425900,10.78342578125,0.00567898154258728,0.010991577059030533,0.0038970138411968946
1761401423548529700,10.79352978515625,0.006528330501168966,0.015404862351715565,0.003047664649784565
1761401423558611200,10.803611083984375,0.007094563450664282,0.018552450463175774,0.0038303982000797987
1761401423568677000,10.813677001953126,0.00737767992541194,0.018685681745409966,0.0044465926475822926
1761401423578772200,10.823772216796876,0.006644907873123884,0.015088438056409359,0.003230857430025935
1761401423588853500,10.833853515625,0.004379977006465197,0.01367285568267107,0.0016653904458507895
1761401423598934800,10.843934814453124,0.0015155053697526455,0.01333977747708559,0.003031010739505291
1761401423609012200,10.85401220703125,0.0005662327748723328,0.012956737540662289,0.0053125955164432526
1761401423619096600,10.8640966796875,0.0008826569537632167,0.009426110424101353,0.006078675389289856
1761401423629177000,10.874177001953125,0.0010825038189068437,0.007394333835691214,0.005212672054767609
1761401423639258600,10.884258544921876,0.0012656967155635357,0.007194486912339926,0.004429938737303019
1761401423649340000,10.89433984375,0.0017819678178057075,0.007644142489880323,0.0038137442898005247
1761401423659420000,10.904419921875,0.003597243456169963,0.00987576600164175,0.003630551276728511
1761401423669500700,10.914500732421875,0.006395099684596062,0.010991577059030533,0.0012823506258428097
1761401423679559400,10.924559326171876,0.00841022189706564,0.010808384045958519,-0.0007494257297366858
1761401423689663700,10.934663818359375,0.007710758130997419,0.01119142398238182,-0.0010991577291861176
1761401423699743700,10.94474365234375,0.008610068820416927,0.011674387380480766,0.002348200650885701
1761401423709800400,10.954800537109374,0.008043835870921612,0.010941615328192711,0.005262633785605431
1761401423719906000,10.964906005859374,0.00696133216843009,0.006694869603961706,0.004330015275627375
1761401423729986800,10.97498681640625,0.004263399634510279,-0.0022149693686515093,0.0013656201772391796
1761401423740045600,10.985045654296876,-0.00018319295486435294,-0.009126340039074421,0.0020151224453002214
1761401423750148600,10.995148681640625,-0.0012157351011410356,-0.008376914076507092,0.005862174555659294
1761401423760208400,11.00520849609375,0.0020817380864173174,-0.0018152756383642554,0.007960566319525242
1761401423770311200,11.015311279296874,0.0045964778400957584,0.006728177424520254,0.006062021479010582
1761401423780391700,11.0253916015625,0.00799387414008379,0.0103087667375803,0.0009159647743217647
1761401423790473500,11.035473388671875,0.007677450310438871,0.012540390715003014,-0.0016154287150129676
1761401423800575500,11.045575439453126,0.005495788529515266,0.009942381642758846,-0.0016320826252922416
1761401423810634800,11.055634765625,0.004180130083113909,0.006811446975916624,0.00011657733557512984
1761401423820707800,11.065707763671876,0.003430704353377223,0.0022482771892100573,0.0007327718194574118
1761401423830796000,11.075796142578126,0.002364854561164975,-0.0054125189781188965,-0.00039969373028725386
1761401423840878000,11.085878173828124,0.0011324655497446656,-0.013939318247139454,-0.002364854561164975
1761401423850955500,11.09595556640625,-0.0006994639988988638,-0.01620424911379814,-0.003913667518645525
1761401423861038800,11.106038818359375,-0.0005662327748723328,-0.01160777173936367,-0.0025980090722441673
1761401423871120600,11.11612060546875,-0.0007161179091781378,-0.005495788529515266,-0.0018985451897606254
1761401423881201000,11.126200927734375,0.0021483537275344133,0.003014356829226017,-0.0021983154583722353
1761401423891283000,11.136282958984374,0.005529096350073814,0.007394333835691214,-0.003031010739505291
1761401423901363000,11.146363037109374,0.0075442190282046795,0.006295176222920418,-0.0044799004681408405
1761401423911445200,11.1564453125,0.007277756463736296,-0.0008326952229253948,-0.003080972470343113
1761401423921525200,11.166525146484375,0.005978751927614212,-0.008626722730696201,-0.0020650841761380434
1761401423931605800,11.176605712890625,0.006428407039493322,-0.014372319914400578,-0.0010491959983482957
1761401423941687000,11.18668701171875,0.004163476172834635,-0.015871170908212662,-0.0017320060869678855
1761401423951767600,11.196767578125,0.0015821210108697414,-0.014971860684454441,-0.0001498851488577202
1761401423961826000,11.206825927734375,0.0004330015217419714,-0.012790199369192123,0.00044965543202124536
1761401423971907300,11.2169072265625,0.0018152756383642554,-0.011341309174895287,-0.0015155053697526455
1761401423982011100,11.22701123046875,0.0025147395208477974,-0.007810681592673063,-0.003497319994494319
1761401423992068000,11.237068115234376,0.0026812786236405373,-0.002331546740606427,-0.003347434801980853
1761401424002172700,11.247172607421875,0.003480666084215045,0.004130168352276087,-0.0021483537275344133
1761401424012254000,11.25725390625,0.0044799004681408405,0.009725880809128284,-0.0010491959983482957
1761401424022335700,11.267335693359374,0.004979517310857773,0.009725880809128284,0.0015654671005904675
1761401424032415700,11.277415771484375,0.004063552711158991,0.00559571199119091,-0.00018319295486435294
1761401424042497000,11.2874970703125,0.0013489662669599056,0.0005662327748723328,-0.0006828100886195898
1761401424052577800,11.297577880859375,-0.0006994639988988638,-0.0022649310994893312,-0.0013989279977977276
1761401424062659300,11.307659423828126,-0.0015654671005904675,-0.002431470202282071,-0.0014655436389148235
1761401424072739800,11.31773974609375,-0.0011491194600239396,-0.0024980856105685234,-0.0010325420880690217
1761401424082820400,11.3278203125,-0.0015821210108697414,-0.0002997702977154404,-0.0018652373692020774
1761401424092902000,11.33790185546875,-0.0006328483577817678,0.004946209955960512,-0.00016653904458507895
1761401424102982700,11.347982666015625,0.0009659265051595867,0.007843988947570324,0.0008493491332046688
1761401424113065200,11.358065185546875,0.002431470202282071,0.009026416577398777,0.0022316232789307833
1761401424123144200,11.368144287109375,0.004330015275627375,0.00679479306563735,0.0020317763555794954
1761401424133225700,11.378225830078126,0.0045298621989786625,0.003097626380622387,-0.0005995405954308808
1761401424143305700,11.3883056640625,0.0025980090722441673,0.0002997702977154404,-0.0026979325339198112
1761401424153387000,11.398386962890624,0.0015821210108697414,0.0007161179091781378,-0.0015987749211490154
1761401424163468000,11.408468017578125,-0.00024980856687761843,0.00003330780964461155,-0.0021483537275344133
1761401424173549000,11.418549072265625,-0.0018818912794813514,-0.0008160413126461208,-0.0003330780891701579
1761401424183631000,11.428631103515626,-0.0016986982664093375,-0.0003663859097287059,0.0002997702977154404
1761401424193711000,11.438711181640626,-0.0010491959983482957,0.0018152756383642554,0.0021316998172551394
1761401424203792400,11.44879248046875,-0.0002165007608709857,0.0053625572472810745,0.003230857430025935
1761401424213873700,11.458873779296875,0.0007494257297366858,0.009809150360524654,0.0012823506258428097
1761401424223953000,11.468952880859375,0.0004163476114626974,0.01202411949634552,0.0005828866851516068
1761401424234034700,11.47903466796875,-0.0014322358183562756,0.009326186962425709,-0.0008326952229253948
1761401424244115700,11.48911572265625,-0.006428407039493322,0.00489624822512269,-0.0022149693686515093
1761401424254196700,11.49919677734375,-0.008060489781200886,0.004379977006465197,-0.0017653139075264335
1761401424264277800,11.50927783203125,-0.007144525181502104,0.0045465161092579365,-0.0018485834589228034
1761401424274358800,11.51935888671875,-0.006195252761244774,0.002314892830327153,-0.003197549842298031
1761401424284439600,11.529439453125,-0.005262633785605431,0.004263399634510279,-0.003264165250584483
1761401424294521300,11.539521240234375,-0.0026646247133612633,0.006678215693682432,-0.002314892830327153
1761401424304607200,11.549607177734375,-0.00039969373028725386,0.009959034621715546,-0.0007494257297366858
1761401424314683400,11.559683349609376,0.0026812786236405373,0.013872702606022358,0.0002831163874361664
1761401424324763400,11.569763427734374,0.003380742622539401,0.011574463918805122,0.0005495788645930588
1761401424334821400,11.5798212890625,0.002831163816154003,0.003930321428924799,-0.0009492725948803127
1761401424344925700,11.58992578125,0.003214203519746661,-0.0019651607144623995,-0.0016986982664093375
1761401424355006200,11.600006103515625,0.0017653139075264335,-0.007427641656249762,-0.0021650076378136873
1761401424365060400,11.610060302734375,-0.0002165007608709857,-0.008876531384885311,-0.0012157351011410356
1761401424375159800,11.620159912109376,-0.0006661561783403158,-0.008610068820416927,0.0005162710440345109
1761401424385249500,11.63024951171875,-0.0007161179091781378,-0.006428407039493322,0.0013489662669599056
1761401424395297800,11.6402978515625,0.00003330780964461155,-0.004313361365348101,0.0010825038189068437
1761401424405411300,11.650411376953125,0.0010325420880690217,-0.003946975339204073,-0.00016653904458507895
1761401424415491800,11.660491943359375,0.0011824272805824876,-0.004263399634510279,-0.0021650076378136873
1761401424425562400,11.670562255859375,0.0005828866851516068,-0.0025313934311270714,-0.004080206621438265
1761401424435654100,11.680654052734376,0.0015654671005904675,-0.0005828866851516068,-0.004829632584005594
1761401424445736000,11.69073583984375,0.0020484302658587694,-0.0013489662669599056,-0.005229325965046883
1761401424455816400,11.70081640625,0.0003663859097287059,-0.0016487365355715156,-0.006111983209848404
1761401424465897200,11.710897216796875,-0.0017653139075264335,-0.003114280290901661,-0.00626186840236187
1761401424475978500,11.720978515625,-0.004862940404564142,-0.003130934201180935,-0.00559571199119091
1761401424486058800,11.731058837890625,-0.003980283159762621,-0.0003663859097287059,-0.005295941606163979
1761401424496139500,11.741139404296876,-0.00481297867372632,-0.0003330780891701579,-0.004313361365348101
1761401424506221000,11.751220947265624,-0.004912902135401964,-0.00046630934230051935,-0.0037804364692419767
1761401424516301800,11.7613017578125,-0.002897779457271099,0.0016487365355715156,-0.003697166917845607
1761401424526382300,11.77138232421875,-0.0022649310994893312,0.0020983919966965914,-0.004013590980321169
1761401424536463600,11.781463623046875,-0.0017320060869678855,0.0009992342675104737,-0.003513973904773593
1761401424546516200,11.79151611328125,-0.0007494257297366858,-0.0004163476114626974,-0.005096094682812691
1761401424556625700,11.801625732421876,-0.0014488897286355495,-0.003680513007566333,-0.00592879019677639
1761401424566706400,11.81170654296875,-0.0021650076378136873,-0.006328484043478966,-0.005978751927614212
1761401424576788000,11.8217880859375,-0.00046630934230051935,-0.003080972470343113,-0.0044465926475822926
1761401424586868500,11.831868408203125,0.0010658499086275697,-0.0008160413126461208,-0.003330780891701579
1761401424596951300,11.841951416015625,0.0008826569537632167,-0.0017153521766886115,-0.004713055212050676
1761401424607032800,11.85203271484375,-0.0007327718194574118,-0.0022649310994893312,-0.006111983209848404
1761401424617111000,11.862111083984376,-0.0016653904458507895,-0.0022982389200478792,-0.003547281725332141
1761401424627169800,11.872169677734375,-0.0010325420880690217,0.0018652373692020774,0.00009992343257181346
1761401424637273000,11.882273193359374,-0.0005162710440345109,0.005695635452866554,0.003447358263656497
1761401424647355000,11.89235498046875,0.0008326952229253948,0.00626186840236187,0.0021983154583722353
1761401424657435100,11.90243505859375,0.0019151991000398993,0.003913667518645525,0.0009326186846010387
1761401424667516400,11.912516357421875,0.0012990045361220837,0.002897779457271099,0.0011158116394653916
1761401424677597000,11.922596923828126,0.0005162710440345109,0.004180130083113909,0.002831163816154003
1761401424687676400,11.932676513671876,0.0005162710440345109,0.00559571199119091,0.004829632584005594
1761401424697758500,11.942758544921874,0.0008160413126461208,0.0053792111575603485,0.0025480473414063454
1761401424707839700,11.95283984375,-0.0002165007608709857,0.0027312403544783592,-0.0019984685350209475
1761401424717921500,11.962921630859375,-0.0014488897286355495,0.0013989279977977276,-0.004663093481212854
1761401424728002600,11.97300244140625,-0.0022982389200478792,0.002814509905874729,-0.005096094682812691
1761401424738060500,11.983060546875,-0.0006161945057101548,0.006495022680610418,-0.005479134619235992
1761401424748164400,11.993164306640624,0.0005162710440345109,0.005878828465938568,-0.00704460171982646
1761401424758242300,12.0032421875,0.0021816615480929613,0.005146056413650513,-0.007011293899267912
1761401424768325400,12.013325439453125,0.003946975339204073,0.002914433367550373,-0.0053459033370018005
1761401424778407000,12.023406982421875,0.002964395098388195,-0.0016487365355715156,-0.0021483537275344133
1761401424788487400,12.0334873046875,0.0014488897286355495,-0.0045132082886993885,0.00003330780964461155
1761401424798568700,12.043568603515626,0.0008660030434839427,-0.006644907873123884,0.0013656201772391796
1761401424808650000,12.05364990234375,0.0002997702977154404,-0.006395099684596062,0.0012490428052842617
1761401424818730800,12.063730712890624,-0.0019984685350209475,-0.007344372104853392,0.0005995405954308808
