time,seconds_elapsed,z,y,x
1761402167844405200,0.1234052734375,9.749862670898438,0.054917000234127045,-0.08207622915506363
1761402167854486800,0.13348681640625,9.744924545288086,0.05027823522686958,-0.0843207910656929
1761402167864578600,0.14357861328125,9.759140014648438,0.048482585698366165,-0.07624036073684692
1761402167874661400,0.153661376953125,9.771185874938965,0.04563947021961212,-0.08289923518896103
1761402167884755200,0.163755126953125,9.749862670898438,0.059630587697029114,-0.07220014184713364
1761402167894836700,0.173836669921875,9.752107620239258,0.05349544435739517,-0.0752677172422409
1761402167904918800,0.183918701171875,9.760486602783203,0.05050269141793251,-0.07803601026535034
1761402167915007000,0.194007080078125,9.754201889038086,0.05379471927881241,-0.0818517729640007
1761402167925072100,0.204072021484375,9.760112762451172,0.053345806896686554,-0.08521861582994461
1761402167935148800,0.214148681640625,9.754875183105469,0.04399345442652702,-0.0859668031334877
1761402167945230000,0.22422998046875,9.754127502441406,0.05514145642518997,-0.0892588347196579
1761402167955310800,0.234310791015625,9.75637149810791,0.054842181503772736,-0.08813655376434326
1761402167965404400,0.244404296875,9.767220497131348,0.055590372532606125,-0.08192659169435501
1761402167975473200,0.25447314453125,9.75869083404541,0.04990414157509804,-0.08641571551561356
1761402167985570000,0.264570068359375,9.757793426513672,0.06419453024864197,-0.07676409184932709
1761402167995633400,0.27463330078125,9.75973892211914,0.05357026308774948,-0.08424597233533859
1761402168005729000,0.28472900390625,9.753080368041992,0.0537199005484581,-0.07055412977933884
1761402168015789300,0.294789306640625,9.763105392456055,0.05349544435739517,-0.07713818550109863
1761402168025891800,0.304891845703125,9.7675199508667,0.0487818606197834,-0.08768763393163681
1761402168035973000,0.31497314453125,9.75053596496582,0.06157587468624115,-0.08274959772825241
1761402168046049000,0.325049072265625,9.763778686523438,0.05858312174677849,-0.08372224122285843
1761402168056133400,0.33513330078125,9.759663581848145,0.05267243832349777,-0.08948329091072083
1761402168066191000,0.345191162109375,9.765275001525879,0.052447982132434845,-0.08065467327833176
1761402168076297700,0.355297607421875,9.759963035583496,0.05386953800916672,-0.08364742249250412
1761402168086379000,0.36537890625,9.759439468383789,0.054917000234127045,-0.08125322312116623
1761402168096463000,0.375463134765625,9.75622272491455,0.04953004792332649,-0.07706336677074432
1761402168106518300,0.385518310546875,9.7559232711792,0.04578910768032074,-0.08132804185152054
1761402168116609500,0.395609619140625,9.7675199508667,0.04953004792332649,-0.08334814757108688
1761402168126704000,0.4057041015625,9.752631187438965,0.06232406198978424,-0.0818517729640007
1761402168136771800,0.415771728515625,9.7582426071167,0.05431845039129257,-0.0744447112083435
1761402168146866200,0.4258662109375,9.756670951843262,0.05199906975030899,-0.08604162186384201
1761402168156947000,0.435947021484375,9.761459350585938,0.04743511974811554,-0.08491934090852737
1761402168167030000,0.446030029296875,9.754501342773438,0.05574000999331474,-0.07960720360279083
1761402168177109200,0.456109130859375,9.760486602783203,0.0471358448266983,-0.0735468864440918
1761402168187197400,0.466197509765625,9.763628959655762,0.049380410462617874,-0.07818564772605896
1761402168197271800,0.476271728515625,9.768866539001465,0.05222352594137192,-0.07878419756889343
1761402168207348000,0.486347900390625,9.76677131652832,0.0496048666536808,-0.08192659169435501
1761402168217434400,0.496434326171875,9.755324363708496,0.04893149808049202,-0.08723872154951096
1761402168227515400,0.506515380859375,9.756896018981934,0.047884032130241394,-0.08873510360717773
1761402168237583600,0.51658349609375,9.755847930908203,0.0487818606197834,-0.08087912946939468
1761402168247665400,0.52666552734375,9.758167266845703,0.05177461355924606,-0.07953238487243652
1761402168257745000,0.536744873046875,9.754875183105469,0.05297171324491501,-0.0884358286857605
1761402168267840000,0.546840087890625,9.756072998046875,0.049380410462617874,-0.08970774710178375
1761402168277921500,0.556921630859375,9.76445198059082,0.04504092037677765,-0.08641571551561356
1761402168287998700,0.566998779296875,9.764078140258789,0.04721066355705261,-0.07676409184932709
1761402168298072000,0.577072021484375,9.762207984924316,0.0520738884806633,-0.07152677327394485
1761402168308150000,0.58714990234375,9.764302253723145,0.0454898327589035,-0.07653963565826416
1761402168318246400,0.597246337890625,9.76086139678955,0.03576338663697243,-0.08828619122505188
1761402168328327000,0.607326904296875,9.767669677734375,0.05274725705385208,-0.07638999819755554
1761402168338395600,0.617395751953125,9.767594337463379,0.05446808785200119,-0.07923310995101929
1761402168348477400,0.6274775390625,9.765724182128906,0.05027823522686958,-0.08117840439081192
1761402168358544600,0.637544677734375,9.765649795532227,0.04945522919297218,-0.08222586661577225
1761402168368639200,0.64763916015625,9.762581825256348,0.048557404428720474,-0.08334814757108688
1761402168378730200,0.657730224609375,9.75510025024414,0.058059390634298325,-0.0826747789978981
1761402168388814300,0.667814453125,9.758092880249023,0.05222352594137192,-0.07624036073684692
1761402168398895600,0.6778955078125,9.75869083404541,0.056338559836149216,-0.08289923518896103
1761402168408956400,0.687956298828125,9.760336875915527,0.05274725705385208,-0.08379705995321274
1761402168419045400,0.69804541015625,9.757793426513672,0.050951603800058365,-0.08005611598491669
1761402168429132000,0.708132080078125,9.759963035583496,0.05835866555571556,-0.08559270948171616
1761402168439228700,0.718228759765625,9.755548477172852,0.051699791103601456,-0.0751928985118866
1761402168449289000,0.7282890625,9.758766174316406,0.043095629662275314,-0.08297405391931534
1761402168459370000,0.738369873046875,9.755024909973145,0.05147533491253853,-0.09045593440532684
1761402168469463800,0.7484638671875,9.758092880249023,0.056338559836149216,-0.08409633487462997
1761402168479533000,0.758532958984375,9.753304481506348,0.054917000234127045,-0.08746317774057388
1761402168489623800,0.768623779296875,9.766996383666992,0.04997896030545235,-0.076015904545784
1761402168499700200,0.7787001953125,9.765424728393555,0.0528968945145607,-0.07392098009586334
1761402168509788400,0.788788330078125,9.76909065246582,0.04279635474085808,-0.08035539090633392
1761402168519870000,0.798869873046875,9.763554573059082,0.05050269141793251,-0.07781155407428741
1761402168529947000,0.80894677734375,9.764976501464844,0.05259761959314346,-0.0751928985118866
1761402168540008700,0.8190087890625,9.75869083404541,0.04519055783748627,-0.0769137293100357
1761402168550101500,0.8291015625,9.75622272491455,0.054168812930583954,-0.08252514153718948
1761402168560191000,0.83919091796875,9.768193244934082,0.052373163402080536,-0.08387187868356705
1761402168570263300,0.84926318359375,9.768193244934082,0.053270988166332245,-0.08447042852640152
1761402168580357000,0.859357177734375,9.76400375366211,0.05910685285925865,-0.08581716567277908
1761402168590418700,0.869418701171875,9.762955665588379,0.060378775000572205,-0.07878419756889343
1761402168600519200,0.879519287109375,9.765724182128906,0.054093994200229645,-0.0918026715517044
1761402168610600200,0.88960009765625,9.768268585205078,0.05424363166093826,-0.09120412170886993
1761402168620665000,0.8996650390625,9.769689559936523,0.0586579404771328,-0.08783727139234543
1761402168630758400,0.90975830078125,9.759065628051758,0.04900631681084633,-0.08394669741392136
1761402168640831000,0.9198310546875,9.758766174316406,0.054991818964481354,-0.08409633487462997
1761402168650925300,0.92992529296875,9.765350341796875,0.05199906975030899,-0.08170213550329208
1761402168661005800,0.940005859375,9.771784782409668,0.05933130905032158,-0.08080431073904037
1761402168671075300,0.950075439453125,9.76325511932373,0.04818331077694893,-0.07953238487243652
1761402168681165800,0.960165771484375,9.757943153381348,0.055665191262960434,-0.08798690885305405
1761402168691243800,0.970243896484375,9.76168441772461,0.05820902809500694,-0.08140286058187485
1761402168701331200,0.980331298828125,9.749862670898438,0.04953004792332649,-0.07758709788322449
1761402168711417000,0.9904169921875,9.766173362731934,0.04945522919297218,-0.0752677172422409
1761402168721493200,1.0004931640625,9.771261215209961,0.04661211371421814,-0.08372224122285843
1761402168731574300,1.01057421875,9.768567085266113,0.04578910768032074,-0.08895955979824066
1761402168741642800,1.020642822265625,9.759439468383789,0.05080196633934975,-0.07571662962436676
1761402168751736800,1.03073681640625,9.756521224975586,0.05768529698252678,-0.08028057217597961
1761402168761816300,1.04081640625,9.751059532165527,0.051699791103601456,-0.08589198440313339
1761402168771910100,1.05091015625,9.754277229309082,0.06172551214694977,-0.08072949200868607
1761402168781980400,1.06098046875,9.759513854980469,0.05858312174677849,-0.08536825329065323
1761402168792049700,1.071049560546875,9.755997657775879,0.06224924325942993,-0.08312369138002396
1761402168802142700,1.081142822265625,9.761159896850586,0.04676175117492676,-0.08731354027986526
1761402168812211000,1.0912109375,9.758017539978027,0.05978022515773773,-0.08207622915506363
1761402168822303000,1.101302978515625,9.763330459594727,0.05162497237324715,-0.07900865375995636
1761402168832373200,1.111373291015625,9.7698392868042,0.05978022515773773,-0.07302315533161163
1761402168842467600,1.121467529296875,9.761534690856934,0.05469254404306412,-0.076015904545784
1761402168852536000,1.1315361328125,9.758466720581055,0.051699791103601456,-0.08207622915506363
1761402168862618000,1.1416181640625,9.76669692993164,0.0520738884806633,-0.08072949200868607
1761402168872707300,1.151707275390625,9.758316993713379,0.05521627515554428,-0.07818564772605896
1761402168882790000,1.161789794921875,9.761982917785645,0.05297171324491501,-0.07833528518676758
1761402168892861000,1.17186083984375,9.761459350585938,0.05035305395722389,-0.08544307202100754
1761402168902954000,1.1819541015625,9.766173362731934,0.05304653197526932,-0.08447042852640152
1761402168913035500,1.192035400390625,9.76557445526123,0.04736030101776123,-0.0810287669301033
1761402168923112400,1.202112548828125,9.765649795532227,0.04810849204659462,-0.07728782296180725
1761402168933198000,1.212197998046875,9.759065628051758,0.05753565952181816,-0.08484452217817307
1761402168943266800,1.222266845703125,9.753902435302734,0.058059390634298325,-0.08334814757108688
1761402168953339400,1.23233935546875,9.751059532165527,0.046986207365989685,-0.07070376724004745
1761402168963441400,1.24244140625,9.757943153381348,0.04818331077694893,-0.08626607805490494
1761402168973497600,1.25249755859375,9.759888648986816,0.050203416496515274,-0.07863456010818481
1761402168983604000,1.26260400390625,9.75936508178711,0.057161565870046616,-0.08177695423364639
1761402168993685500,1.272685546875,9.754277229309082,0.04915595427155495,-0.08551789075136185
1761402169003752200,1.282752197265625,9.769689559936523,0.049305591732263565,-0.07736264169216156
1761402169013845200,1.29284521484375,9.763928413391113,0.049305591732263565,-0.07863456010818481
1761402169023929000,1.30292919921875,9.756521224975586,0.04982932284474373,-0.08544307202100754
1761402169033997000,1.3129970703125,9.763105392456055,0.05828384682536125,-0.07586626708507538
1761402169044070700,1.323070556640625,9.755847930908203,0.057311203330755234,-0.08125322312116623
1761402169054159400,1.333159423828125,9.759513854980469,0.05776011571288109,-0.07878419756889343
1761402169064240600,1.34324072265625,9.764302253723145,0.05132569745182991,-0.08110358566045761
1761402169074334700,1.353334716796875,9.76632308959961,0.04953004792332649,-0.08447042852640152
1761402169084403500,1.363403564453125,9.76168441772461,0.04975450411438942,-0.0834977850317955
1761402169094495000,1.373494873046875,9.76901626586914,0.044666826725006104,-0.07998129725456238
1761402169104580900,1.383580810546875,9.760711669921875,0.057984571903944016,-0.08312369138002396
1761402169114651600,1.393651611328125,9.7536039352417,0.053270988166332245,-0.09202712774276733
1761402169124727600,1.4037275390625,9.766472816467285,0.048407766968011856,-0.0810287669301033
1761402169134819600,1.413819580078125,9.768792152404785,0.0561889223754406,-0.07923310995101929
1761402169144898300,1.423898193359375,9.75861644744873,0.046088382601737976,-0.0785597413778305
1761402169154984000,1.43398388671875,9.766472816467285,0.05439326912164688,-0.08342296630144119
1761402169165065500,1.4440654296875,9.76744556427002,0.050876785069704056,-0.08656535297632217
1761402169175135000,1.454135009765625,9.7582426071167,0.055665191262960434,-0.08125322312116623
1761402169185226800,1.464226806640625,9.749862670898438,0.046986207365989685,-0.08581716567277908
1761402169195293700,1.474293701171875,9.755623817443848,0.044666826725006104,-0.07624036073684692
1761402169205387800,1.4843876953125,9.757194519042969,0.04975450411438942,-0.07998129725456238
1761402169215471000,1.49447119140625,9.75629711151123,0.04990414157509804,-0.08447042852640152
1761402169225539300,1.504539306640625,9.758466720581055,0.054767362773418427,-0.08469488471746445
1761402169235603700,1.514603759765625,9.758840560913086,0.050876785069704056,-0.08895955979824066
1761402169245715000,1.52471484375,9.762581825256348,0.05222352594137192,-0.08252514153718948
1761402169255790000,1.5347900390625,9.769315719604492,0.0553659126162529,-0.08918401598930359
1761402169265862400,1.5448623046875,9.761834144592285,0.05394435673952103,-0.08132804185152054
1761402169275945500,1.554945556640625,9.755623817443848,0.05394435673952103,-0.08379705995321274
1761402169286039000,1.5650390625,9.753080368041992,0.04571428894996643,-0.07077858597040176
1761402169296120300,1.575120361328125,9.7652006149292,0.057011928409338,-0.08462006598711014
1761402169306200000,1.585199951171875,9.755399703979492,0.058882396668195724,-0.08245032280683517
1761402169316277200,1.59527734375,9.760486602783203,0.058957215398550034,-0.08791209012269974
1761402169326362000,1.605362060546875,9.75741958618164,0.05147533491253853,-0.0793079286813736
1761402169336431400,1.615431396484375,9.760112762451172,0.05738602206110954,-0.08634089678525925
1761402169346515200,1.62551513671875,9.769989013671875,0.046163201332092285,-0.07571662962436676
1761402169356608000,1.63560791015625,9.763105392456055,0.05050269141793251,-0.08237550407648087
1761402169366678000,1.645677978515625,9.76744556427002,0.04982932284474373,-0.08028057217597961
1761402169376758500,1.655758544921875,9.765424728393555,0.05304653197526932,-0.08035539090633392
1761402169386843100,1.665843017578125,9.776647567749023,0.04982932284474373,-0.08491934090852737
1761402169396930600,1.6759306640625,9.757793426513672,0.05656301602721214,-0.08192659169435501
1761402169407013600,1.686013671875,9.764677047729492,0.05110124126076698,-0.0777367353439331
1761402169417081900,1.696081787109375,9.757643699645996,0.05117605999112129,-0.08147767931222916
1761402169427163100,1.7061630859375,9.760486602783203,0.054019175469875336,-0.07908347249031067
1761402169437259300,1.71625927734375,9.759289741516113,0.053196169435977936,-0.07983165979385376
1761402169447325400,1.726325439453125,9.767146110534668,0.05738602206110954,-0.08215104788541794
1761402169457421300,1.73642138671875,9.772308349609375,0.05626374110579491,-0.0760907232761383
1761402169467507000,1.7465068359375,9.75510025024414,0.05080196633934975,-0.08162731677293777
1761402169477591800,1.756591796875,9.765050888061523,0.0463128387928009,-0.08147767931222916
1761402169487639800,1.766639892578125,9.761982917785645,0.050128597766160965,-0.08454524725675583
1761402169502785000,1.781784912109375,9.75854206085205,0.04915595427155495,-0.07242459803819656
1761402169512866300,1.7918662109375,9.768043518066406,0.04683656990528107,-0.0867898091673851
1761402169522939600,1.801939697265625,9.76445198059082,0.05274725705385208,-0.08439560979604721
1761402169533028600,1.812028564453125,9.759663581848145,0.05274725705385208,-0.08192659169435501
1761402169543085000,1.8220849609375,9.756072998046875,0.05155015364289284,-0.08072949200868607
1761402169553167000,1.8321669921875,9.752555847167969,0.05985504388809204,-0.07594108581542969
1761402169563272200,1.842272216796875,9.770438194274902,0.056338559836149216,-0.07721300423145294
1761402169573353200,1.852353271484375,9.769240379333496,0.05514145642518997,-0.07841010391712189
1761402169583434500,1.8624345703125,9.759589195251465,0.05506663769483566,-0.08072949200868607
1761402169593503500,1.87250341796875,9.758316993713379,0.04908113554120064,-0.0843207910656929
1761402169603572700,1.88257275390625,9.76789379119873,0.05394435673952103,-0.08312369138002396
1761402169613678300,1.89267822265625,9.755997657775879,0.05027823522686958,-0.07713818550109863
1761402169623759400,1.90275927734375,9.754725456237793,0.05626374110579491,-0.08664017170667648
1761402169633840600,1.912840576171875,9.76318073272705,0.04676175117492676,-0.07713818550109863
1761402169643917800,1.922917724609375,9.76909065246582,0.05155015364289284,-0.08671499043703079
1761402169653997600,1.93299755859375,9.7536039352417,0.05386953800916672,-0.07945756614208221
1761402169664059400,1.943059326171875,9.759140014648438,0.04900631681084633,-0.0900818407535553
1761402169674175000,1.953175048828125,9.759140014648438,0.047734394669532776,-0.07571662962436676
1761402169684221000,1.963220947265625,9.773505210876465,0.047809213399887085,-0.07220014184713364
1761402169694328300,1.973328369140625,9.76632308959961,0.06097732484340668,-0.0793827474117279
1761402169704409000,1.9834091796875,9.768716812133789,0.0561889223754406,-0.08057985454797745
1761402169714486300,1.993486328125,9.761534690856934,0.05611410364508629,-0.08170213550329208
1761402169724564000,2.00356396484375,9.762731552124023,0.04900631681084633,-0.08888474106788635
1761402169734608100,2.013608154296875,9.759140014648438,0.04661211371421814,-0.08768763393163681
1761402169744708000,2.0237080078125,9.75704574584961,0.05147533491253853,-0.07826046645641327
1761402169754815000,2.03381494140625,9.760636329650879,0.05626374110579491,-0.08065467327833176
1761402169764895700,2.043895751953125,9.766622543334961,0.05386953800916672,-0.08065467327833176
1761402169774977000,2.05397705078125,9.77133560180664,0.05027823522686958,-0.08424597233533859
1761402169785031400,2.064031494140625,9.763031005859375,0.05386953800916672,-0.08065467327833176
1761402169795117000,2.074116943359375,9.7582426071167,0.06097732484340668,-0.07826046645641327
1761402169805185000,2.08418505859375,9.760636329650879,0.05506663769483566,-0.08065467327833176
1761402169815302400,2.094302490234375,9.77021312713623,0.05267243832349777,-0.06756138056516647
1761402169825366800,2.10436669921875,9.773505210876465,0.04661211371421814,-0.08297405391931534
1761402169835464200,2.114464111328125,9.766397476196289,0.05379471927881241,-0.07100304216146469
1761402169845546200,2.124546142578125,9.763928413391113,0.054991818964481354,-0.08170213550329208
1761402169855601000,2.134600830078125,9.756746292114258,0.04893149808049202,-0.08170213550329208
1761402169865682200,2.14468212890625,9.771111488342285,0.05379471927881241,-0.08536825329065323
1761402169875766300,2.154766357421875,9.763928413391113,0.04900631681084633,-0.08170213550329208
1761402169885869800,2.164869873046875,9.759140014648438,0.05259761959314346,-0.0900818407535553
1761402169895951600,2.17495166015625,9.762731552124023,0.05978022515773773,-0.0900818407535553
1761402169906032000,2.1850322265625,9.763928413391113,0.05850830301642418,-0.07811082899570465
1761402169916113400,2.195113525390625,9.765125274658203,0.06097732484340668,-0.08409633487462997
1761402169926194400,2.2051943359375,9.761609077453613,0.052522800862789154,-0.07100304216146469
1761402169936275700,2.215275634765625,9.763928413391113,0.0561889223754406,-0.08409633487462997
1761402169946357000,2.22535693359375,9.763928413391113,0.04421791434288025,-0.08297405391931534
1761402169956438000,2.23543798828125,9.753154754638672,0.052522800862789154,-0.08170213550329208
1761402169966519300,2.245519287109375,9.759140014648438,0.05132569745182991,-0.07811082899570465
1761402169976578800,2.255578857421875,9.761534690856934,0.054917000234127045,-0.08170213550329208
1761402169986660600,2.26566064453125,9.745523452758789,0.05992986261844635,-0.07713818550109863
1761402169996722000,2.275721923828125,9.766996383666992,0.0504278726875782,-0.08447042852640152
1761402170006844200,2.28584423828125,9.75741958618164,0.054019175469875336,-0.08319851011037827
1761402170016925200,2.29592529296875,9.75861644744873,0.04683656990528107,-0.09277531504631042
1761402170027005400,2.30600537109375,9.764601707458496,0.058807577937841415,-0.08798690885305405
1761402170037098500,2.316098388671875,9.765799522399902,0.058807577937841415,-0.07968202233314514
1761402170047141400,2.326141357421875,9.761011123657227,0.049230773001909256,-0.08319851011037827
1761402170057263000,2.33626318359375,9.765799522399902,0.05162497237324715,-0.08207622915506363
1761402170067307000,2.34630712890625,9.759663581848145,0.04676175117492676,-0.08312369138002396
1761402170077412600,2.35641259765625,9.766846656799316,0.044442370533943176,-0.07960720360279083
1761402170087493400,2.366493408203125,9.757344245910645,0.05753565952181816,-0.07713818550109863
1761402170097552400,2.376552490234375,9.754950523376465,0.05753565952181816,-0.07953238487243652
1761402170107655700,2.38665576171875,9.752555847167969,0.047958854585886,-0.07474398612976074
1761402170117736400,2.396736328125,9.76445198059082,0.056338559836149216,-0.08439560979604721
1761402170127818500,2.406818603515625,9.76086139678955,0.05155015364289284,-0.07960720360279083
1761402170137899300,2.416899169921875,9.76086139678955,0.05394435673952103,-0.08551789075136185
1761402170147955200,2.426955078125,9.757643699645996,0.05603928491473198,-0.08873510360717773
1761402170158058000,2.43705810546875,9.756521224975586,0.05364508181810379,-0.08394669741392136
1761402170168117800,2.44711767578125,9.763628959655762,0.04893149808049202,-0.08521861582994461
1761402170178249700,2.457249755859375,9.766098022460938,0.052447982132434845,-0.07564181089401245
1761402170188290300,2.467290283203125,9.766023635864258,0.040551792830228806,-0.08282441645860672
1761402170198386200,2.47738623046875,9.756521224975586,0.050053779035806656,-0.07915829122066498
1761402170208436200,2.487436279296875,9.755249977111816,0.057236384600400925,-0.09352350234985352
1761402170228626000,2.5076259765625,9.775899887084961,0.05259761959314346,-0.08057985454797745
1761402170238685700,2.517685791015625,9.753154754638672,0.054917000234127045,-0.08649053424596786
1761402170248792000,2.5277919921875,9.763928413391113,0.04900631681084633,-0.07579144835472107
1761402170258873300,2.537873291015625,9.756746292114258,0.050128597766160965,-0.08409633487462997
1761402170268933000,2.54793310546875,9.763928413391113,0.045415014028549194,-0.08409633487462997
1761402170279036000,2.558035888671875,9.762731552124023,0.04900631681084633,-0.08409633487462997
1761402170289090800,2.5680908203125,9.7675199508667,0.05858312174677849,-0.08177695423364639
1761402170299202600,2.57820263671875,9.774702072143555,0.05140051618218422,-0.07818564772605896
1761402170309257200,2.58825732421875,9.748366355895996,0.04893149808049202,-0.08521861582994461
1761402170319360800,2.59836083984375,9.760336875915527,0.04421791434288025,-0.08050503581762314
1761402170329442000,2.608442138671875,9.762731552124023,0.050203416496515274,-0.08050503581762314
1761402170339522800,2.618522705078125,9.760412216186523,0.05132569745182991,-0.07212532311677933
1761402170349603800,2.628603759765625,9.76632308959961,0.05259761959314346,-0.08417115360498428
1761402170359668000,2.63866796875,9.768716812133789,0.050203416496515274,-0.08417115360498428
1761402170369741300,2.6487412109375,9.751957893371582,0.052522800862789154,-0.08649053424596786
1761402170379846700,2.6588466796875,9.7675199508667,0.06097732484340668,-0.0793827474117279
1761402170389929500,2.668929443359375,9.754277229309082,0.05364508181810379,-0.08162731677293777
1761402170399974400,2.678974365234375,9.757793426513672,0.054917000234127045,-0.08402151614427567
1761402170410091800,2.689091796875,9.761384963989258,0.04893149808049202,-0.08641571551561356
1761402170420168700,2.699168701171875,9.764976501464844,0.054917000234127045,-0.08880992233753204
1761402170430251300,2.709251220703125,9.764976501464844,0.04893149808049202,-0.0769137293100357
1761402170440309200,2.719309326171875,9.761384963989258,0.052522800862789154,-0.08282441645860672
1761402170450391300,2.729391357421875,9.764976501464844,0.045340195298194885,-0.09718962758779526
1761402170460497400,2.739497314453125,9.77096176147461,0.05132569745182991,-0.08170213550329208
1761402170470578400,2.749578369140625,9.76445198059082,0.058732759207487106,-0.07960720360279083
1761402170480669200,2.759669189453125,9.76325511932373,0.05155015364289284,-0.08080431073904037
1761402170490731800,2.769731689453125,9.778817176818848,0.05521627515554428,-0.08439560979604721
1761402170500790500,2.77979052734375,9.76086139678955,0.05035305395722389,-0.07841010391712189
1761402170510903000,2.789903076171875,9.759663581848145,0.05274725705385208,-0.08072949200868607
1761402170520984000,2.799984130859375,9.76325511932373,0.05155015364289284,-0.08439560979604721
1761402170531040000,2.8100400390625,9.759663581848145,0.05753565952181816,-0.08072949200868607
1761402170541146400,2.820146484375,9.75973892211914,0.05514145642518997,-0.076015904545784
1761402170551223600,2.8302236328125,9.759439468383789,0.05147533491253853,-0.08065467327833176
1761402170561286000,2.840285888671875,9.761758804321289,0.03711012750864029,-0.08424597233533859
1761402170571390200,2.85039013671875,9.7582426071167,0.05386953800916672,-0.08304887264966965
1761402170581471700,2.8604716796875,9.755847930908203,0.05140051618218422,-0.07706336677074432
1761402170591511300,2.87051123046875,9.763031005859375,0.043095629662275314,-0.07586626708507538
1761402170601633500,2.880633544921875,9.75704574584961,0.05147533491253853,-0.08065467327833176
1761402170611711000,2.8907109375,9.764227867126465,0.05386953800916672,-0.07826046645641327
1761402170621774300,2.9007744140625,9.766622543334961,0.05746084079146385,-0.0818517729640007
1761402170631852000,2.91085205078125,9.76550006866455,0.047958854585886,-0.08072949200868607
1761402170641932800,2.920932861328125,9.76437759399414,0.04556465148925781,-0.07594108581542969
1761402170652040000,2.9310400390625,9.761908531188965,0.05155015364289284,-0.08551789075136185
1761402170662121200,2.941121337890625,9.76437759399414,0.05274725705385208,-0.07953238487243652
1761402170672193300,2.951193359375,9.759513854980469,0.04197334870696068,-0.08072949200868607
1761402170682260500,2.961260498046875,9.757120132446289,0.05746084079146385,-0.08664017170667648
1761402170692358000,2.97135791015625,9.761982917785645,0.04556465148925781,-0.07833528518676758
1761402170702445300,2.9814453125,9.764302253723145,0.05985504388809204,-0.08192659169435501
1761402170712526600,2.991526611328125,9.766622543334961,0.04908113554120064,-0.07945756614208221
1761402170722582300,3.001582275390625,9.761834144592285,0.05267243832349777,-0.08065467327833176
1761402170732688400,3.0116884765625,9.766622543334961,0.05027823522686958,-0.07706336677074432
1761402170742726700,3.0217265625,9.765350341796875,0.04908113554120064,-0.08664017170667648
1761402170752818200,3.031818115234375,9.764153480529785,0.05267243832349777,-0.08544307202100754
1761402170762932200,3.04193212890625,9.759439468383789,0.047884032130241394,-0.08065467327833176
1761402170773013200,3.05201318359375,9.765424728393555,0.05386953800916672,-0.08304887264966965
1761402170783094500,3.062094482421875,9.764153480529785,0.05147533491253853,-0.08544307202100754
1761402170793175600,3.072175537109375,9.769913673400879,0.0561889223754406,-0.08417115360498428
1761402170803252700,3.082252685546875,9.768716812133789,0.05379471927881241,-0.08895955979824066
1761402170813338000,3.092338134765625,9.762731552124023,0.05259761959314346,-0.08768763393163681
1761402170823419100,3.102419189453125,9.756746292114258,0.050128597766160965,-0.08409633487462997
1761402170833500000,3.1125,9.7675199508667,0.054991818964481354,-0.0793827474117279
1761402170843582200,3.122582275390625,9.756746292114258,0.047734394669532776,-0.07571662962436676
1761402170853662700,3.132662841796875,9.766397476196289,0.054991818964481354,-0.07100304216146469
1761402170863744000,3.142743896484375,9.774627685546875,0.04900631681084633,-0.0901566594839096
1761402170873825800,3.15282568359375,9.75973892211914,0.056338559836149216,-0.07721300423145294
1761402170883906300,3.16290625,9.753753662109375,0.056338559836149216,-0.07713818550109863
1761402170893987600,3.172987548828125,9.757269859313965,0.06232406198978424,-0.0843207910656929
1761402170904068600,3.183068603515625,9.768118858337402,0.058732759207487106,-0.07003039866685867
1761402170914149600,3.193149658203125,9.769240379333496,0.05753565952181816,-0.07960720360279083
1761402170924230700,3.203230712890625,9.76213264465332,0.05514145642518997,-0.076015904545784
1761402170934287000,3.213287109375,9.772831916809082,0.054019175469875336,-0.08439560979604721
1761402170944393700,3.223393798828125,9.75854206085205,0.05753565952181816,-0.07713818550109863
1761402170954459100,3.233459228515625,9.749638557434082,0.047734394669532776,-0.07811082899570465
1761402170964555800,3.2435556640625,9.760336875915527,0.06090250611305237,-0.08649053424596786
1761402170974637000,3.253636962890625,9.762731552124023,0.05140051618218422,-0.08649053424596786
1761402170984700200,3.2637001953125,9.756746292114258,0.0537199005484581,-0.0769137293100357
1761402170994799000,3.273799072265625,9.757943153381348,0.05132569745182991,-0.08289923518896103
1761402171004881000,3.283880859375,9.757943153381348,0.050128597766160965,-0.07811082899570465
1761402171014961400,3.29396142578125,9.757943153381348,0.04900631681084633,-0.09247604012489319
1761402171025042700,3.304042724609375,9.763928413391113,0.050203416496515274,-0.07818564772605896
1761402171035124000,3.3141240234375,9.76550006866455,0.05155015364289284,-0.08312369138002396
1761402171045180400,3.324180419921875,9.761908531188965,0.04915595427155495,-0.0950198769569397
1761402171055261700,3.33426171875,9.761982917785645,0.0586579404771328,-0.08192659169435501
1761402171065342200,3.34434228515625,9.759589195251465,0.06224924325942993,-0.08304887264966965
1761402171075423200,3.35442333984375,9.76437759399414,0.05035305395722389,-0.07953238487243652
1761402171085505000,3.364505126953125,9.757120132446289,0.05506663769483566,-0.08544307202100754
1761402171095586000,3.3745859375,9.76550006866455,0.04915595427155495,-0.0843207910656929
1761402171105676000,3.384676025390625,9.761908531188965,0.05394435673952103,-0.08551789075136185
1761402171115757300,3.39475732421875,9.754651069641113,0.05147533491253853,-0.08536825329065323
1761402171125841200,3.404841064453125,9.753454208374023,0.05858312174677849,-0.07818564772605896
1761402171135936300,3.414936279296875,9.758167266845703,0.05147533491253853,-0.09135375916957855
1761402171145994000,3.424993896484375,9.764153480529785,0.05267243832349777,-0.08903437852859497
1761402171156098300,3.435098388671875,9.75936508178711,0.04189852997660637,-0.08664017170667648
1761402171166179000,3.445178955078125,9.759439468383789,0.06097732484340668,-0.0818517729640007
1761402171176260600,3.455260498046875,9.77021312713623,0.05147533491253853,-0.07953238487243652
1761402171186341600,3.465341552734375,9.75704574584961,0.0561889223754406,-0.08304887264966965
1761402171196416300,3.475416259765625,9.754651069641113,0.04668693244457245,-0.07945756614208221
1761402171206510300,3.48551025390625,9.761834144592285,0.05386953800916672,-0.07466916739940643
1761402171216585200,3.495585205078125,9.77133560180664,0.04676175117492676,-0.08312369138002396
1761402171226666000,3.505666015625,9.7582426071167,0.05506663769483566,-0.07826046645641327
1761402171236747300,3.515747314453125,9.752257347106934,0.047809213399887085,-0.08177695423364639
1761402171246828800,3.525828857421875,9.766622543334961,0.05746084079146385,-0.07826046645641327
1761402171256909600,3.53590966796875,9.754651069641113,0.054991818964481354,-0.08177695423364639
1761402171266994000,3.545993896484375,9.776124000549316,0.05274725705385208,-0.08192659169435501
1761402171277068000,3.556068115234375,9.755773544311523,0.05386953800916672,-0.0901566594839096
1761402171287149300,3.5661494140625,9.771410942077637,0.05027823522686958,-0.07713818550109863
1761402171297234400,3.576234375,9.761834144592285,0.05267243832349777,-0.07466916739940643
1761402171307315500,3.5863154296875,9.766622543334961,0.04908113554120064,-0.07706336677074432
1761402171317393200,3.59639306640625,9.760636329650879,0.05386953800916672,-0.08424597233533859
1761402171327477800,3.606477783203125,9.76781940460205,0.05746084079146385,-0.08065467327833176
1761402171337559000,3.61655908203125,9.7582426071167,0.05267243832349777,-0.0818517729640007
1761402171347614200,3.6266142578125,9.764153480529785,0.05386953800916672,-0.0926256775856018
1761402171357721900,3.636721923828125,9.757943153381348,0.045415014028549194,-0.08409633487462997
1761402171367803000,3.646802978515625,9.753154754638672,0.050128597766160965,-0.08768763393163681
1761402171377858300,3.6568583984375,9.760336875915527,0.06090250611305237,-0.08409633487462997
1761402171387965400,3.66696533203125,9.754351615905762,0.05132569745182991,-0.08050503581762314
1761402171398051000,3.677051025390625,9.763928413391113,0.050203416496515274,-0.07698854804039001
1761402171408127500,3.68712744140625,9.757943153381348,0.04653729498386383,-0.07811082899570465
1761402171418208800,3.697208740234375,9.763928413391113,0.05379471927881241,-0.08050503581762314
1761402171428290000,3.7072900390625,9.760336875915527,0.047809213399887085,-0.08050503581762314
1761402171438348000,3.71734814453125,9.756746292114258,0.057311203330755234,-0.08170213550329208
1761402171448452900,3.727452880859375,9.760412216186523,0.05850830301642418,-0.07451952993869781
1761402171458533400,3.737533447265625,9.761534690856934,0.04661211371421814,-0.08170213550329208
1761402171468614400,3.747614501953125,9.760336875915527,0.052522800862789154,-0.08409633487462997
1761402171478695200,3.757695068359375,9.762731552124023,0.05259761959314346,-0.0793079286813736
1761402171488776400,3.7677763671875,9.765125274658203,0.04900631681084633,-0.08888474106788635
1761402171498858000,3.77785791015625,9.763928413391113,0.0561889223754406,-0.08649053424596786
1761402171508935000,3.787934814453125,9.760336875915527,0.047809213399887085,-0.08649053424596786
1761402171519020500,3.7980205078125,9.76168441772461,0.04900631681084633,-0.07698854804039001
1761402171529076500,3.808076416015625,9.76168441772461,0.05259761959314346,-0.07818564772605896
1761402171539182600,3.8181826171875,9.7628812789917,0.04661211371421814,-0.08297405391931534
1761402171549264000,3.828263916015625,9.753304481506348,0.04900631681084633,-0.08057985454797745
1761402171559319800,3.83831982421875,9.765275001525879,0.05738602206110954,-0.07459434866905212
1761402171569422300,3.84842236328125,9.756896018981934,0.050203416496515274,-0.07818564772605896
1761402171579507200,3.858507080078125,9.752107620239258,0.0561889223754406,-0.0793827474117279
1761402171589589000,3.868589111328125,9.756896018981934,0.050203416496515274,-0.08656535297632217
1761402171599669500,3.87866943359375,9.767370223999023,0.0537199005484581,-0.08529343456029892
1761402171609750800,3.888750732421875,9.757793426513672,0.05132569745182991,-0.08282441645860672
1761402171619831800,3.898831787109375,9.758990287780762,0.0537199005484581,-0.08162731677293777
1761402171629925600,3.908925537109375,9.761384963989258,0.050128597766160965,-0.08282441645860672
1761402171639990800,3.91899072265625,9.762581825256348,0.05132569745182991,-0.0793079286813736
1761402171650075400,3.929075439453125,9.760188102722168,0.047734394669532776,-0.08043020963668823
1761402171660156400,3.939156494140625,9.756596565246582,0.0537199005484581,-0.08521861582994461
1761402171670237400,3.949237548828125,9.760188102722168,0.05611410364508629,-0.08641571551561356
1761402171680319200,3.9593193359375,9.757793426513672,0.05132569745182991,-0.08402151614427567
1761402171690375000,3.969375,9.766173362731934,0.0537199005484581,-0.08170213550329208
1761402171700477400,3.9794775390625,9.759065628051758,0.0537199005484581,-0.07923310995101929
1761402171710562300,3.989562255859375,9.757868766784668,0.06082768738269806,-0.08162731677293777
1761402171720644000,3.99964404296875,9.754277229309082,0.054842181503772736,-0.08162731677293777
1761402171730724900,4.009724853515625,9.7721586227417,0.04421791434288025,-0.08409633487462997
1761402171740806100,4.01980615234375,9.7721586227417,0.05132569745182991,-0.07811082899570465
1761402171750887400,4.029887451171875,9.760188102722168,0.04653729498386383,-0.08043020963668823
1761402171760933600,4.03993359375,9.756896018981934,0.04900631681084633,-0.07579144835472107
1761402171771050200,4.05005029296875,9.76168441772461,0.05978022515773773,-0.08417115360498428
1761402171781131000,4.060131103515625,9.758092880249023,0.050203416496515274,-0.0793827474117279
1761402171791215900,4.0702158203125,9.7628812789917,0.054991818964481354,-0.08297405391931534
1761402171801293000,4.08029296875,9.758092880249023,0.045415014028549194,-0.08656535297632217
1761402171811374000,4.0903740234375,9.753304481506348,0.047809213399887085,-0.08297405391931534
1761402171821455400,4.100455322265625,9.765275001525879,0.04900631681084633,-0.0793827474117279
1761402171831532800,4.11053271484375,9.76168441772461,0.05140051618218422,-0.07698854804039001
1761402171841617700,4.12061767578125,9.760711669921875,0.04197334870696068,-0.08312369138002396
1761402171851699000,4.130698974609375,9.76789379119873,0.04915595427155495,-0.08551789075136185
1761402171861756200,4.140756103515625,9.7536039352417,0.05027823522686958,-0.07826046645641327
1761402171871861500,4.150861572265625,9.754800796508789,0.047884032130241394,-0.07474398612976074
1761402171881942800,4.16094287109375,9.76789379119873,0.056338559836149216,-0.08072949200868607
1761402171892020200,4.171020263671875,9.759589195251465,0.05386953800916672,-0.08072949200868607
1761402171902080500,4.18108056640625,9.764302253723145,0.05394435673952103,-0.0843207910656929
1761402171912186400,4.191186279296875,9.753528594970703,0.05746084079146385,-0.08783727139234543
1761402171922267600,4.201267578125,9.757943153381348,0.054917000234127045,-0.07811082899570465
1761402171932323300,4.2113232421875,9.761534690856934,0.05379471927881241,-0.08289923518896103
1761402171942430000,4.221429931640625,9.761534690856934,0.054917000234127045,-0.0769137293100357
1761402171952510500,4.231510498046875,9.754351615905762,0.05850830301642418,-0.08768763393163681
1761402171962587600,4.241587646484375,9.765125274658203,0.05379471927881241,-0.07698854804039001
1761402171972672800,4.2516728515625,9.761534690856934,0.05379471927881241,-0.08170213550329208
1761402171982754000,4.261754150390625,9.769913673400879,0.05738602206110954,-0.07579144835472107
1761402171992835300,4.27183544921875,9.76632308959961,0.045415014028549194,-0.08177695423364639
1761402172002916400,4.281916259765625,9.763031005859375,0.05147533491253853,-0.07945756614208221
1761402172012997600,4.29199755859375,9.766547203063965,0.05027823522686958,-0.09023147821426392
1761402172023074600,4.302074462890625,9.764227867126465,0.040701430290937424,-0.08065467327833176
1761402172033160000,4.312159912109375,9.761834144592285,0.05626374110579491,-0.08544307202100754
1761402172043242000,4.322241943359375,9.752257347106934,0.04900631681084633,-0.08895955979824066
1761402172053322200,4.332322265625,9.764227867126465,0.05386953800916672,-0.08424597233533859
1761402172063378700,4.342378662109375,9.76781940460205,0.0586579404771328,-0.0818517729640007
1761402172073484300,4.352484375,9.751059532165527,0.0561889223754406,-0.07818564772605896
1761402172083566300,4.36256640625,9.760636329650879,0.05027823522686958,-0.08424597233533859
1761402172093646800,4.372646728515625,9.755847930908203,0.047884032130241394,-0.08065467327833176
1761402172103728000,4.38272802734375,9.766622543334961,0.0586579404771328,-0.08424597233533859
1761402172113809200,4.39280908203125,9.754576683044434,0.047884032130241394,-0.0901566594839096
1761402172123890700,4.402890625,9.7582426071167,0.04429273307323456,-0.07227496057748795
1761402172133971700,4.4129716796875,9.7582426071167,0.05626374110579491,-0.08783727139234543
1761402172144053500,4.423053466796875,9.761758804321289,0.05147533491253853,-0.08783727139234543
1761402172154134300,4.43313427734375,9.759439468383789,0.0454898327589035,-0.07706336677074432
1761402172164215300,4.44321533203125,9.754351615905762,0.06329670548439026,-0.09120412170886993
1761402172174296600,4.453296630859375,9.762731552124023,0.05140051618218422,-0.08888474106788635
1761402172184377600,4.463377685546875,9.769913673400879,0.05140051618218422,-0.08417115360498428
1761402172194441000,4.47344091796875,9.749638557434082,0.05850830301642418,-0.07811082899570465
1761402172204540000,4.483539794921875,9.757943153381348,0.050203416496515274,-0.09127894043922424
1761402172214621400,4.493621337890625,9.752032279968262,0.05132569745182991,-0.0769137293100357
1761402172224678400,4.503678466796875,9.761534690856934,0.047809213399887085,-0.07571662962436676
1761402172234783200,4.513783203125,9.759140014648438,0.05850830301642418,-0.08050503581762314
1761402172244839700,4.523839599609375,9.76632308959961,0.05858312174677849,-0.08170213550329208
1761402172254946000,4.533946044921875,9.754426956176758,0.04414309561252594,-0.07332243025302887
1761402172265001200,4.544001220703125,9.757943153381348,0.052522800862789154,-0.07811082899570465
1761402172275108000,4.554108154296875,9.76400375366211,0.05140051618218422,-0.06980594247579575
1761402172285163800,4.564163818359375,9.765125274658203,0.05140051618218422,-0.0793827474117279
1761402172295270100,4.574270263671875,9.762731552124023,0.05140051618218422,-0.09247604012489319
1761402172305351700,4.5843515625,9.759140014648438,0.0537199005484581,-0.08289923518896103
1761402172315411700,4.59441162109375,9.754351615905762,0.0537199005484581,-0.08409633487462997
1761402172325514000,4.604513916015625,9.766622543334961,0.05027823522686958,-0.07706336677074432
1761402172335595000,4.614594970703125,9.764227867126465,0.0454898327589035,-0.07826046645641327
1761402172345677000,4.624677001953125,9.764227867126465,0.05386953800916672,-0.08304887264966965
1761402172355757600,4.634757568359375,9.759439468383789,0.04908113554120064,-0.08424597233533859
1761402172365838600,4.644838623046875,9.767744064331055,0.047884032130241394,-0.08304887264966965
1761402172375919900,4.654919921875,9.760636329650879,0.05626374110579491,-0.08544307202100754
1761402172386001000,4.6650009765625,9.761834144592285,0.05027823522686958,-0.08304887264966965
1761402172396082000,4.67508203125,9.764227867126465,0.0586579404771328,-0.07706336677074432
1761402172406163200,4.6851630859375,9.765424728393555,0.05626374110579491,-0.07826046645641327
1761402172416244500,4.695244384765625,9.751059532165527,0.05738602206110954,-0.08417115360498428
1761402172426325800,4.70532568359375,9.761758804321289,0.04668693244457245,-0.08664017170667648
1761402172436406800,4.71540673828125,9.765424728393555,0.05626374110579491,-0.07826046645641327
1761402172446488600,4.725488525390625,9.766622543334961,0.05386953800916672,-0.0818517729640007
1761402172456569000,4.735569091796875,9.764227867126465,0.05506663769483566,-0.08304887264966965
1761402172466651000,4.74565087890625,9.752257347106934,0.05140051618218422,-0.08297405391931534
1761402172476731400,4.7557314453125,9.7582426071167,0.05027823522686958,-0.08424597233533859
1761402172486812400,4.7658125,9.761384963989258,0.054917000234127045,-0.08402151614427567
1761402172496893700,4.775893798828125,9.763778686523438,0.05132569745182991,-0.08289923518896103
1761402172506976800,4.785976806640625,9.763854026794434,0.0537199005484581,-0.07571662962436676
1761402172517060000,4.79606005859375,9.761384963989258,0.052522800862789154,-0.08282441645860672
1761402172527133700,4.8061337890625,9.767370223999023,0.04893149808049202,-0.08170213550329208
1761402172537216800,4.816216796875,9.757793426513672,0.054917000234127045,-0.08880992233753204
1761402172547297000,4.826297119140625,9.761384963989258,0.05132569745182991,-0.08282441645860672
1761402172557381400,4.83638134765625,9.757868766784668,0.0537199005484581,-0.07803601026535034
1761402172567462400,4.84646240234375,9.760336875915527,0.0537199005484581,-0.08289923518896103
1761402172577513500,4.856513427734375,9.760336875915527,0.05611410364508629,-0.0793079286813736
1761402172587624700,4.866624755859375,9.761609077453613,0.047809213399887085,-0.06980594247579575
1761402172597702100,4.8767021484375,9.757943153381348,0.04893149808049202,-0.08050503581762314
1761402172607761700,4.88676171875,9.765125274658203,0.05858312174677849,-0.08529343456029892
1761402172617868300,4.896868408203125,9.748440742492676,0.06322188675403595,-0.08162731677293777
1761402172627909000,4.9069091796875,9.761534690856934,0.04900631681084633,-0.08529343456029892
1761402172638030000,4.917030029296875,9.772308349609375,0.05978022515773773,-0.08297405391931534
1761402172648111900,4.92711181640625,9.764227867126465,0.0586579404771328,-0.07586626708507538
1761402172658188500,4.9371884765625,9.755847930908203,0.05858312174677849,-0.08297405391931534
1761402172668273400,4.9472734375,9.75704574584961,0.05506663769483566,-0.0818517729640007
1761402172678355200,4.957355224609375,9.760636329650879,0.047884032130241394,-0.08304887264966965
1761402172688436500,4.9674365234375,9.764153480529785,0.05386953800916672,-0.09142857789993286
1761402172698517800,4.977517822265625,9.754651069641113,0.0561889223754406,-0.08417115360498428
1761402172708599000,4.98759912109375,9.752257347106934,0.047809213399887085,-0.08297405391931534
1761402172718673000,4.9976728515625,9.76901626586914,0.05027823522686958,-0.0818517729640007
1761402172728760800,5.0077607421875,9.764227867126465,0.05267243832349777,-0.08424597233533859
1761402172738842400,5.01784228515625,9.754651069641113,0.04668693244457245,-0.07826046645641327
1761402172748898000,5.02789794921875,9.763031005859375,0.04908113554120064,-0.07826046645641327
1761402172759005000,5.0380048828125,9.75704574584961,0.05626374110579491,-0.08544307202100754
1761402172769085400,5.04808544921875,9.760636329650879,0.05746084079146385,-0.07826046645641327
1761402172779167000,5.0581669921875,9.755847930908203,0.05379471927881241,-0.0818517729640007
1761402172789244000,5.068243896484375,9.761834144592285,0.05147533491253853,-0.07826046645641327
1761402172799329000,5.0783291015625,9.762955665588379,0.04429273307323456,-0.08424597233533859
1761402172809410600,5.08841064453125,9.757943153381348,0.05132569745182991,-0.0793079286813736
1761402172819491000,5.098490966796875,9.760336875915527,0.050203416496515274,-0.0793079286813736
1761402172829572600,5.108572509765625,9.759140014648438,0.050128597766160965,-0.08170213550329208
1761402172839654100,5.118654052734375,9.751957893371582,0.054917000234127045,-0.09359832108020782
1761402172849731300,5.1287314453125,9.761534690856934,0.054917000234127045,-0.07571662962436676
1761402172859816000,5.13881591796875,9.760336875915527,0.05379471927881241,-0.0900818407535553
1761402172869897200,5.148897216796875,9.755548477172852,0.057311203330755234,-0.08409633487462997
1761402172879978500,5.158978515625,9.7675199508667,0.05738602206110954,-0.08417115360498428
1761402172890025500,5.169025390625,9.756072998046875,0.05035305395722389,-0.0843207910656929
1761402172900140300,5.179140380859375,9.770438194274902,0.04803367331624031,-0.08319851011037827
1761402172910221600,5.1892216796875,9.750086784362793,0.04915595427155495,-0.0843207910656929
1761402172920298800,5.199298828125,9.751358985900879,0.05035305395722389,-0.07474398612976074
1761402172930384000,5.2093837890625,9.754875183105469,0.04676175117492676,-0.08551789075136185
1761402172940465200,5.219465087890625,9.76086139678955,0.05274725705385208,-0.08671499043703079
1761402172950546400,5.22954638671875,9.758466720581055,0.05394435673952103,-0.08192659169435501
1761402172960627500,5.23962744140625,9.753678321838379,0.05035305395722389,-0.08072949200868607
1761402172970709200,5.249709228515625,9.76669692993164,0.047958854585886,-0.08671499043703079
1761402172980786200,5.2597861328125,9.755997657775879,0.05506663769483566,-0.08424597233533859
1761402172990871800,5.269871826171875,9.76318073272705,0.05267243832349777,-0.07594108581542969
1761402173000953000,5.279953125,9.758316993713379,0.04676175117492676,-0.09023147821426392
1761402173011033900,5.290033935546875,9.763105392456055,0.05274725705385208,-0.08910919725894928
1761402173021114600,5.300114501953125,9.76437759399414,0.05274725705385208,-0.07833528518676758
1761402173031195600,5.310195556640625,9.761982917785645,0.05155015364289284,-0.08072949200868607
1761402173041272600,5.3202724609375,9.758392333984375,0.04317044839262962,-0.07833528518676758
1761402173051358000,5.33035791015625,9.755847930908203,0.054991818964481354,-0.0818517729640007
1761402173061438700,5.340438720703125,9.767744064331055,0.05027823522686958,-0.08544307202100754
1761402173071520300,5.350520263671875,9.75704574584961,0.05267243832349777,-0.0818517729640007
1761402173081565700,5.360565673828125,9.753454208374023,0.0454898327589035,-0.07706336677074432
1761402173091682600,5.3706826171875,9.743877410888672,0.05379471927881241,-0.08297405391931534
1761402173101764000,5.38076416015625,9.759439468383789,0.05267243832349777,-0.08304887264966965
1761402173111841000,5.390841064453125,9.754651069641113,0.047884032130241394,-0.07826046645641327
1761402173121926400,5.400926513671875,9.761758804321289,0.05506663769483566,-0.08903437852859497
1761402173132007400,5.41100732421875,9.76789379119873,0.04556465148925781,-0.07713818550109863
1761402173142063400,5.4210634765625,9.757120132446289,0.06464344263076782,-0.08903437852859497
1761402173152144600,5.43114453125,9.760786056518555,0.04556465148925781,-0.08072949200868607
1761402173162251000,5.4412509765625,9.751209259033203,0.05027823522686958,-0.08424597233533859
1761402173172328700,5.45132861328125,9.754800796508789,0.05746084079146385,-0.08424597233533859
1761402173182391800,5.461391845703125,9.758316993713379,0.05267243832349777,-0.09382277727127075
1761402173192494600,5.47149462890625,9.752406120300293,0.0586579404771328,-0.07347206771373749
1761402173202576100,5.481576171875,9.761908531188965,0.05394435673952103,-0.08551789075136185
1761402173212657400,5.491657470703125,9.769913673400879,0.06097732484340668,-0.0793827474117279
1761402173222738200,5.50173828125,9.763928413391113,0.054991818964481354,-0.08050503581762314
1761402173232819000,5.51181884765625,9.761534690856934,0.05970540642738342,-0.08289923518896103
1761402173242874600,5.52187451171875,9.757943153381348,0.054917000234127045,-0.08050503581762314
1761402173252982000,5.53198193359375,9.76632308959961,0.05379471927881241,-0.09127894043922424
1761402173263063000,5.54206298828125,9.750835418701172,0.054917000234127045,-0.0769137293100357
1761402173273144300,5.552144287109375,9.765125274658203,0.05259761959314346,-0.0793827474117279
1761402173283225000,5.56222509765625,9.763928413391113,0.05259761959314346,-0.08289923518896103
1761402173293289000,5.5722890625,9.765125274658203,0.045415014028549194,-0.08888474106788635
1761402173303388000,5.582387939453125,9.7675199508667,0.050203416496515274,-0.07579144835472107
1761402173313469000,5.592468994140625,9.768716812133789,0.047809213399887085,-0.07818564772605896
1761402173323524400,5.6025244140625,9.7675199508667,0.045415014028549194,-0.08656535297632217
1761402173333631000,5.612630859375,9.755548477172852,0.054917000234127045,-0.07811082899570465
1761402173343712500,5.62271240234375,9.763928413391113,0.04900631681084633,-0.07459434866905212
1761402173353793300,5.632793212890625,9.762731552124023,0.045415014028549194,-0.08050503581762314
1761402173373932300,5.652932373046875,9.765424728393555,0.06224924325942993,-0.08424597233533859
1761402173384036600,5.66303662109375,9.760636329650879,0.05506663769483566,-0.08065467327833176
1761402173394118000,5.673117919921875,9.760636329650879,0.04429273307323456,-0.0818517729640007
1761402173404173300,5.68317333984375,9.7582426071167,0.0454898327589035,-0.08664017170667648
1761402173414268000,5.693267822265625,9.760636329650879,0.05506663769483566,-0.0818517729640007
1761402173424361200,5.703361328125,9.7582426071167,0.05267243832349777,-0.0818517729640007
1761402173434420500,5.71342041015625,9.760636329650879,0.04668693244457245,-0.07826046645641327
1761402173444515000,5.72351513671875,9.759439468383789,0.04429273307323456,-0.0818517729640007
1761402173454604800,5.733604736328125,9.761534690856934,0.0561889223754406,-0.08768763393163681
1761402173464685800,5.743685791015625,9.751957893371582,0.054917000234127045,-0.08409633487462997
1761402173474767000,5.75376708984375,9.757943153381348,0.047809213399887085,-0.08888474106788635
1761402173484848400,5.763848388671875,9.761534690856934,0.054991818964481354,-0.08409633487462997
1761402173494929400,5.773929443359375,9.765125274658203,0.05738602206110954,-0.08170213550329208
1761402173505010400,5.784010498046875,9.760412216186523,0.05132569745182991,-0.07332243025302887
1761402173515092000,5.794092041015625,9.768716812133789,0.05379471927881241,-0.08177695423364639
1761402173525173200,5.80417333984375,9.756820678710938,0.057311203330755234,-0.0769137293100357
1761402173535254300,5.814254150390625,9.756670951843262,0.052522800862789154,-0.08043020963668823
1761402173545336300,5.82433642578125,9.757868766784668,0.047734394669532776,-0.07564181089401245
1761402173555416000,5.834416015625,9.761384963989258,0.05611410364508629,-0.08402151614427567
1761402173565497600,5.84449755859375,9.760188102722168,0.0537199005484581,-0.08043020963668823
1761402173575579000,5.854578857421875,9.753080368041992,0.04885667935013771,-0.08043020963668823
1761402173585660200,5.86466015625,9.750685691833496,0.054842181503772736,-0.08162731677293777
1761402173595741200,5.8747412109375,9.751808166503906,0.054842181503772736,-0.0876128152012825
1761402173605822200,5.884822265625,9.751882553100586,0.05603928491473198,-0.0768389105796814
1761402173615903500,5.894903564453125,9.757943153381348,0.052522800862789154,-0.08170213550329208
1761402173625984500,5.904984619140625,9.7675199508667,0.04661211371421814,-0.0793827474117279
1761402173636065800,5.915065673828125,9.762731552124023,0.05140051618218422,-0.08529343456029892
1761402173646147600,5.925147705078125,9.760336875915527,0.052522800862789154,-0.08409633487462997
1761402173656228400,5.935228271484375,9.7675199508667,0.04661211371421814,-0.08417115360498428
1761402173666309400,5.945309326171875,9.754351615905762,0.04653729498386383,-0.08529343456029892
1761402173676390400,5.955390380859375,9.763928413391113,0.05858312174677849,-0.08649053424596786
1761402173686472000,5.965471923828125,9.756746292114258,0.052522800862789154,-0.09367313981056213
1761402173696553000,5.975552978515625,9.751059532165527,0.050203416496515274,-0.08177695423364639
1761402173706627800,5.9856279296875,9.7582426071167,0.05027823522686958,-0.07706336677074432
1761402173716715300,5.99571533203125,9.753454208374023,0.04908113554120064,-0.08656535297632217
1761402173726796300,6.00579638671875,9.75704574584961,0.05027823522686958,-0.07706336677074432
1761402173736877600,6.015877685546875,9.766622543334961,0.05626374110579491,-0.07826046645641327
1761402173746933800,6.025933837890625,9.764227867126465,0.0454898327589035,-0.07826046645641327
1761402173757038000,6.0360380859375,9.7582426071167,0.05267243832349777,-0.0818517729640007
1761402173767117600,6.04611767578125,9.7605619430542,0.04668693244457245,-0.09142857789993286
1761402173777200000,6.0562001953125,9.763105392456055,0.05514145642518997,-0.08551789075136185
1761402173787283200,6.066283203125,9.758392333984375,0.05027823522686958,-0.07953238487243652
1761402173797334500,6.07633447265625,9.761982917785645,0.05035305395722389,-0.07833528518676758
1761402173807442200,6.086442138671875,9.76557445526123,0.04676175117492676,-0.07713818550109863
1761402173817505000,6.096505126953125,9.764302253723145,0.05274725705385208,-0.08312369138002396
1761402173827608300,6.1066083984375,9.759589195251465,0.05147533491253853,-0.07234977930784225
1761402173837689000,6.116689208984375,9.76669692993164,0.056338559836149216,-0.08791209012269974
1761402173847770400,6.126770263671875,9.758392333984375,0.047884032130241394,-0.08072949200868607
1761402173857851600,6.1368515625,9.760486602783203,0.050203416496515274,-0.07818564772605896
1761402173867933000,6.146932861328125,9.754501342773438,0.05140051618218422,-0.07818564772605896
1761402173878010400,6.15701025390625,9.760486602783203,0.05379471927881241,-0.08177695423364639
1761402173888094700,6.1670947265625,9.758092880249023,0.06217442452907562,-0.08297405391931534
1761402173898176500,6.177176513671875,9.76168441772461,0.050203416496515274,-0.08057985454797745
1761402173908219100,6.18721923828125,9.764078140258789,0.05140051618218422,-0.08057985454797745
1761402173918338600,6.197338623046875,9.764078140258789,0.054991818964481354,-0.08536825329065323
1761402173928419800,6.207419921875,9.7628812789917,0.050203416496515274,-0.08656535297632217
1761402173938475500,6.2174755859375,9.74821662902832,0.05364508181810379,-0.08641571551561356
1761402173948582100,6.22758203125,9.757793426513672,0.0537199005484581,-0.08162731677293777
1761402173958662000,6.237661865234375,9.756596565246582,0.050128597766160965,-0.08162731677293777
1761402173968744700,6.24774462890625,9.763778686523438,0.05132569745182991,-0.08641571551561356
1761402173978825500,6.257825439453125,9.761384963989258,0.0537199005484581,-0.08402151614427567
1761402173988906500,6.267906494140625,9.762581825256348,0.05970540642738342,-0.08402151614427567
1761402173998984400,6.277984375,9.761384963989258,0.05132569745182991,-0.08162731677293777
1761402174009068800,6.28806884765625,9.756596565246582,0.050128597766160965,-0.08282441645860672
1761402174019150600,6.298150634765625,9.75704574584961,0.04908113554120064,-0.08065467327833176
1761402174029231400,6.3082314453125,9.760636329650879,0.0586579404771328,-0.07945756614208221
1761402174039287300,6.318287353515625,9.77021312713623,0.04908113554120064,-0.07713818550109863
1761402174049393700,6.3283935546875,9.755847930908203,0.047884032130241394,-0.07945756614208221
1761402174059474700,6.338474609375,9.767744064331055,0.04668693244457245,-0.08544307202100754
1761402174069552000,6.34855224609375,9.754651069641113,0.054991818964481354,-0.07347206771373749
1761402174079637200,6.35863720703125,9.759439468383789,0.05626374110579491,-0.08304887264966965
1761402174089718300,6.36871826171875,9.760636329650879,0.05386953800916672,-0.07706336677074432
1761402174099799800,6.3787998046875,9.759439468383789,0.047884032130241394,-0.08304887264966965
1761402174109855700,6.388855712890625,9.755847930908203,0.05267243832349777,-0.0818517729640007
1761402174119962400,6.39896240234375,9.765350341796875,0.05626374110579491,-0.08544307202100754
1761402174130039300,6.409039306640625,9.75704574584961,0.05027823522686958,-0.07945756614208221
1761402174140106000,6.41910595703125,9.766547203063965,0.061052143573760986,-0.08783727139234543
1761402174150205000,6.429204833984375,9.755847930908203,0.05386953800916672,-0.08536825329065323
1761402174160261400,6.439261474609375,9.761834144592285,0.0586579404771328,-0.08304887264966965
1761402174170368300,6.4493681640625,9.752257347106934,0.050203416496515274,-0.08536825329065323
1761402174180423700,6.459423583984375,9.7675199508667,0.05738602206110954,-0.0793827474117279
1761402174190530300,6.4695302734375,9.756746292114258,0.045340195298194885,-0.08289923518896103
1761402174200607000,6.47960693359375,9.756746292114258,0.05132569745182991,-0.08888474106788635
1761402174210692600,6.489692626953125,9.763928413391113,0.06090250611305237,-0.07571662962436676
1761402174220774100,6.499774169921875,9.761534690856934,0.05850830301642418,-0.08050503581762314
1761402174230854700,6.509854736328125,9.757943153381348,0.06329670548439026,-0.08170213550329208
1761402174240936000,6.51993603515625,9.763928413391113,0.050203416496515274,-0.07698854804039001
1761402174251002600,6.530002685546875,9.762731552124023,0.05379471927881241,-0.08050503581762314
1761402174261094000,6.540093994140625,9.75854206085205,0.05155015364289284,-0.06643909960985184
1761402174271179500,6.550179443359375,9.76205825805664,0.04915595427155495,-0.08559270948171616
1761402174281237800,6.56023779296875,9.747767448425293,0.047884032130241394,-0.07953238487243652
1761402174291316200,6.570316162109375,9.76325511932373,0.05514145642518997,-0.08791209012269974
1761402174301400800,6.58040087890625,9.765649795532227,0.04915595427155495,-0.07960720360279083
1761402174311479800,6.590479736328125,9.76205825805664,0.05753565952181816,-0.08080431073904037
1761402174321559800,6.600559814453125,9.752555847167969,0.05394435673952103,-0.08072949200868607
1761402174331641000,6.61064111328125,9.769240379333496,0.056338559836149216,-0.08439560979604721
1761402174341747200,6.620747314453125,9.7559232711792,0.05267243832349777,-0.08903437852859497
1761402174351828200,6.630828125,9.754725456237793,0.05267243832349777,-0.08903437852859497
1761402174361909800,6.64090966796875,9.76677131652832,0.05035305395722389,-0.07833528518676758
1761402174371990800,6.65099072265625,9.776273727416992,0.04563947021961212,-0.08200141042470932
1761402174382072300,6.661072265625,9.761908531188965,0.05746084079146385,-0.08910919725894928
1761402174392149000,6.67114892578125,9.753528594970703,0.04908113554120064,-0.09142857789993286
1761402174402234400,6.681234375,9.760711669921875,0.05985504388809204,-0.08903437852859497
1761402174412315400,6.6913154296875,9.76437759399414,0.05274725705385208,-0.07234977930784225
1761402174422396700,6.701396728515625,9.759439468383789,0.05506663769483566,-0.0818517729640007
1761402174432478000,6.71147802734375,9.761834144592285,0.04668693244457245,-0.08304887264966965
1761402174442572800,6.72157275390625,9.765424728393555,0.061052143573760986,-0.07347206771373749
1761402174452636200,6.73163623046875,9.749862670898438,0.050203416496515274,-0.07459434866905212
1761402174462721300,6.74172119140625,9.75704574584961,0.05506663769483566,-0.08895955979824066
1761402174472802800,6.751802734375,9.75704574584961,0.043095629662275314,-0.0818517729640007
1761402174482884400,6.76188427734375,9.761834144592285,0.05506663769483566,-0.08544307202100754
1761402174492939800,6.771939697265625,9.761834144592285,0.047884032130241394,-0.07826046645641327
1761402174503046000,6.7820458984375,9.763105392456055,0.05394435673952103,-0.08551789075136185
1761402174513127200,6.792127197265625,9.760786056518555,0.05626374110579491,-0.08072949200868607
1761402174523183600,6.80218359375,9.752406120300293,0.06464344263076782,-0.07945756614208221
1761402174533289500,6.81228955078125,9.761908531188965,0.05267243832349777,-0.08192659169435501
1761402174543371300,6.822371337890625,9.760786056518555,0.05746084079146385,-0.07713818550109863
1761402174553430800,6.8324306640625,9.758316993713379,0.047884032130241394,-0.08312369138002396
1761402174563533000,6.842532958984375,9.76669692993164,0.05274725705385208,-0.0843207910656929
1761402174573614300,6.8526142578125,9.761908531188965,0.05035305395722389,-0.08192659169435501
1761402174583696000,6.86269580078125,9.761908531188965,0.05267243832349777,-0.08192659169435501
1761402174593776600,6.872776611328125,9.763105392456055,0.047958854585886,-0.08192659169435501
1761402174603858000,6.88285791015625,9.757194519042969,0.04197334870696068,-0.08072949200868607
1761402174613939200,6.892939208984375,9.760711669921875,0.05386953800916672,-0.08312369138002396
1761402174624019700,6.903019775390625,9.754725456237793,0.0454898327589035,-0.08783727139234543
1761402174634066400,6.91306640625,9.760711669921875,0.04556465148925781,-0.08910919725894928
1761402174644182800,6.923182861328125,9.759589195251465,0.04908113554120064,-0.07953238487243652
1761402174654263300,6.93326318359375,9.76437759399414,0.05155015364289284,-0.07713818550109863
1761402174664356400,6.9433564453125,9.765424728393555,0.05386953800916672,-0.07347206771373749
1761402174674425900,6.95342578125,9.755847930908203,0.05267243832349777,-0.08304887264966965
1761402174684507100,6.963507080078125,9.7582426071167,0.047884032130241394,-0.0818517729640007
1761402174694588400,6.97358837890625,9.764153480529785,0.047884032130241394,-0.08903437852859497
1761402174704669200,6.983669189453125,9.75704574584961,0.05738602206110954,-0.08065467327833176
1761402174714751000,6.9937509765625,9.75704574584961,0.04668693244457245,-0.08544307202100754
1761402174724831500,7.00383154296875,9.759439468383789,0.05027823522686958,-0.08424597233533859
1761402174734912800,7.013912841796875,9.77013874053955,0.05386953800916672,-0.08783727139234543
1761402174744995000,7.0239951171875,9.757943153381348,0.05970540642738342,-0.07811082899570465
1761402174755075300,7.034075439453125,9.758017539978027,0.054917000234127045,-0.07451952993869781
1761402174765156600,7.044156494140625,9.759215354919434,0.050128597766160965,-0.07092822343111038
1761402174775205000,7.054205078125,9.76632308959961,0.04661211371421814,-0.08177695423364639
1761402174785319200,7.064319091796875,9.761534690856934,0.057311203330755234,-0.08649053424596786
1761402174795399700,7.074399658203125,9.762731552124023,0.05259761959314346,-0.08050503581762314
1761402174805481200,7.084481201171875,9.763928413391113,0.054991818964481354,-0.07459434866905212
1761402174815562500,7.0945625,9.762731552124023,0.04661211371421814,-0.08409633487462997
1761402174825643500,7.1046435546875,9.742305755615234,0.054842181503772736,-0.07915829122066498
1761402174835724500,7.114724609375,9.76976490020752,0.04893149808049202,-0.08050503581762314
1761402174845806600,7.124806640625,9.760262489318848,0.050128597766160965,-0.07571662962436676
1761402174855887000,7.13488720703125,9.761384963989258,0.054917000234127045,-0.0876128152012825
1761402174865968000,7.144968017578125,9.754201889038086,0.047734394669532776,-0.08402151614427567
1761402174876024000,7.155024169921875,9.750611305236816,0.05603928491473198,-0.0876128152012825
1761402174886130700,7.165130615234375,9.758990287780762,0.050128597766160965,-0.08043020963668823
1761402174896212000,7.1752119140625,9.762581825256348,0.047734394669532776,-0.08289923518896103
1761402174906278400,7.1852783203125,9.757344245910645,0.04676175117492676,-0.07713818550109863
1761402174916374300,7.195374267578125,9.759663581848145,0.05155015364289284,-0.08910919725894928
1761402174926424000,7.205424072265625,9.766921043395996,0.05035305395722389,-0.07122749835252762
1761402174936491300,7.2154912109375,9.758466720581055,0.05274725705385208,-0.08671499043703079
1761402174946618400,7.225618408203125,9.76205825805664,0.05155015364289284,-0.08671499043703079
1761402174956699000,7.235698974609375,9.76325511932373,0.05514145642518997,-0.08080431073904037
1761402174966754800,7.2457548828125,9.76325511932373,0.05155015364289284,-0.08559270948171616
1761402174976860700,7.255860595703125,9.765649795532227,0.04803367331624031,-0.09157821536064148
1761402174986942200,7.265942138671875,9.76437759399414,0.047958854585886,-0.07833528518676758
1761402174997010200,7.27601025390625,9.760711669921875,0.04436755180358887,-0.08192659169435501
1761402175007100400,7.286100341796875,9.764302253723145,0.04676175117492676,-0.08671499043703079
1761402175017182500,7.296182373046875,9.76437759399414,0.04676175117492676,-0.07833528518676758
1761402175027262700,7.3062626953125,9.754800796508789,0.04908113554120064,-0.08304887264966965
1761402175037347800,7.316347900390625,9.7536039352417,0.05267243832349777,-0.07826046645641327
1761402175047428900,7.326428955078125,9.761982917785645,0.05626374110579491,-0.07594108581542969
1761402175057510700,7.3365107421875,9.753528594970703,0.05506663769483566,-0.08783727139234543
1761402175067591200,7.346591064453125,9.76789379119873,0.047958854585886,-0.08312369138002396
1761402175077673000,7.3566728515625,9.76557445526123,0.05274725705385208,-0.07115267962217331
1761402175087749400,7.366749267578125,9.759589195251465,0.05147533491253853,-0.08192659169435501
1761402175097810000,7.376809814453125,9.76318073272705,0.05155015364289284,-0.07953238487243652
1761402175107879200,7.386879150390625,9.76677131652832,0.05035305395722389,-0.07115267962217331
1761402175117997300,7.396997314453125,9.7559232711792,0.05626374110579491,-0.09142857789993286
1761402175128078800,7.407078857421875,9.759513854980469,0.05147533491253853,-0.08551789075136185
1761402175138160000,7.41716015625,9.758392333984375,0.05147533491253853,-0.07953238487243652
1761402175148240600,7.42724072265625,9.753454208374023,0.054991818964481354,-0.08417115360498428
1761402175158318300,7.437318359375,9.761758804321289,0.047884032130241394,-0.08664017170667648
1761402175168403000,7.44740283203125,9.7582426071167,0.05267243832349777,-0.08424597233533859
1761402175178484500,7.457484375,9.76901626586914,0.05147533491253853,-0.07826046645641327
1761402175188539600,7.46753955078125,9.752257347106934,0.050203416496515274,-0.08656535297632217
1761402175198646300,7.477646240234375,9.759439468383789,0.04908113554120064,-0.07586626708507538
1761402175208728000,7.48772802734375,9.763031005859375,0.04429273307323456,-0.08065467327833176
1761402175218804500,7.497804443359375,9.765424728393555,0.0454898327589035,-0.0818517729640007
1761402175228890600,7.507890625,9.766622543334961,0.05746084079146385,-0.08065467327833176
1761402175238971400,7.517971435546875,9.759439468383789,0.0454898327589035,-0.07945756614208221
1761402175249032400,7.528032470703125,9.760636329650879,0.04429273307323456,-0.07945756614208221
1761402175259134000,7.538134033203125,9.7582426071167,0.047884032130241394,-0.08544307202100754
1761402175269214200,7.548214111328125,9.762955665588379,0.05027823522686958,-0.08544307202100754
1761402175279292400,7.55829248046875,9.753454208374023,0.050203416496515274,-0.08297405391931534
1761402175289388000,7.568387939453125,9.75704574584961,0.04668693244457245,-0.07945756614208221
1761402175299458600,7.57845849609375,9.762955665588379,0.03950432687997818,-0.08544307202100754
1761402175309539600,7.58853955078125,9.749862670898438,0.050203416496515274,-0.08417115360498428
1761402175319620600,7.59862060546875,9.75704574584961,0.04908113554120064,-0.08065467327833176
1761402175329702000,7.608701904296875,9.762955665588379,0.05746084079146385,-0.09023147821426392
1761402175339782400,7.618782470703125,9.7582426071167,0.05267243832349777,-0.0818517729640007
1761402175349859800,7.62885986328125,9.768941879272461,0.05027823522686958,-0.08544307202100754
1761402175359945200,7.6389453125,9.755847930908203,0.0454898327589035,-0.07706336677074432
1761402175370026500,7.649026611328125,9.759439468383789,0.04668693244457245,-0.08065467327833176
1761402175380108000,7.65910791015625,9.764227867126465,0.05386953800916672,-0.08065467327833176
1761402175390188500,7.6691884765625,9.771485328674316,0.047958854585886,-0.07833528518676758
1761402175400239000,7.679239013671875,9.752331733703613,0.04429273307323456,-0.08664017170667648
1761402175410347000,7.689346923828125,9.771485328674316,0.04436755180358887,-0.08072949200868607
1761402175420432400,7.699432373046875,9.76909065246582,0.05035305395722389,-0.08551789075136185
1761402175430490400,7.709490478515625,9.754800796508789,0.05626374110579491,-0.07826046645641327
1761402175440594400,7.719594482421875,9.758392333984375,0.05506663769483566,-0.08072949200868607
1761402175450675500,7.729675537109375,9.759513854980469,0.04908113554120064,-0.0843207910656929
1761402175460757200,7.73975732421875,9.76789379119873,0.05274725705385208,-0.0843207910656929
1761402175470837800,7.749837646484375,9.759140014648438,0.050203416496515274,-0.08768763393163681
1761402175480914400,7.75991455078125,9.761534690856934,0.04661211371421814,-0.09127894043922424
1761402175491000000,7.77,9.7675199508667,0.05738602206110954,-0.07818564772605896
1761402175501081600,7.78008154296875,9.760336875915527,0.045415014028549194,-0.08050503581762314
1761402175511163000,7.790162841796875,9.761534690856934,0.054917000234127045,-0.08050503581762314
1761402175521217800,7.8002177734375,9.759140014648438,0.054917000234127045,-0.09127894043922424
1761402175531324700,7.81032470703125,9.761534690856934,0.05259761959314346,-0.0793079286813736
1761402175541402000,7.820402099609375,9.762731552124023,0.04661211371421814,-0.08050503581762314
1761402175551486700,7.83048681640625,9.759513854980469,0.04556465148925781,-0.08671499043703079
1761402175561543200,7.840543212890625,9.754800796508789,0.05147533491253853,-0.0818517729640007
1761402175571650000,7.850650146484375,9.759589195251465,0.04908113554120064,-0.07713818550109863
1761402175581730600,7.86073046875,9.757194519042969,0.05506663769483566,-0.08304887264966965
1761402175591811800,7.870811767578125,9.761908531188965,0.05626374110579491,-0.08312369138002396
1761402175601889000,7.880888916015625,9.76669692993164,0.056338559836149216,-0.0843207910656929
1761402175611974400,7.890974365234375,9.760711669921875,0.0586579404771328,-0.08551789075136185
1761402175622052600,7.901052490234375,9.76437759399414,0.05035305395722389,-0.07833528518676758
1761402175632137200,7.91113720703125,9.76445198059082,0.04317044839262962,-0.076015904545784
1761402175642217700,7.9212177734375,9.76445198059082,0.05155015364289284,-0.08080431073904037
1761402175652273400,7.9312734375,9.765649795532227,0.05155015364289284,-0.07841010391712189
1761402175662380000,7.941380126953125,9.759663581848145,0.05274725705385208,-0.08192659169435501
1761402175672436500,7.9514365234375,9.76445198059082,0.05155015364289284,-0.08918401598930359
1761402175682542300,7.961542236328125,9.754875183105469,0.05035305395722389,-0.08192659169435501
1761402175692623400,7.971623291015625,9.76445198059082,0.05155015364289284,-0.08319851011037827
1761402175702704600,7.98170458984375,9.76325511932373,0.05035305395722389,-0.08439560979604721
1761402175712766200,7.99176611328125,9.763031005859375,0.04189852997660637,-0.0818517729640007
1761402175722867200,8.0018671875,9.7582426071167,0.05386953800916672,-0.07466916739940643
1761402175732944000,8.01194384765625,9.760636329650879,0.05386953800916672,-0.07826046645641327
1761402175743004200,8.022004150390625,9.760636329650879,0.05626374110579491,-0.07227496057748795
1761402175753110300,8.0321103515625,9.765424728393555,0.04429273307323456,-0.07945756614208221
1761402175763191600,8.042191650390626,9.7582426071167,0.04668693244457245,-0.07945756614208221
1761402175773272800,8.05227294921875,9.755847930908203,0.05506663769483566,-0.08776245266199112
1761402175783353900,8.062353759765625,9.76781940460205,0.0454898327589035,-0.07826046645641327
1761402175793435000,8.072434814453125,9.76677131652832,0.05155015364289284,-0.07713818550109863
1761402175803511800,8.08251171875,9.751134872436523,0.0586579404771328,-0.08903437852859497
1761402175813572000,8.092572021484376,9.777470588684082,0.05155015364289284,-0.08439560979604721
1761402175823678500,8.102678466796876,9.757120132446289,0.04317044839262962,-0.0843207910656929
1761402175833759700,8.112759765625,9.771485328674316,0.05274725705385208,-0.08551789075136185
1761402175843841300,8.12284130859375,9.76550006866455,0.05753565952181816,-0.08072949200868607
1761402175853922000,8.132922119140625,9.759589195251465,0.05626374110579491,-0.08312369138002396
1761402175863977700,8.142977783203126,9.761908531188965,0.04676175117492676,-0.0843207910656929
1761402175874084600,8.153084716796876,9.754800796508789,0.05985504388809204,-0.07227496057748795
1761402175884165400,8.163165283203124,9.759513854980469,0.05267243832349777,-0.0843207910656929
1761402175894246700,8.17324658203125,9.764302253723145,0.04676175117492676,-0.0843207910656929
1761402175904327700,8.18332763671875,9.757120132446289,0.05027823522686958,-0.08903437852859497
1761402175914408700,8.19340869140625,9.764302253723145,0.05274725705385208,-0.08671499043703079
1761402175924490800,8.20349072265625,9.76669692993164,0.05155015364289284,-0.08192659169435501
1761402175934571300,8.2135712890625,9.76909065246582,0.05992986261844635,-0.08072949200868607
1761402175944628500,8.22362841796875,9.748815536499023,0.04908113554120064,-0.07945756614208221
1761402175954733600,8.233733642578125,9.754875183105469,0.056338559836149216,-0.09030629694461823
1761402175964814800,8.24381494140625,9.765649795532227,0.05155015364289284,-0.08319851011037827
1761402175974895900,8.253895751953126,9.76086139678955,0.05514145642518997,-0.08551789075136185
1761402175984977200,8.26397705078125,9.76086139678955,0.04915595427155495,-0.076015904545784
1761402175995036700,8.27403662109375,9.757344245910645,0.05035305395722389,-0.07833528518676758
1761402176005139700,8.2841396484375,9.76445198059082,0.05274725705385208,-0.08200141042470932
1761402176015195600,8.294195556640625,9.759663581848145,0.05035305395722389,-0.08080431073904037
1761402176025301800,8.3043017578125,9.76445198059082,0.04556465148925781,-0.08200141042470932
1761402176035382800,8.3143828125,9.762357711791992,0.051699791103601456,-0.08566752821207047
1761402176045464000,8.324464111328124,9.762357711791992,0.04810849204659462,-0.0784849226474762
1761402176055553500,8.334553466796875,9.767146110534668,0.056488197296857834,-0.08095394819974899
1761402176065625900,8.3446259765625,9.75278091430664,0.04803367331624031,-0.08806172758340836
1761402176075707600,8.354707763671875,9.75397777557373,0.056413378566503525,-0.07968202233314514
1761402176085789000,8.364788818359376,9.769465446472168,0.044517189264297485,-0.08574234694242477
1761402176095869700,8.37486962890625,9.770736694335938,0.054093994200229645,-0.08215104788541794
1761402176105950700,8.38495068359375,9.762357711791992,0.049305591732263565,-0.08207622915506363
1761402176116032300,8.3950322265625,9.768716812133789,0.05259761959314346,-0.08417115360498428
1761402176126113500,8.405113525390625,9.757943153381348,0.057311203330755234,-0.08050503581762314
1761402176136194600,8.415194580078126,9.748440742492676,0.052522800862789154,-0.08050503581762314
1761402176146276400,8.4252763671875,9.760412216186523,0.054917000234127045,-0.07451952993869781
1761402176156356900,8.43535693359375,9.761534690856934,0.06090250611305237,-0.08529343456029892
1761402176166438000,8.44543798828125,9.765125274658203,0.05259761959314346,-0.08289923518896103
1761402176176519200,8.455519287109375,9.762731552124023,0.050203416496515274,-0.09127894043922424
1761402176186616000,8.465615966796875,9.761534690856934,0.05259761959314346,-0.08170213550329208
1761402176196681500,8.475681396484376,9.762731552124023,0.04661211371421814,-0.08170213550329208
1761402176206740000,8.485739990234375,9.773430824279785,0.04900631681084633,-0.0901566594839096
1761402176216844000,8.495843994140625,9.759140014648438,0.05850830301642418,-0.08529343456029892
1761402176226924800,8.5059248046875,9.751957893371582,0.05850830301642418,-0.08170213550329208
1761402176237004000,8.516004150390625,9.754351615905762,0.042945992201566696,-0.07811082899570465
1761402176247083800,8.526083740234375,9.763928413391113,0.05970540642738342,-0.08170213550329208
1761402176257166600,8.53616650390625,9.762731552124023,0.047809213399887085,-0.08289923518896103
1761402176267249700,8.546249755859375,9.768792152404785,0.04661211371421814,-0.0686088427901268
1761402176277345500,8.556345458984374,9.76901626586914,0.05985504388809204,-0.08065467327833176
1761402176287412000,8.566411865234375,9.765424728393555,0.05506663769483566,-0.08304887264966965
1761402176297493500,8.576493408203126,9.7582426071167,0.05027823522686958,-0.07945756614208221
1761402176307570400,8.5865703125,9.766547203063965,0.05267243832349777,-0.08664017170667648
1761402176317630200,8.596630126953125,9.765424728393555,0.05386953800916672,-0.07826046645641327
1761402176327736300,8.606736328125,9.763031005859375,0.05746084079146385,-0.07945756614208221
1761402176337817600,8.616817626953125,9.7582426071167,0.05386953800916672,-0.07826046645641327
1761402176347865000,8.626864990234376,9.754651069641113,0.054991818964481354,-0.08895955979824066
1761402176357980200,8.636980224609376,9.768043518066406,0.04085106775164604,-0.08439560979604721
1761402176368057300,8.647057373046875,9.757269859313965,0.047958854585886,-0.09150339663028717
1761402176378142500,8.657142578125,9.750162124633789,0.05386953800916672,-0.07713818550109863
1761402176388223500,8.667223388671875,9.771635055541992,0.06000468134880066,-0.08559270948171616
1761402176398304500,8.677304443359375,9.757269859313965,0.05514145642518997,-0.08791209012269974
1761402176408385800,8.6873857421875,9.75854206085205,0.05753565952181816,-0.0736217051744461
1761402176418444500,8.697444580078125,9.759663581848145,0.04915595427155495,-0.08192659169435501
1761402176428548400,8.70754833984375,9.754875183105469,0.05035305395722389,-0.07953238487243652
1761402176438624800,8.717624755859376,9.761159896850586,0.06239888072013855,-0.08327332884073257
1761402176448700000,8.727699951171875,9.762357711791992,0.05521627515554428,-0.08327332884073257
1761402176458792000,8.7377919921875,9.761159896850586,0.04803367331624031,-0.0784849226474762
1761402176468872700,8.747872802734374,9.75637149810791,0.05162497237324715,-0.08207622915506363
1761402176478954200,8.757954345703125,9.762357711791992,0.05162497237324715,-0.08087912946939468
1761402176489035000,8.768034912109375,9.75517463684082,0.05521627515554428,-0.08207622915506363
1761402176499112400,8.778112548828124,9.763554573059082,0.061201781034469604,-0.08207622915506363
1761402176509197000,8.788197021484375,9.765948295593262,0.056488197296857834,-0.08207622915506363
1761402176519278300,8.7982783203125,9.765424728393555,0.05027823522686958,-0.07945756614208221
1761402176529360000,8.80835986328125,9.761834144592285,0.04908113554120064,-0.07945756614208221
1761402176539441400,8.81844140625,9.764227867126465,0.04189852997660637,-0.07826046645641327
1761402176549522200,8.828522216796875,9.759439468383789,0.05027823522686958,-0.08424597233533859
1761402176559599400,8.838599365234375,9.761834144592285,0.04668693244457245,-0.08065467327833176
1761402176569661700,8.84866162109375,9.7605619430542,0.047884032130241394,-0.09023147821426392
1761402176579766300,8.858766357421874,9.755847930908203,0.047884032130241394,-0.08424597233533859
1761402176589840400,8.86884033203125,9.7582426071167,0.043095629662275314,-0.0818517729640007
1761402176599928300,8.87892822265625,9.754651069641113,0.047884032130241394,-0.07706336677074432
1761402176610009000,8.889009033203125,9.755847930908203,0.05267243832349777,-0.08656535297632217
1761402176620090000,8.899090087890626,9.765424728393555,0.05386953800916672,-0.08304887264966965
1761402176630167800,8.909167724609375,9.762955665588379,0.047884032130241394,-0.08903437852859497
1761402176640252400,8.91925244140625,9.759439468383789,0.05746084079146385,-0.0818517729640007
1761402176650334000,8.929333984375,9.766622543334961,0.04668693244457245,-0.07586626708507538
1761402176660415000,8.9394150390625,9.760636329650879,0.05746084079146385,-0.07586626708507538
1761402176670496300,8.949496337890626,9.763031005859375,0.05267243832349777,-0.07945756614208221
1761402176680576500,8.959576416015626,9.762207984924316,0.0487818606197834,-0.0826747789978981
1761402176690654500,8.969654541015625,9.755024909973145,0.05357026308774948,-0.08387187868356705
1761402176700696300,8.9796962890625,9.769390106201172,0.052373163402080536,-0.08746317774057388
1761402176710820400,8.9898203125,9.770587921142578,0.057161565870046616,-0.08387187868356705
1761402176720901600,8.999901611328125,9.761011123657227,0.05835866555571556,-0.08147767931222916
1761402176730964700,9.00996484375,9.75861644744873,0.052373163402080536,-0.08506897836923599
1761402176741064700,9.020064697265624,9.75861644744873,0.05357026308774948,-0.07908347249031067
1761402176751145000,9.03014501953125,9.764601707458496,0.05117605999112129,-0.07788637280464172
1761402176761222400,9.040222412109374,9.768567085266113,0.050128597766160965,-0.0769137293100357
1761402176771307800,9.050307861328125,9.754277229309082,0.059630587697029114,-0.08282441645860672
1761402176781372700,9.06037255859375,9.76976490020752,0.050128597766160965,-0.08170213550329208
1761402176791470300,9.07047021484375,9.761384963989258,0.050128597766160965,-0.08880992233753204
1761402176801551400,9.08055126953125,9.760188102722168,0.0537199005484581,-0.08282441645860672
1761402176811608000,9.090608154296875,9.756596565246582,0.050128597766160965,-0.08521861582994461
1761402176821709800,9.100709716796874,9.751882553100586,0.05603928491473198,-0.07324761152267456
1761402176831794400,9.11079443359375,9.758990287780762,0.04893149808049202,-0.08402151614427567
1761402176841876500,9.12087646484375,9.77477741241455,0.05626374110579491,-0.08664017170667648
1761402176851957000,9.13095703125,9.753304481506348,0.04421791434288025,-0.08776245266199112
1761402176862038800,9.141038818359375,9.76168441772461,0.050203416496515274,-0.08057985454797745
1761402176872119600,9.15111962890625,9.760486602783203,0.04661211371421814,-0.08297405391931534
1761402176882196700,9.16119677734375,9.7628812789917,0.04900631681084633,-0.08417115360498428
1761402176892282400,9.171282470703124,9.755698204040527,0.05259761959314346,-0.08776245266199112
1761402176902355700,9.181355712890625,9.76168441772461,0.05259761959314346,-0.08057985454797745
1761402176912444400,9.1914443359375,9.753304481506348,0.047809213399887085,-0.08177695423364639
1761402176922502000,9.201501953125,9.763105392456055,0.05394435673952103,-0.09389759600162506
1761402176932606700,9.211606689453125,9.76550006866455,0.05992986261844635,-0.08312369138002396
1761402176942692400,9.2216923828125,9.76669692993164,0.056338559836149216,-0.08671499043703079
1761402176952764400,9.231764404296875,9.764302253723145,0.04915595427155495,-0.08551789075136185
1761402176962850000,9.24185009765625,9.761908531188965,0.05506663769483566,-0.08551789075136185
1761402176972930800,9.251930908203125,9.76318073272705,0.047958854585886,-0.07953238487243652
1761402176983012000,9.26201220703125,9.76550006866455,0.05274725705385208,-0.08671499043703079
1761402176993093000,9.272093017578126,9.7559232711792,0.04908113554120064,-0.09142857789993286
1761402177003175000,9.2821748046875,9.762357711791992,0.05761047825217247,-0.08207622915506363
1761402177013251300,9.292251220703125,9.767146110534668,0.05050269141793251,-0.08566752821207047
1761402177023318800,9.30231884765625,9.750386238098145,0.04683656990528107,-0.07728782296180725
1761402177033418500,9.31241845703125,9.761159896850586,0.04683656990528107,-0.07728782296180725
1761402177043483000,9.32248291015625,9.762357711791992,0.05282207578420639,-0.08566752821207047
1761402177053580000,9.332580078125,9.763554573059082,0.04810849204659462,-0.07968202233314514
1761402177063661300,9.342661376953124,9.764751434326172,0.049305591732263565,-0.08566752821207047
1761402177073742600,9.35274267578125,9.762357711791992,0.05162497237324715,-0.0784849226474762
1761402177083798300,9.36279833984375,9.769390106201172,0.05521627515554428,-0.08566752821207047
1761402177093905000,9.37290478515625,9.75981330871582,0.05761047825217247,-0.08200141042470932
1761402177103986200,9.382986083984376,9.761011123657227,0.049230773001909256,-0.0867898091673851
1761402177114067200,9.393067138671874,9.763404846191406,0.05521627515554428,-0.08559270948171616
1761402177124148200,9.403148193359375,9.75622272491455,0.044442370533943176,-0.08200141042470932
1761402177134229200,9.413229248046875,9.761011123657227,0.054019175469875336,-0.08439560979604721
1761402177144272000,9.42327197265625,9.762207984924316,0.054019175469875336,-0.08559270948171616
1761402177154391800,9.433391845703126,9.762207984924316,0.0396539643406868,-0.08087912946939468
1761402177164447700,9.44344775390625,9.759663581848145,0.05035305395722389,-0.0843207910656929
1761402177174554000,9.45355419921875,9.75973892211914,0.05514145642518997,-0.076015904545784
1761402177184635100,9.46363525390625,9.756072998046875,0.04915595427155495,-0.08551789075136185
1761402177194716200,9.473716064453125,9.76445198059082,0.056338559836149216,-0.07960720360279083
1761402177204772000,9.483772216796876,9.76325511932373,0.047958854585886,-0.08439560979604721
1761402177214878500,9.49387841796875,9.76325511932373,0.05274725705385208,-0.08559270948171616
1761402177224959700,9.503959716796874,9.76205825805664,0.05274725705385208,-0.08200141042470932
1761402177235040800,9.514040771484375,9.765649795532227,0.05514145642518997,-0.08439560979604721
1761402177245123000,9.524123046875,9.764227867126465,0.05386953800916672,-0.07826046645641327
1761402177255202800,9.534202880859375,9.766547203063965,0.04908113554120064,-0.09142857789993286
1761402177265263600,9.544263671875,9.77021312713623,0.04908113554120064,-0.07713818550109863
1761402177275366000,9.554365966796874,9.7582426071167,0.040701430290937424,-0.08544307202100754
1761402177285473500,9.5644736328125,9.755847930908203,0.04908113554120064,-0.08065467327833176
1761402177295527700,9.574527587890625,9.7582426071167,0.047884032130241394,-0.08065467327833176
1761402177305586400,9.58458642578125,9.762955665588379,0.04668693244457245,-0.09023147821426392
1761402177315690000,9.59468994140625,9.768941879272461,0.04908113554120064,-0.08903437852859497
1761402177325771300,9.604771240234374,9.761834144592285,0.05027823522686958,-0.0818517729640007
1761402177335827500,9.614827392578125,9.761834144592285,0.0454898327589035,-0.07945756614208221
1761402177345934600,9.6249345703125,9.75704574584961,0.038307227194309235,-0.07945756614208221
1761402177356014800,9.635014892578125,9.764153480529785,0.04908113554120064,-0.08664017170667648
1761402177366096100,9.64509619140625,9.7605619430542,0.03950432687997818,-0.09023147821426392
1761402177376177000,9.655177001953126,9.758167266845703,0.047884032130241394,-0.08903437852859497
1761402177386258400,9.665258544921874,9.760636329650879,0.05506663769483566,-0.07826046645641327
1761402177396339500,9.67533935546875,9.760636329650879,0.040701430290937424,-0.0818517729640007
1761402177406421000,9.6854208984375,9.759589195251465,0.05506663769483566,-0.07953238487243652
1761402177416501800,9.695501708984375,9.760786056518555,0.05267243832349777,-0.07953238487243652
1761402177426583300,9.705583251953126,9.759513854980469,0.05626374110579491,-0.08664017170667648
1761402177436664300,9.715664306640624,9.760711669921875,0.05155015364289284,-0.09023147821426392
1761402177456826000,9.735826171875,9.76909065246582,0.047958854585886,-0.0843207910656929
1761402177466907600,9.74590771484375,9.758392333984375,0.04429273307323456,-0.07953238487243652
1761402177476986600,9.755986572265625,9.758392333984375,0.047884032130241394,-0.08192659169435501
1761402177487066000,9.766066162109375,9.763031005859375,0.05027823522686958,-0.07826046645641327
1761402177497147100,9.776147216796875,9.7582426071167,0.05978022515773773,-0.08065467327833176
1761402177507207000,9.78620703125,9.764227867126465,0.047884032130241394,-0.08065467327833176
1761402177517288000,9.796287841796875,9.764227867126465,0.0454898327589035,-0.08304887264966965
1761402177527369200,9.806369140625,9.759439468383789,0.05626374110579491,-0.0818517729640007
1761402177537450800,9.81645068359375,9.766622543334961,0.04668693244457245,-0.07706336677074432
1761402177547556900,9.826556884765624,9.75704574584961,0.0561889223754406,-0.08065467327833176
1761402177557638000,9.836637939453125,9.765424728393555,0.05027823522686958,-0.07826046645641327
1761402177567719400,9.846719482421875,9.755623817443848,0.054917000234127045,-0.0769137293100357
1761402177577775400,9.856775390625,9.759140014648438,0.047809213399887085,-0.08649053424596786
1761402177587842800,9.8668427734375,9.756746292114258,0.04653729498386383,-0.08649053424596786
1761402177597962800,9.876962646484374,9.755548477172852,0.04653729498386383,-0.08050503581762314
1761402177608043800,9.887043701171875,9.762731552124023,0.0561889223754406,-0.08289923518896103
1761402177618124800,9.897124755859375,9.758017539978027,0.052522800862789154,-0.07092822343111038
1761402177628206000,9.9072060546875,9.761534690856934,0.05379471927881241,-0.08649053424596786
1761402177638287600,9.91728759765625,9.759140014648438,0.04893149808049202,-0.08050503581762314
1761402177648364500,9.927364501953125,9.755847930908203,0.05140051618218422,-0.07826046645641327
1761402177658449700,9.93744970703125,9.761758804321289,0.047884032130241394,-0.09382277727127075
1761402177668531000,9.947531005859375,9.754651069641113,0.04908113554120064,-0.08304887264966965
1761402177678612000,9.957612060546875,9.761834144592285,0.0586579404771328,-0.07826046645641327
1761402177688693000,9.96769287109375,9.768941879272461,0.05267243832349777,-0.08424597233533859
1761402177698750500,9.97775048828125,9.765424728393555,0.04429273307323456,-0.0818517729640007
1761402177708855000,9.98785498046875,9.754651069641113,0.04189852997660637,-0.07945756614208221
1761402177718932700,9.9979326171875,9.763031005859375,0.05985504388809204,-0.0818517729640007
1761402177729017600,10.008017578125,9.76445198059082,0.04676175117492676,-0.08319851011037827
1761402177739098600,10.0180986328125,9.774028778076172,0.04563947021961212,-0.07728782296180725
1761402177749180200,10.02818017578125,9.76445198059082,0.05035305395722389,-0.07960720360279083
1761402177759261700,10.03826171875,9.753678321838379,0.05514145642518997,-0.09270049631595612
1761402177769337000,10.048337158203125,9.756072998046875,0.04197334870696068,-0.08312369138002396
1761402177779420200,10.058420166015624,9.76086139678955,0.05394435673952103,-0.07721300423145294
1761402177789471500,10.068471435546876,9.769240379333496,0.0504278726875782,-0.08200141042470932
1761402177799585800,10.078585693359376,9.76205825805664,0.047958854585886,-0.08439560979604721
1761402177809667300,10.088667236328124,9.756746292114258,0.045415014028549194,-0.08529343456029892
1761402177839906600,10.118906494140624,9.765125274658203,0.05140051618218422,-0.0793827474117279
1761402177849991700,10.12899169921875,9.76632308959961,0.05738602206110954,-0.08057985454797745
1761402177860066300,10.13906640625,9.756746292114258,0.042945992201566696,-0.0793079286813736
1761402177870154200,10.149154296875,9.771111488342285,0.0561889223754406,-0.07698854804039001
1761402177880235300,10.1592353515625,9.757943153381348,0.062099605798721313,-0.0793079286813736
1761402177890316500,10.169316650390625,9.76445198059082,0.04915595427155495,-0.07960720360279083
1761402177900397600,10.1793974609375,9.76445198059082,0.05035305395722389,-0.07841010391712189
1761402177910475000,10.18947509765625,9.769240379333496,0.05282207578420639,-0.07960720360279083
1761402177920559900,10.199559814453124,9.765649795532227,0.05514145642518997,-0.07841010391712189
1761402177930633200,10.20963330078125,9.759663581848145,0.061126962304115295,-0.08072949200868607
1761402177940722700,10.21972265625,9.76325511932373,0.047958854585886,-0.07960720360279083
1761402177950803500,10.229803466796875,9.772831916809082,0.0504278726875782,-0.08080431073904037
1761402177960861200,10.239861083984374,9.757344245910645,0.05274725705385208,-0.07833528518676758
1761402177970962000,10.2499619140625,9.763628959655762,0.05529109388589859,-0.08693944662809372
1761402177981046500,10.260046630859375,9.761235237121582,0.044517189264297485,-0.08454524725675583
1761402177991128000,10.270128173828125,9.762507438659668,0.06007950007915497,-0.08334814757108688
1761402178001208800,10.280208740234375,9.758915901184082,0.054093994200229645,-0.07018003612756729
1761402178011290000,10.2902900390625,9.764826774597168,0.056488197296857834,-0.08454524725675583
1761402178021371600,10.30037158203125,9.770812034606934,0.049380410462617874,-0.08342296630144119
1761402178031452200,10.3104521484375,9.767220497131348,0.054093994200229645,-0.08215104788541794
1761402178041530600,10.320530517578124,9.760038375854492,0.0528968945145607,-0.08813655376434326
1761402178051589400,10.33058935546875,9.763031005859375,0.05027823522686958,-0.07466916739940643
1761402178061696500,10.340696533203126,9.763031005859375,0.05267243832349777,-0.07466916739940643
1761402178071777500,10.350777587890626,9.759439468383789,0.04908113554120064,-0.07945756614208221
1761402178081858600,10.360858642578124,9.761834144592285,0.05027823522686958,-0.07826046645641327
1761402178091939300,10.370939208984375,9.759439468383789,0.05506663769483566,-0.0818517729640007
1761402178102016500,10.3810166015625,9.751059532165527,0.050203416496515274,-0.08177695423364639
1761402178112101400,10.391101318359375,9.761758804321289,0.05746084079146385,-0.08903437852859497
1761402178122182700,10.4011826171875,9.765424728393555,0.05147533491253853,-0.08304887264966965
1761402178132264400,10.411264404296874,9.761159896850586,0.054019175469875336,-0.08566752821207047
1761402178142345500,10.421345458984375,9.757569313049316,0.04563947021961212,-0.08447042852640152
1761402178152426500,10.431426513671875,9.759963035583496,0.05282207578420639,-0.07728782296180725
1761402178162504000,10.44150390625,9.767146110534668,0.0528968945145607,-0.08447042852640152
1761402178172543700,10.451543701171875,9.770662307739258,0.05050269141793251,-0.09053075313568115
1761402178182670300,10.46167041015625,9.759963035583496,0.042122986167669296,-0.08327332884073257
1761402178192751000,10.471751220703124,9.767146110534668,0.049305591732263565,-0.0785597413778305
1761402178202793000,10.48179296875,9.763554573059082,0.04571428894996643,-0.07736264169216156
1761402178212913000,10.491912841796875,9.766397476196289,0.05267243832349777,-0.09494505822658539
1761402178222971600,10.5019716796875,9.765275001525879,0.04668693244457245,-0.08776245266199112
1761402178233071400,10.5120712890625,9.764078140258789,0.05140051618218422,-0.0793827474117279
1761402178243133000,10.5221328125,9.765275001525879,0.05738602206110954,-0.08417115360498428
1761402178253238000,10.532238037109375,9.753304481506348,0.05858312174677849,-0.08057985454797745
1761402178263319300,10.5423193359375,9.770063400268555,0.05027823522686958,-0.0818517729640007
1761402178273400000,10.552400146484375,9.760486602783203,0.054991818964481354,-0.08177695423364639
1761402178283482000,10.562482177734376,9.7628812789917,0.04900631681084633,-0.0793827474117279
1761402178293563100,10.572563232421874,9.767220497131348,0.04100070521235466,-0.08334814757108688
1761402178303643600,10.5826435546875,9.755324363708496,0.056488197296857834,-0.08095394819974899
1761402178313725200,10.59272509765625,9.75405216217041,0.054093994200229645,-0.09045593440532684
1761402178323798800,10.602798828125,9.74933910369873,0.05521627515554428,-0.07968202233314514
1761402178333866200,10.6128662109375,9.768417358398438,0.04578910768032074,-0.07983165979385376
1761402178343969000,10.622968994140624,9.758840560913086,0.058882396668195724,-0.08693944662809372
1761402178354049800,10.6330498046875,9.758915901184082,0.05529109388589859,-0.08454524725675583
1761402178364105200,10.643105224609375,9.764901161193848,0.04571428894996643,-0.0785597413778305
1761402178374211600,10.653211669921875,9.76205825805664,0.05155015364289284,-0.08200141042470932
1761402178384292600,10.663292724609375,9.76325511932373,0.047958854585886,-0.07481880486011505
1761402178394352400,10.673352294921875,9.76205825805664,0.05035305395722389,-0.08559270948171616
1761402178404455200,10.683455078125,9.766846656799316,0.0504278726875782,-0.08798690885305405
1761402178414536700,10.69353662109375,9.758466720581055,0.056338559836149216,-0.08671499043703079
1761402178424618000,10.703617919921875,9.757269859313965,0.04676175117492676,-0.07953238487243652
1761402178434698500,10.713698486328125,9.76086139678955,0.04436755180358887,-0.09030629694461823
1761402178444755200,10.723755126953124,9.76086139678955,0.04676175117492676,-0.08319851011037827
1761402178454861000,10.733861083984374,9.758766174316406,0.0504278726875782,-0.08327332884073257
1761402178464899300,10.7438994140625,9.744400978088379,0.05274725705385208,-0.08559270948171616
1761402178475023000,10.754023193359375,9.75278091430664,0.058807577937841415,-0.08447042852640152
1761402178485105000,10.76410498046875,9.758766174316406,0.054019175469875336,-0.08447042852640152
1761402178495160600,10.77416064453125,9.759963035583496,0.044517189264297485,-0.08566752821207047
1761402178505266700,10.7842666015625,9.75637149810791,0.044442370533943176,-0.08207622915506363
1761402178515348000,10.794347900390624,9.759963035583496,0.05162497237324715,-0.0760907232761383
1761402178525429000,10.804428955078125,9.765948295593262,0.04810849204659462,-0.08215104788541794
1761402178535510300,10.81451025390625,9.759663581848145,0.05274725705385208,-0.0843207910656929
1761402178555672600,10.834672607421876,9.772831916809082,0.04324526712298393,-0.08439560979604721
1761402178565753600,10.844753662109374,9.772831916809082,0.05521627515554428,-0.07481880486011505
1761402178575835000,10.8548349609375,9.765649795532227,0.04563947021961212,-0.0867898091673851
1761402178585916000,10.864916015625,9.756072998046875,0.05274725705385208,-0.07953238487243652
1761402178595997200,10.8749970703125,9.776423454284668,0.054019175469875336,-0.07728782296180725
1761402178606078500,10.885078369140626,9.765649795532227,0.04683656990528107,-0.08200141042470932
1761402178616159500,10.895159423828124,9.757194519042969,0.05267243832349777,-0.08072949200868607
1761402178626240800,10.90524072265625,9.76550006866455,0.05155015364289284,-0.08791209012269974
1761402178636321800,10.91532177734375,9.76909065246582,0.05035305395722389,-0.08551789075136185
1761402178646403600,10.925403564453125,9.773879051208496,0.061126962304115295,-0.08072949200868607
1761402178656484000,10.935484130859376,9.773954391479492,0.061126962304115295,-0.076015904545784
1761402178666565000,10.945565185546876,9.771485328674316,0.05035305395722389,-0.07953238487243652
1761402178676646400,10.955646484375,9.771485328674316,0.05394435673952103,-0.08192659169435501
1761402178686728000,10.96572802734375,9.7559232711792,0.05027823522686958,-0.08424597233533859
1761402178696808700,10.97580859375,9.765125274658203,0.047809213399887085,-0.0793827474117279
1761402178706889700,10.9858896484375,9.768716812133789,0.05259761959314346,-0.08536825329065323
1761402178716965400,10.99596533203125,9.771111488342285,0.05858312174677849,-0.07579144835472107
1761402178727048200,11.006048095703125,9.76632308959961,0.05379471927881241,-0.07579144835472107
1761402178737108200,11.016108154296875,9.757943153381348,0.050128597766160965,-0.08289923518896103
1761402178747214300,11.02621435546875,9.760336875915527,0.050203416496515274,-0.08529343456029892
1761402178757291000,11.036291015625,9.769913673400879,0.05140051618218422,-0.08177695423364639
1761402178767376600,11.046376708984376,9.7675199508667,0.0561889223754406,-0.07818564772605896
1761402178777458000,11.0564580078125,9.761834144592285,0.0454898327589035,-0.07227496057748795
1761402178787539200,11.066539306640625,9.764153480529785,0.05506663769483566,-0.08783727139234543
1761402178797616400,11.076616455078126,9.754651069641113,0.0454898327589035,-0.08544307202100754
1761402178807701200,11.086701171875,9.763031005859375,0.05506663769483566,-0.07826046645641327
1761402178817782500,11.096782470703126,9.766622543334961,0.0454898327589035,-0.0818517729640007
1761402178827863800,11.10686376953125,9.759439468383789,0.05506663769483566,-0.07945756614208221
1761402178837945300,11.1169453125,9.749862670898438,0.05858312174677849,-0.08417115360498428
1761402178848027000,11.12702685546875,9.760636329650879,0.05386953800916672,-0.08065467327833176
1761402178858107100,11.137107177734375,9.75704574584961,0.05386953800916672,-0.08424597233533859
1761402178868184600,11.1471845703125,9.765350341796875,0.05147533491253853,-0.08664017170667648
1761402178878269400,11.15726953125,9.754651069641113,0.054991818964481354,-0.07826046645641327
1761402178888350500,11.1673505859375,9.753454208374023,0.0561889223754406,-0.08057985454797745
1761402178898434600,11.1774345703125,9.75704574584961,0.06097732484340668,-0.07466916739940643
1761402178908505900,11.187505859375,9.75704574584961,0.04189852997660637,-0.08424597233533859
1761402178918594300,11.19759423828125,9.760636329650879,0.043095629662275314,-0.07945756614208221
1761402178928671000,11.2076708984375,9.766622543334961,0.05386953800916672,-0.07945756614208221
1761402178938756400,11.21775634765625,9.751957893371582,0.0537199005484581,-0.08050503581762314
1761402178948838700,11.227838623046875,9.754351615905762,0.05850830301642418,-0.08649053424596786
1761402178958918700,11.237918701171875,9.761534690856934,0.05611410364508629,-0.08289923518896103
1761402178969000000,11.248,9.756746292114258,0.062099605798721313,-0.08289923518896103
1761402178979081000,11.2580810546875,9.759140014648438,0.04893149808049202,-0.07811082899570465
1761402178989136600,11.26813671875,9.754351615905762,0.052522800862789154,-0.08050503581762314
1761402178999239400,11.278239501953125,9.762731552124023,0.04900631681084633,-0.08649053424596786
1761402179009324800,11.28832470703125,9.760336875915527,0.052522800862789154,-0.08170213550329208
1761402179019371500,11.29837158203125,9.768043518066406,0.04563947021961212,-0.07841010391712189
1761402179029486800,11.30848681640625,9.756072998046875,0.05992986261844635,-0.08192659169435501
1761402179039568000,11.31856787109375,9.774028778076172,0.054019175469875336,-0.08319851011037827
1761402179049649200,11.328649169921874,9.765649795532227,0.044442370533943176,-0.07721300423145294
1761402179059726300,11.338726318359376,9.757269859313965,0.047958854585886,-0.0843207910656929
1761402179069811500,11.3488115234375,9.770438194274902,0.05282207578420639,-0.08080431073904037
1761402179079892700,11.358892822265625,9.766846656799316,0.04915595427155495,-0.07481880486011505
1761402179089973500,11.368973388671876,9.76086139678955,0.05514145642518997,-0.07960720360279083
1761402179100055300,11.37905517578125,9.77365493774414,0.05746084079146385,-0.07586626708507538
1761402179110111000,11.389111083984375,9.750909805297852,0.05611410364508629,-0.08050503581762314
1761402179120192300,11.399192138671875,9.760486602783203,0.04661211371421814,-0.07579144835472107
1761402179130273000,11.40927294921875,9.758092880249023,0.040626611560583115,-0.08297405391931534
1761402179140379600,11.419379638671876,9.766472816467285,0.05147533491253853,-0.08297405391931534
1761402179150460700,11.429460693359376,9.768866539001465,0.05267243832349777,-0.08776245266199112
1761402179160541700,11.439541748046874,9.7628812789917,0.05259761959314346,-0.08177695423364639
1761402179170623000,11.449623046875,9.756896018981934,0.043020810931921005,-0.08776245266199112
1761402179180704000,11.4597041015625,9.754501342773438,0.05140051618218422,-0.08057985454797745
1761402179190781400,11.469781494140625,9.759289741516113,0.05140051618218422,-0.08776245266199112
1761402179200866300,11.4798662109375,9.765275001525879,0.04668693244457245,-0.07818564772605896
1761402179210947800,11.48994775390625,9.753304481506348,0.05140051618218422,-0.09247604012489319
1761402179221028900,11.50002880859375,9.7628812789917,0.05140051618218422,-0.07698854804039001
1761402179231110100,11.510110107421875,9.756896018981934,0.045415014028549194,-0.07698854804039001
1761402179241191700,11.520191650390625,9.760486602783203,0.05259761959314346,-0.08536825329065323
1761402179251267800,11.530267822265625,9.758092880249023,0.0561889223754406,-0.08417115360498428
1761402179261353700,11.540353759765624,9.759439468383789,0.05267243832349777,-0.07826046645641327
1761402179271434800,11.550434814453125,9.75704574584961,0.05027823522686958,-0.08544307202100754
1761402179281490700,11.56049072265625,9.75704574584961,0.05027823522686958,-0.07826046645641327
1761402179291586000,11.5705859375,9.755847930908203,0.0561889223754406,-0.08895955979824066
1761402179301677800,11.580677734375,9.760636329650879,0.05626374110579491,-0.07586626708507538
1761402179311759000,11.590759033203126,9.761834144592285,0.05267243832349777,-0.07826046645641327
1761402179321835800,11.600835693359375,9.763031005859375,0.05267243832349777,-0.08424597233533859
1761402179331921400,11.61092138671875,9.75704574584961,0.047884032130241394,-0.07826046645641327
1761402179341977600,11.6209775390625,9.75517463684082,0.05521627515554428,-0.0784849226474762
1761402179352084000,11.631083984375,9.75637149810791,0.054019175469875336,-0.0760907232761383
1761402179362140000,11.641139892578124,9.749189376831055,0.044442370533943176,-0.08447042852640152
1761402179372246000,11.65124609375,9.762357711791992,0.05162497237324715,-0.0784849226474762
1761402179382323200,11.6613232421875,9.757569313049316,0.054019175469875336,-0.08447042852640152
1761402179392408600,11.67140869140625,9.771859169006348,0.049305591732263565,-0.08334814757108688
1761402179402466000,11.681466064453126,9.763480186462402,0.056488197296857834,-0.0892588347196579
1761402179412571000,11.69157080078125,9.75278091430664,0.04683656990528107,-0.08327332884073257
1761402179422652000,11.70165185546875,9.768043518066406,0.05274725705385208,-0.08319851011037827
1761402179432733200,11.711733154296875,9.759663581848145,0.05992986261844635,-0.08791209012269974
1761402179442779600,11.721779541015625,9.765649795532227,0.04324526712298393,-0.07841010391712189
1761402179452895200,11.731895263671875,9.76325511932373,0.05394435673952103,-0.08910919725894928
1761402179462976500,11.7419765625,9.76445198059082,0.05394435673952103,-0.08559270948171616
1761402179473057500,11.7520576171875,9.765649795532227,0.05035305395722389,-0.08798690885305405
1761402179483138600,11.762138671875,9.76325511932373,0.04676175117492676,-0.08559270948171616
1761402179493219800,11.7722197265625,9.76445198059082,0.04676175117492676,-0.08080431073904037
1761402179503301000,11.782301025390625,9.76325511932373,0.04436755180358887,-0.076015904545784
1761402179513378800,11.79237890625,9.75854206085205,0.05274725705385208,-0.076015904545784
1761402179533544400,11.81254443359375,9.765649795532227,0.05394435673952103,-0.08080431073904037
1761402179543626200,11.822626220703125,9.769240379333496,0.049230773001909256,-0.09038111567497253
1761402179553707000,11.83270703125,9.771635055541992,0.04324526712298393,-0.07841010391712189
1761402179563776000,11.84277587890625,9.753678321838379,0.04915595427155495,-0.08192659169435501
1761402179573869600,11.85286962890625,9.759663581848145,0.058732759207487106,-0.08192659169435501
1761402179583950600,11.86295068359375,9.759663581848145,0.04556465148925781,-0.08671499043703079
1761402179594031000,11.873031005859374,9.76205825805664,0.04915595427155495,-0.08319851011037827
1761402179604113000,11.88311279296875,9.753678321838379,0.05394435673952103,-0.08192659169435501
1761402179614168600,11.89316845703125,9.757269859313965,0.05992986261844635,-0.08192659169435501
1761402179624275200,11.903275146484376,9.76205825805664,0.05274725705385208,-0.08439560979604721
1761402179634356200,11.913356201171876,9.770438194274902,0.056413378566503525,-0.08559270948171616
1761402179644437800,11.923437744140625,9.756072998046875,0.05035305395722389,-0.08312369138002396
1761402179654518500,11.9335185546875,9.759663581848145,0.05035305395722389,-0.07841010391712189
1761402179664599300,11.943599365234375,9.759589195251465,0.05267243832349777,-0.07713818550109863
1761402179674680800,11.953680908203125,9.760711669921875,0.05035305395722389,-0.08910919725894928
1761402179684761600,11.96376171875,9.772682189941406,0.05155015364289284,-0.08192659169435501
1761402179694843100,11.973843017578124,9.760711669921875,0.05147533491253853,-0.08312369138002396
1761402179704924700,11.983924560546875,9.761908531188965,0.0586579404771328,-0.08312369138002396
1761402179715005700,11.994005615234375,9.773879051208496,0.05514145642518997,-0.07841010391712189
1761402179725086500,12.00408642578125,9.76789379119873,0.05394435673952103,-0.07953238487243652
1761402179735165000,12.0141650390625,9.772682189941406,0.058732759207487106,-0.08192659169435501
1761402179745223400,12.024223388671874,9.76669692993164,0.05035305395722389,-0.08791209012269974
1761402179755329800,12.034329833984375,9.761982917785645,0.05386953800916672,-0.07833528518676758
1761402179765411600,12.04441162109375,9.76669692993164,0.05753565952181816,-0.08072949200868607
1761402179775492000,12.0544921875,9.755997657775879,0.06344634294509888,-0.07586626708507538
1761402179785573000,12.064572998046875,9.758392333984375,0.05386953800916672,-0.08312369138002396
1761402179805735400,12.0847353515625,9.758316993713379,0.04317044839262962,-0.08192659169435501
1761402179815817000,12.09481689453125,9.761982917785645,0.0586579404771328,-0.07953238487243652
1761402179825898000,12.10489794921875,9.771111488342285,0.05259761959314346,-0.07579144835472107
1761402179835979500,12.1149794921875,9.756746292114258,0.045340195298194885,-0.0793079286813736
1761402179846061000,12.12506103515625,9.76632308959961,0.04900631681084633,-0.07698854804039001
1761402179856141300,12.135141357421874,9.756746292114258,0.050128597766160965,-0.08050503581762314
1761402179866197800,12.14519775390625,9.756746292114258,0.050128597766160965,-0.08289923518896103
1761402179876303400,12.155303466796875,9.749638557434082,0.05611410364508629,-0.07811082899570465
1761402179886385000,12.165385009765625,9.763928413391113,0.050203416496515274,-0.08529343456029892
1761402179896466400,12.175466552734376,9.754351615905762,0.05132569745182991,-0.08170213550329208
1761402179906547200,12.185547119140624,9.765799522399902,0.05162497237324715,-0.08327332884073257
1761402179916628000,12.1956279296875,9.75861644744873,0.05282207578420639,-0.0867898091673851
1761402179926709500,12.20570947265625,9.764601707458496,0.04563947021961212,-0.07489362359046936
1761402179936790500,12.21579052734375,9.764601707458496,0.06000468134880066,-0.08080431073904037
1761402179946871800,12.225871826171876,9.75741958618164,0.05274725705385208,-0.07841010391712189
1761402179956953900,12.235953857421874,9.761011123657227,0.049230773001909256,-0.08200141042470932
1761402179967031000,12.246031005859376,9.751508712768555,0.05753565952181816,-0.076015904545784
1761402179977111300,12.256111328125,9.764601707458496,0.056413378566503525,-0.08207622915506363
1761402179987195000,12.26619482421875,9.764302253723145,0.058732759207487106,-0.08791209012269974
1761402179997252400,12.27625244140625,9.770288467407227,0.056338559836149216,-0.08312369138002396
1761402180017436400,12.2964365234375,9.758392333984375,0.05626374110579491,-0.08192659169435501
1761402180027521300,12.306521240234375,9.76437759399414,0.05035305395722389,-0.07474398612976074
1761402180037602000,12.31660205078125,9.76557445526123,0.06224924325942993,-0.07713818550109863
1761402180047658200,12.326658203125,9.760786056518555,0.05027823522686958,-0.07953238487243652
1761402180057740300,12.336740234375,9.76789379119873,0.05753565952181816,-0.0843207910656929
1761402180067845600,12.346845703125,9.76445198059082,0.05394435673952103,-0.08319851011037827
1761402180077923000,12.356923095703126,9.753678321838379,0.04915595427155495,-0.08312369138002396
1761402180088008400,12.367008544921875,9.750086784362793,0.04915595427155495,-0.0843207910656929
1761402180098089200,12.377089111328125,9.76086139678955,0.05155015364289284,-0.07960720360279083
1761402180108170200,12.387170166015625,9.764527320861816,0.05274725705385208,-0.07481880486011505
1761402180118251500,12.39725146484375,9.746496200561523,0.04436755180358887,-0.08791209012269974
1761402180128332500,12.40733251953125,9.754875183105469,0.05155015364289284,-0.08671499043703079
1761402180138389000,12.417388916015625,9.765649795532227,0.05753565952181816,-0.0867898091673851
1761402180148489700,12.42748974609375,9.765873908996582,0.044517189264297485,-0.08566752821207047
1761402180158563300,12.437563232421875,9.751583099365234,0.05521627515554428,-0.08207622915506363
1761402180168657000,12.447656982421876,9.75517463684082,0.05282207578420639,-0.08207622915506363
1761402180178715400,12.45771533203125,9.764751434326172,0.0528968945145607,-0.0784849226474762
1761402180188819500,12.4678193359375,9.761159896850586,0.0504278726875782,-0.08207622915506363
1761402180198900500,12.477900390625,9.768342971801758,0.049305591732263565,-0.08095394819974899
1761402180208977700,12.487977783203124,9.761159896850586,0.056413378566503525,-0.07968202233314514
1761402180219062800,12.498062744140626,9.764751434326172,0.06000468134880066,-0.0760907232761383
1761402180229144000,12.50814404296875,9.762955665588379,0.043095629662275314,-0.08424597233533859
1761402180239225300,12.518225341796875,9.741482734680176,0.05259761959314346,-0.08536825329065323
1761402180249281300,12.52828125,9.77013874053955,0.05147533491253853,-0.08783727139234543
1761402180259387600,12.5383876953125,9.760636329650879,0.05746084079146385,-0.0818517729640007
1761402180269468700,12.54846875,9.7582426071167,0.05386953800916672,-0.08664017170667648
1761402180279545900,12.5585458984375,9.765424728393555,0.05267243832349777,-0.08065467327833176
1761402180289631000,12.568630859375,9.760636329650879,0.04908113554120064,-0.08424597233533859
1761402180299712300,12.578712158203125,9.764153480529785,0.05267243832349777,-0.09382277727127075
1761402180309793300,12.588793212890625,9.75637149810791,0.04683656990528107,-0.0784849226474762
1761402180319874300,12.598874267578125,9.757569313049316,0.04563947021961212,-0.0892588347196579
1761402180329945900,12.60894580078125,9.762282371520996,0.0528968945145607,-0.0892588347196579
1761402180340032500,12.619032470703125,9.761159896850586,0.05282207578420639,-0.08327332884073257
1761402180350118000,12.629117919921875,9.751583099365234,0.0504278726875782,-0.08207622915506363
1761402180360165000,12.6391650390625,9.763480186462402,0.05050269141793251,-0.09285013377666473
1761402180370280200,12.6492802734375,9.763554573059082,0.051699791103601456,-0.08327332884073257
1761402180380336000,12.659336181640626,9.75517463684082,0.0504278726875782,-0.07968202233314514
1761402180390442500,12.6694423828125,9.7605619430542,0.05147533491253853,-0.09023147821426392
1761402180400499000,12.6794990234375,9.754651069641113,0.04668693244457245,-0.07945756614208221
1761402180410604800,12.689604736328125,9.762955665588379,0.05267243832349777,-0.09023147821426392
1761402180420685800,12.699685791015625,9.760636329650879,0.047884032130241394,-0.07826046645641327
1761402180430767400,12.709767333984376,9.760636329650879,0.05626374110579491,-0.07586626708507538
1761402180440848600,12.7198486328125,9.764153480529785,0.0586579404771328,-0.08664017170667648
1761402180450929200,12.72992919921875,9.764227867126465,0.05506663769483566,-0.08424597233533859
1761402180461010700,12.7400107421875,9.753454208374023,0.047884032130241394,-0.08656535297632217
1761402180471066400,12.75006640625,9.752406120300293,0.043095629662275314,-0.07826046645641327
1761402180481173000,12.760173095703125,9.754725456237793,0.05147533491253853,-0.08664017170667648
1761402180491253800,12.770253662109376,9.76677131652832,0.047958854585886,-0.07234977930784225
1761402180501310500,12.780310546875,9.761982917785645,0.05746084079146385,-0.07833528518676758
1761402180511416300,12.790416259765625,9.76550006866455,0.056338559836149216,-0.08312369138002396
1761402180521497600,12.80049755859375,9.76677131652832,0.05155015364289284,-0.07833528518676758
1761402180531574500,12.810574462890624,9.754800796508789,0.05147533491253853,-0.08304887264966965
