time,seconds_elapsed,z,y,x
1761231140920967400,0.116967529296875,-0.013897184282541275,-0.08720101416110992,-0.010079276748001575
1761231140931454000,0.127453857421875,-0.014966198243200779,-0.06948592513799667,-0.003817907767370343
1761231140948236800,0.14423681640625,-0.01160643994808197,-0.023518312722444534,0.010995574295520782
1761231140965044200,0.161044189453125,-0.01466076634824276,0.02168571576476097,0.024129176512360573
1761231140981828900,0.177828857421875,-0.019853120669722557,0.05925392732024193,0.027183502912521362
1761231140998618400,0.194618408203125,-0.020463986322283745,0.08139779418706894,0.03375030308961868
1761231141015406300,0.21140625,-0.01725694350898266,0.08506298810243607,0.032070424407720566
1761231141032198000,0.228197998046875,-0.008857546374201775,0.1036943718791008,0.03191770985722542
1761231141048987000,0.24498681640625,0.0024434609804302454,0.1267545372247696,0.04398229718208313
1761231141065775400,0.261775390625,0.003512475173920393,0.15134187042713165,0.04489859566092491
1761231141082565000,0.278565185546875,0.010079276748001575,0.17791450023651123,0.059406645596027374
1761231141099355400,0.29535546875,0.02580905705690384,0.1921171247959137,0.07895433157682419
1761231141116141000,0.31214111328125,0.045204028487205505,0.20051652193069458,0.11041389405727386
1761231141132929300,0.32892919921875,0.07254024595022202,0.24984388053417206,0.16890424489974976
1761231141149719800,0.3457197265625,0.11667526513338089,0.35353827476501465,0.2704605758190155
1761231141166517000,0.36251708984375,0.1895209401845932,0.4207334518432617,0.3830125033855438
1761231141183297000,0.379297119140625,0.25793784856796265,0.3338378667831421,0.4847215712070465
1761231141200093700,0.39609375,0.30604347586631775,0.2750420868396759,0.6102544069290161
1761231141216880400,0.41288037109375,0.3530801236629486,0.3481931984424591,0.7243334650993347
1761231141233670400,0.42967041015625,0.4411974251270294,0.49067750573158264,0.7127270102500916
1761231141250457000,0.44645703125,0.5285511612892151,0.5427537560462952,0.6882924437522888
1761231141267248600,0.46324853515625,0.5186246037483215,0.36713001132011414,0.7342600226402283
1761231141284035300,0.480035400390625,0.4899139404296875,0.22143864631652832,0.7159340381622314
1761231141300830500,0.49683056640625,0.3966042697429657,0.24144448339939117,0.5952881574630737
1761231141317613000,0.513613037109375,0.2883284091949463,0.3462078869342804,0.394008070230484
1761231141334407700,0.53040771484375,0.24174992740154266,0.3637702465057373,0.16462817788124084
1761231141351195100,0.547195068359375,0.1647808998823166,0.2932153046131134,-0.04749477282166481
1761231141367985400,0.5639853515625,0.07880161702632904,0.03375030308961868,-0.1592831164598465
1761231141384783600,0.58078369140625,-0.015882495790719986,-0.17241671681404114,-0.27840182185173035
1761231141401563100,0.597563232421875,-0.09422596544027328,-0.18768835067749023,-0.40775254368782043
1761231141418354000,0.61435400390625,-0.08567385375499725,-0.11942415684461594,-0.5013676285743713
1761231141435142100,0.63114208984375,-0.07192938029766083,-0.07910704612731934,-0.5061018466949463
1761231141451929900,0.647929931640625,-0.12965615093708038,-0.024129176512360573,-0.483957976102829
1761231141468716500,0.664716552734375,-0.18249599635601044,0.02229658141732216,-0.48288896679878235
1761231141485510000,0.681510009765625,-0.2223549485206604,0.05497787147760391,-0.47800204157829285
1761231141502299400,0.69829931640625,-0.26740625500679016,0.04932736977934837,-0.44852781295776367
1761231141519088600,0.715088623046875,-0.3029891550540924,0.03145955875515938,-0.4231768846511841
1761231141535871500,0.73187158203125,-0.30344730615615845,0.01970040425658226,-0.4124867618083954
1761231141552667600,0.748667724609375,-0.28588494658470154,-0.015118914656341076,-0.38117989897727966
1761231141569442300,0.7654423828125,-0.2587014436721802,-0.06398813426494598,-0.3344487249851227
1761231141586248000,0.782248046875,-0.22372940182685852,-0.1014036312699318,-0.2912299931049347
1761231141603036000,0.799035888671875,-0.1966986060142517,-0.1241583600640297,-0.2428189367055893
1761231141619825200,0.8158251953125,-0.1615738570690155,-0.11652254313230515,-0.21380282938480377
1761231141636618200,0.8326181640625,-0.10399980843067169,-0.09529497474431992,-0.14844025671482086
1761231141653400800,0.84940087890625,-0.016035212203860283,-0.05161811411380768,0.010537425056099892
1761231141670194700,0.866194580078125,0.11133018881082535,0.07223481684923172,0.2125810980796814
1761231141686982700,0.882982666015625,0.22876903414726257,0.22586742043495178,0.4369213581085205
1761231141703772000,0.89977197265625,0.2996293902397156,0.3799581825733185,0.6817256212234497
1761231141720559600,0.9165595703125,0.3448334336280823,0.4156937897205353,0.916450560092926
1761231141737352200,0.933352294921875,0.4024074673652649,0.30314189195632935,1.0264062881469727
1761231141754140200,0.95014013671875,0.4499022662639618,0.030695978552103043,1.080467939376831
1761231141770929700,0.9669296875,0.5616905689239502,-0.21242839097976685,1.2640329599380493
1761231141787719200,0.98371923828125,0.6656904220581055,-0.34147366881370544,1.5488488674163818
1761231141804508200,1.000508056640625,0.7921395301818848,-0.4024074673652649,1.7124079465866089
1761231141821297700,1.017297607421875,0.9503536224365234,-0.3825543522834778,1.479668378829956
1761231141838072000,1.034072021484375,1.0192286968231201,-0.035582900047302246,1.2290608882904053
1761231141854876400,1.05087646484375,0.8191702961921692,0.23090706765651703,0.9152288436889648
1761231141871662600,1.06766259765625,0.3000875413417816,-0.3159700334072113,0.41401392221450806
1761231141888458200,1.084458251953125,-0.33918291330337524,-0.5905539989471436,-0.5418374538421631
1761231141905246000,1.101245849609375,-0.6831000447273254,-0.36193767189979553,-0.8808676600456238
1761231141922032000,1.1180322265625,-0.9763153791427612,0.313373863697052,-1.1937834024429321
1761231141938825200,1.1348251953125,-1.207069754600525,0.3523165285587311,-1.5519031286239624
1761231141955607600,1.151607666015625,-1.3904820680618286,0.44516804814338684,-2.1537580490112305
1761231141972392700,1.168392822265625,-1.3460415601730347,-0.05650503560900688,-2.068847894668579
1761231141989191700,1.185191650390625,-1.057865858078003,-0.10842858254909515,-1.6551393270492554
1761231142005981000,1.20198095703125,-1.0458012819290161,-0.13225232064723969,-1.4741705656051636
1761231142022770200,1.218770263671875,-1.3555099964141846,-0.7805330753326416,-1.5039502382278442
1761231142039560400,1.235560546875,-1.7756325006484985,-1.7898352146148682,-1.5271631479263306
1761231142056349000,1.252348876953125,-1.9901989698410034,-2.15849232673645,-1.3141238689422607
1761231142073137000,1.269136962890625,-1.5639677047729492,-1.6333009004592896,-0.935081958770752
1761231142089927400,1.285927490234375,-0.6409503817558289,-0.8058840036392212,-0.3550654351711273
1761231142106706400,1.30270654296875,0.09269879758358002,-0.36422839760780334,0.1595885455608368
1761231142123506400,1.31950634765625,0.46211954951286316,-0.38835757970809937,0.566730260848999
1761231142140296000,1.3362958984375,0.5717698931694031,-0.28649580478668213,0.7394523620605469
1761231142157083000,1.353082763671875,0.6698137521743774,0.25014930963516235,0.8235990405082703
1761231142173863400,1.369863525390625,0.7483099102973938,0.7893906235694885,0.8095491528511047
1761231142190672600,1.386672607421875,0.7031059265136719,0.8759807348251343,0.6762278079986572
1761231142207453400,1.403453369140625,0.5448917746543884,0.7605272531509399,0.47250425815582275
1761231142224241200,1.4202412109375,0.3527746796607971,0.5581781268119812,0.3269656300544739
1761231142241030000,1.43702978515625,0.23350323736667633,0.40194934606552124,0.2817615866661072
1761231142257821400,1.453821533203125,0.22815817594528198,0.22678372263908386,0.2915354371070862
1761231142274612000,1.470612060546875,0.3199406862258911,0.08811730891466141,0.3591887652873993
1761231142291399000,1.48739892578125,0.44135013222694397,0.06643159687519073,0.4836525619029999
1761231142308190000,1.50418994140625,0.565203070640564,0.21899518370628357,0.622624397277832
1761231142324977200,1.52097705078125,0.7116580009460449,0.39217549562454224,0.8588765263557434
1761231142341770000,1.53777001953125,0.8000807762145996,0.7302893996238708,1.1105530261993408
1761231142358557700,1.5545576171875,0.9340129494667053,0.8726209998130798,1.3371840715408325
1761231142375347000,1.571346923828125,0.7889324426651001,-0.34544429183006287,1.6484198570251465
1761231142392136700,1.58813671875,0.5907067060470581,-1.2428053617477417,0.7170031070709229
1761231142408925700,1.60492578125,0.59803706407547,-0.4743368625640869,-0.03375030308961868
1761231142425715200,1.621715087890625,0.11102475970983505,1.5505287647247314,0.03741549700498581
1761231142442504700,1.638504638671875,-0.4564690589904785,2.537839651107788,-0.1768454909324646
1761231142459294000,1.6552939453125,-0.34697145223617554,0.836885392665863,-0.7287622094154358
1761231142476083500,1.67208349609375,-0.7383833527565002,-0.6131559610366821,-1.0543533563613892
1761231142492860000,1.68885986328125,-1.035722017288208,-0.8938485980033875,-1.2738068103790283
1761231142509647400,1.7056474609375,-1.1511754989624023,-0.9747881889343262,-1.2486085891723633
1761231142526451500,1.722451416015625,-1.2101240158081055,-0.8063421249389648,-1.2655600309371948
1761231142543239700,1.73923974609375,-1.1131491661071777,-0.5688682794570923,-1.1959214210510254
1761231142560030200,1.7560302734375,-0.935998260974884,-0.5682573914527893,-1.1951578855514526
1761231142576819700,1.77281982421875,-0.8290968537330627,-0.44715335965156555,-0.9975429177284241
1761231142593609000,1.78960888671875,-0.7745771408081055,-0.3767511546611786,-0.6872233748435974
1761231142610398200,1.806398193359375,-0.6577491760253906,-0.6050620079040527,-0.37888917326927185
1761231142627188000,1.82318798828125,-0.4714352488517761,-0.7197519540786743,-0.14446963369846344
1761231142643977200,1.839977294921875,-0.17577648162841797,-0.650418758392334,0.08109235763549805
1761231142660766500,1.856766357421875,0.25503623485565186,-0.34666603803634644,0.5972734689712524
1761231142677554400,1.873554443359375,0.6524040699005127,-0.23105977475643158,1.20859694480896
1761231142694347000,1.890346923828125,0.6934847831726074,-0.11148291081190109,1.1684324741363525
1761231142711134700,1.907134765625,0.5560401082038879,0.10277807712554932,0.8782715201377869
1761231142727924000,1.923924072265625,0.3199406862258911,0.2958115041255951,0.5510004758834839
1761231142744713700,1.940713623046875,0.11621711403131485,0.5288565754890442,0.25274550914764404
1761231142761503000,1.9575029296875,-0.10354165732860565,0.5262604355812073,-0.014966198243200779
1761231142778292000,1.9742919921875,-0.2874121069908142,0.15760323405265808,-0.24159720540046692
1761231142795081700,1.991081787109375,-0.3903428912162781,-0.24236078560352325,-0.39965859055519104
1761231142811870700,2.00787060546875,-0.3217732608318329,-0.2018909603357315,-0.38988474011421204
1761231142828660200,2.02466015625,-0.18814650177955627,0.1976149082183838,-0.06169738993048668
1761231142845450200,2.0414501953125,0.061391957104206085,0.3770565688610077,0.3341432809829712
1761231142862237700,2.05823779296875,0.5051855444908142,0.2857322096824646,0.6872233748435974
1761231142879028200,2.0750283203125,1.1033753156661987,0.45036038756370544,0.9311113357543945
1761231142895818000,2.09181787109375,1.6029103994369507,0.95462965965271,1.136056661605835
1761231142912607200,2.108607177734375,2.285857677459717,1.2986994981765747,2.0008890628814697
1761231142929396500,2.125396484375,1.9691240787506104,-0.37461310625076294,1.689195156097412
1761231142946186500,2.1421865234375,1.3422236442565918,-1.786780834197998,0.7353290319442749
1761231142962975200,2.158975341796875,0.28496864438056946,-1.0751228332519531,-0.03573561832308769
1761231142979764700,2.1757646484375,-0.856433093547821,1.0783299207687378,-0.2701551616191864
1761231142996554800,2.1925546875,-0.1670716404914856,1.6988162994384766,-0.5287038683891296
1761231143013343700,2.20934375,-0.7432702779769897,0.9836457371711731,-0.9445503950119019
1761231143030132700,2.2261328125,-1.1962268352508545,-0.4092797040939331,-1.1704177856445312
1761231143046922000,2.242921875,-1.4543174505233765,-0.6531676650047302,-1.4080443382263184
1761231143063711700,2.259711669921875,-1.356884479522705,-0.593302845954895,-1.3881912231445312
1761231143080499500,2.27649951171875,-1.1238393783569336,-0.38866302371025085,-1.1415544748306274
1761231143097292300,2.293292236328125,-1.0065531730651855,-0.16661348938941956,-0.8707883954048157
1761231143114078200,2.310078125,-1.069472312927246,-0.3130684494972229,-0.6339253783226013
1761231143130869200,2.326869140625,-1.112691044807434,-0.7710646390914917,-0.4109596014022827
1761231143147647500,2.3436474609375,-0.8978192210197449,-1.2820534706115723,-0.33399057388305664
1761231143164437800,2.360437744140625,-0.517250120639801,-1.158811330795288,-0.09865473955869675
1761231143181222700,2.37722265625,-0.0679587572813034,-0.5013676285743713,0.526107668876648
1761231143198030000,2.394030029296875,0.35124751925468445,-0.3208569586277008,1.0086911916732788
1761231143214814200,2.410814208984375,0.6313292384147644,-0.3640756905078888,0.9132435321807861
1761231143231605500,2.42760546875,0.6206390857696533,-0.12370020896196365,0.5371032953262329
1761231143248394500,2.44439453125,0.5768095254898071,0.2503020465373993,0.1408044397830963
1761231143265182700,2.4611826171875,0.4928155243396759,0.4492913782596588,-0.07330382615327835
1761231143281974300,2.477974365234375,0.3358231782913208,0.5348125100135803,-0.27611109614372253
1761231143298764000,2.494763916015625,0.1647808998823166,0.5016731023788452,-0.46547931432724
1761231143315551200,2.51155126953125,0.08277224004268646,0.34086281061172485,-0.4112650156021118
1761231143332341800,2.528341796875,0.10048733651638031,0.34025195240974426,-0.11362093687057495
1761231143349131000,2.545131103515625,0.1569923609495163,0.4853324294090271,0.21105393767356873
1761231143365920500,2.56192041015625,0.24663683772087097,0.6188064813613892,0.46929723024368286
1761231143382708200,2.578708251953125,0.4738787114620209,0.6571382880210876,0.6824892163276672
1761231143399484000,2.59548388671875,0.8043568134307861,0.6441574096679688,0.9772316813468933
1761231143416288500,2.61228857421875,1.1233811378479004,0.9772316813468933,1.1869112253189087
1761231143433076200,2.629076171875,1.3752104043960571,1.2944234609603882,1.1714868545532227
1761231143449869300,2.645869384765625,1.4501941204071045,1.1336132287979126,1.5431983470916748
1761231143466656800,2.66265673828125,1.2788463830947876,-0.5119050741195679,1.5331190824508667
1761231143483446300,2.6794462890625,1.1119275093078613,-1.1410962343215942,0.4375322461128235
1761231143500234000,2.69623388671875,0.36453384160995483,-0.5902485251426697,-0.10201449692249298
1761231143517026600,2.713026611328125,0.04352414980530739,1.8387043476104736,-0.1241583600640297
1761231143533812700,2.729812744140625,-0.016340645030140877,0.8049677014350891,-0.864679753780365
1761231143550605300,2.746605224609375,-0.528245747089386,-0.7284567952156067,-1.1068878173828125
1761231143567392800,2.763392822265625,-1.094365119934082,-1.0505355596542358,-1.1948524713516235
1761231143584182500,2.7801826171875,-1.291369080543518,-1.0250319242477417,-1.3405437469482422
1761231143600971800,2.7969716796875,-1.3028228282928467,-0.5900958180427551,-1.345278024673462
1761231143617761300,2.81376123046875,-1.200502872467041,-0.0633772686123848,-1.3154983520507812
1761231143634549200,2.83054931640625,-1.243721604347229,0.23228150606155396,-1.2912163734436035
1761231143651325400,2.847325439453125,-1.3095424175262451,0.08735372871160507,-1.3199270963668823
1761231143668127000,2.864126953125,-1.5341880321502686,-0.18875735998153687,-1.362382173538208
1761231143684918300,2.880918212890625,-1.638798713684082,-0.3933972120285034,-0.8764389157295227
1761231143701708500,2.89770849609375,-1.3524556159973145,-0.609338104724884,-0.4127921760082245
1761231143718497500,2.91449755859375,-0.7031059265136719,-0.4521929919719696,-0.10094548016786575
1761231143735286800,2.931286865234375,-0.14844025671482086,-0.25595253705978394,0.17562375962734222
1761231143752075300,2.9480751953125,0.29535335302352905,-0.28649580478668213,0.4158465266227722
1761231143768865000,2.964864990234375,0.5520694851875305,-0.36132678389549255,0.688903272151947
1761231143785656600,2.981656494140625,0.5894849896430969,-0.2125810980796814,0.9074403047561646
1761231143802436400,2.998436279296875,0.6214026808738708,-0.17348572611808777,1.0002918243408203
1761231143819233800,3.01523388671875,0.5951354503631592,-0.251676470041275,1.0118982791900635
1761231143836023300,3.032023193359375,0.5232060551643372,-0.18631389737129211,0.8872817754745483
1761231143852812500,3.0488125,0.4008803069591522,-0.02519819140434265,0.5140430927276611
1761231143869601800,3.065601806640625,0.3851505517959595,0.28069257736206055,0.18478673696517944
1761231143886391300,3.082391357421875,0.40301835536956787,0.5354233980178833,0.003054326167330146
1761231143903180500,3.0991806640625,0.4190535545349121,0.8379544019699097,0.008857546374201775
1761231143919968300,3.11596826171875,0.47540587186813354,1.154382586479187,0.29856038093566895
1761231143936747800,3.132747802734375,0.5821545720100403,0.9630290865898132,0.6925684809684753
1761231143953545700,3.149545654296875,0.8006916046142578,0.5334380865097046,1.0351111888885498
1761231143970339600,3.166339599609375,1.0881037712097168,0.6511823534965515,1.0958921909332275
1761231143987125800,3.183125732421875,1.2767083644866943,1.0719157457351685,0.9867000579833984
1761231144003918600,3.199918701171875,1.1122329235076904,0.6090326309204102,1.2342532873153687
1761231144020706300,3.216706298828125,0.9286679029464722,-0.7383833527565002,1.4054481983184814
1761231144037495600,3.23349560546875,0.4980078935623169,-1.8742872476577759,0.45463645458221436
1761231144054285000,3.25028515625,0.28435778617858887,-1.2773191928863525,-0.36453384160995483
1761231144071074300,3.26707421875,0.5868887901306152,1.91399347782135,1.04289972782135
1761231144087864000,3.283864013671875,0.9216429591178894,2.34786057472229,1.0404561758041382
1761231144104653000,3.300653076171875,0.08628471940755844,-0.3793473243713379,0.07956519722938538
1761231144121442600,3.317442626953125,-0.7408268451690674,-1.7099645137786865,-0.8762862086296082
1761231144138230500,3.33423046875,-0.967915952205658,-1.5644259452819824,-1.3202325105667114
1761231144155022800,3.35102294921875,-1.169806957244873,-0.7515169382095337,-1.563051462173462
1761231144171810600,3.367810546875,-1.3573426008224487,-0.23228150606155396,-1.6084082126617432
1761231144188588300,3.38458837890625,-1.2805262804031372,0.1111774742603302,-1.560455322265625
1761231144205378300,3.40137841796875,-1.2855658531188965,0.646906316280365,-1.5112806558609009
1761231144222179600,3.4181796875,-1.253495454788208,0.954018771648407,-1.5308283567428589
1761231144238968300,3.43496826171875,-1.2125675678253174,0.8535314798355103,-1.5476270914077759
1761231144255757800,3.4517578125,-1.2651019096374512,0.08659014850854874,-1.3631458282470703
1761231144272545500,3.468545654296875,-1.3139711618423462,-0.6679811477661133,-1.0865765810012817
1761231144289336600,3.485336669921875,-1.2163853645324707,-0.854905903339386,-0.6155994534492493
1761231144306123300,3.502123291015625,-0.9279043078422546,-0.7718282341957092,-0.10735956579446793
1761231144322905900,3.51890576171875,-0.543059229850769,-0.8286387324333191,0.2718350291252136
1761231144339704300,3.535704345703125,-0.1281289905309677,-0.6867652535438538,0.5593998432159424
1761231144356494000,3.552494140625,0.19654589891433716,-0.48640143871307373,0.7079927921295166
1761231144373283600,3.56928369140625,0.35445454716682434,-0.29184088110923767,0.7374670505523682
1761231144390072600,3.586072509765625,0.4476115107536316,-0.15164729952812195,0.8113817572593689
1761231144406866700,3.60286669921875,0.5094616413116455,-0.01817324012517929,0.8726209998130798
1761231144423640600,3.619640625,0.5552765130996704,0.10094548016786575,0.7826710939407349
1761231144440441000,3.636441162109375,0.5093088746070862,0.31291571259498596,0.5803219676017761
1761231144457229800,3.653229736328125,0.4242459237575531,0.5158756971359253,0.35781431198120117
1761231144474019800,3.670019775390625,0.3799581825733185,0.5859724879264832,0.2444988191127777
1761231144490808000,3.68680810546875,0.40301835536956787,0.7017314434051514,0.22220222651958466
1761231144507600000,3.703599853515625,0.5258022546768188,0.997848391532898,0.3393356502056122
1761231144524387600,3.7203876953125,0.8126034736633301,1.1087204217910767,0.7342600226402283
1761231144541177900,3.737177734375,1.1785117387771606,1.0320568084716797,1.3532192707061768
1761231144557965800,3.7539658203125,1.467145562171936,1.2232576608657837,1.4506522417068481
1761231144574756000,3.770756103515625,1.616654872894287,1.316567301750183,1.4158328771591187
1761231144591543800,3.787543701171875,1.436144232749939,0.22113321721553802,1.3946053981781006
1761231144608334600,3.80433447265625,1.323439598083496,-1.282817006111145,0.48976120352745056
1761231144625121500,3.82112158203125,0.9556986689567566,-1.2716686725616455,-0.3136793076992035
1761231144641916000,3.837916015625,0.3692680299282074,0.0377209298312664,-0.014355333521962166
1761231144658702800,3.854702880859375,0.48426342010498047,2.5002715587615967,1.9126191139221191
1761231144675492000,3.8714921875,0.39996400475502014,0.8732318878173828,0.8544477820396423
1761231144692281900,3.88828173828125,-0.38835757970809937,-1.434617042541504,-0.3599523603916168
1761231144709070800,3.90507080078125,-0.736245334148407,-1.8141170740127563,-1.1062769889831543
1761231144725857500,3.921857421875,-0.801913321018219,-1.5338826179504395,-1.4326317310333252
1761231144742651100,3.938651123046875,-1.0228939056396484,-0.45433104038238525,-1.8515325784683228
1761231144759439000,3.955439208984375,-1.1166616678237915,0.021074850112199783,-1.82877779006958
1761231144776228400,3.972228271484375,-1.221272349357605,0.4938845634460449,-1.5419765710830688
1761231144793017900,3.989017822265625,-1.1737775802612305,0.8594874143600464,-1.4808900356292725
1761231144809807000,4.00580712890625,-1.239598274230957,1.1030699014663696,-1.4158328771591187
1761231144826596600,4.0225966796875,-1.3608551025390625,0.930347740650177,-1.3607022762298584
1761231144843385900,4.0393857421875,-1.5013540983200073,0.17470745742321014,-1.320385217666626
1761231144860175600,4.056175537109375,-1.6242907047271729,-0.709061861038208,-1.1249083280563354
1761231144876964600,4.072964599609375,-1.5961909294128418,-1.140179991722107,-0.7188356518745422
1761231144893754400,4.08975439453125,-1.1959214210510254,-1.165683627128601,-0.20173825323581696
1761231144910532400,4.106532470703125,-0.616973876953125,-0.9905179738998413,0.2773328125476837
1761231144927332900,4.123332763671875,-0.10094548016786575,-0.6461427211761475,0.5650503635406494
1761231144944122600,4.14012255859375,0.2125810980796814,-0.5392413139343262,0.70692378282547
1761231144960911600,4.15691162109375,0.4050036668777466,-0.5690209865570068,0.7334964275360107
1761231144977701000,4.173701171875,0.574976921081543,-0.4196644127368927,0.8058840036392212
1761231144994490400,4.190490478515625,0.6524040699005127,-0.24556782841682434,0.8362745046615601
1761231145011280100,4.207280029296875,0.6896668672561646,0.01817324012517929,0.8309294581413269
1761231145028069000,4.224069091796875,0.6630942225456238,0.3602577745914459,0.694553792476654
1761231145044857300,4.240857421875,0.5705481171607971,0.5508477091789246,0.5316054821014404
1761231145061648100,4.257648193359375,0.5244278311729431,0.5832235813140869,0.4196644127368927
1761231145078437400,4.274437255859375,0.5264131426811218,0.6094908118247986,0.3904955983161926
1761231145095227000,4.291226806640625,0.5928447246551514,0.6415612101554871,0.5065600275993347
1761231145112016100,4.30801611328125,0.7730499505996704,0.6200281977653503,0.6902777552604675
1761231145128805400,4.324805419921875,1.0355693101882935,0.46731191873550415,0.9396634697914124
1761231145145595000,4.341594970703125,1.3516920804977417,0.6918048858642578,1.2527319192886353
1761231145162384400,4.35838427734375,1.5092953443527222,1.1494957208633423,1.4899003505706787
1761231145179171800,4.375171875,1.3614659309387207,0.09147707372903824,2.1623103618621826
1761231145195963100,4.391963134765625,1.211498498916626,-2.031890630722046,1.3752104043960571
1761231145212754200,4.408754150390625,0.8677340745925903,-1.7522670030593872,-0.11102475970983505
1761231145229542000,4.4255419921875,0.46792277693748474,0.5088507533073425,-0.12095131725072861
1761231145246331100,4.4423310546875,0.7099781036376953,2.995683193206787,0.7073819637298584
1761231145263120600,4.45912060546875,0.8141306638717651,2.8913779258728027,0.45142942667007446
1761231145279910000,4.475909912109375,0.03130684420466423,0.1186605766415596,0.048258353024721146
1761231145296693500,4.492693603515625,-0.697760820388794,-1.9057468175888062,-0.855516791343689
1761231145313478000,4.509477783203125,-0.8017606139183044,-2.177581787109375,-1.3811663389205933
1761231145330278100,4.526278076171875,-0.8918632864952087,-1.4048373699188232,-1.726457953453064
1761231145347054300,4.543054443359375,-1.1018482446670532,-0.7171558141708374,-1.8090773820877075
1761231145363856000,4.55985595703125,-1.200197458267212,-0.22143864631652832,-1.7163785696029663
1761231145380644600,4.57664453125,-1.3807082176208496,0.22586742043495178,-1.4944818019866943
1761231145397437400,4.5934375,-1.426675796508789,0.49327367544174194,-1.379333734512329
1761231145414225000,4.610224853515625,-1.3939944505691528,0.5308418869972229,-1.4811954498291016
1761231145431016000,4.627015869140625,-1.3767375946044922,0.09728029370307922,-1.4828753471374512
1761231145447804000,4.643803955078125,-1.3293955326080322,-0.608421802520752,-1.2713632583618164
1761231145464593200,4.66059326171875,-1.1186469793319702,-0.9495900273323059,-0.793361246585846
1761231145481377000,4.677376953125,-0.7290676832199097,-0.8177958726882935,-0.18570303916931152
1761231145498172000,4.694171875,-0.2747366428375244,-0.6716463565826416,0.36972618103027344
1761231145514959600,4.710959716796875,0.14126259088516235,-0.5902485251426697,0.7793113589286804
1761231145531752400,4.72775244140625,0.33169981837272644,-0.5480988621711731,0.9564622640609741
1761231145548540000,4.744539794921875,0.4639521539211273,-0.36300668120384216,0.978606104850769
1761231145565330700,4.76133056640625,0.5371032953262329,-0.0529925599694252,0.9995282292366028
1761231145582119200,4.778119140625,0.5618433356285095,0.230448916554451,0.893390417098999
1761231145598910000,4.794909912109375,0.45982882380485535,0.49067750573158264,0.5681046843528748
1761231145615695600,4.811695556640625,0.34697145223617554,0.7096726894378662,0.25045475363731384
1761231145632487400,4.8284873046875,0.30894508957862854,0.7461718916893005,0.036651913076639175
1761231145649276400,4.8452763671875,0.3352122902870178,0.82207190990448,-0.10384709388017654
1761231145666067000,4.86206689453125,0.44806966185569763,0.9193521738052368,0.016340645030140877
1761231145682854700,4.878854736328125,0.6869179606437683,0.6969972252845764,0.6004805564880371
1761231145699641600,4.8956416015625,0.9950994849205017,0.3173444867134094,1.5238033533096313
1761231145716437500,4.9124375,1.324508547782898,0.717613935470581,1.493260145187378
1761231145733224400,4.929224365234375,1.340238332748413,1.2272282838821411,0.90728759765625
1761231145750012700,4.9460126953125,1.2180652618408203,0.5027421116828918,1.558011770248413
1761231145766802200,4.96280224609375,0.9179777503013611,-2.2119431495666504,1.5622878074645996
1761231145783591700,4.979591796875,0.6154467463493347,-2.5453226566314697,1.0181596279144287
1761231145800382000,4.9963818359375,0.027947084978222847,0.0780380368232727,0.9126327037811279
1761231145817157000,5.0131572265625,-0.07147123664617538,2.2737932205200195,0.44593164324760437
1761231145833959400,5.02995947265625,-0.2099849283695221,2.217288017272949,-0.2093740701675415
1761231145850749200,5.046749267578125,-0.4161519408226013,0.7860308289527893,-0.942259669303894
1761231145867539500,5.06353955078125,-0.7623597979545593,0.06230825558304787,-1.4004086256027222
1761231145884327700,5.08032763671875,-0.9717338681221008,-0.08048149943351746,-1.5978707075119019
1761231145901117200,5.0971171875,-0.9818131923675537,-0.4265366494655609,-1.6549866199493408
1761231145917906700,5.11390673828125,-0.9921978712081909,-0.6976081132888794,-1.7282904386520386
1761231145934695400,5.1306953125,-0.9750936627388,-0.5514585971832275,-1.6528486013412476
1761231145951482000,5.147482177734375,-1.0655016899108887,-0.47937649488449097,-1.5661057233810425
1761231145968270800,5.164270751953125,-1.1898127794265747,-0.7063129544258118,-1.3802499771118164
1761231145985060900,5.181060791015625,-1.3397802114486694,-0.7782423496246338,-1.1233811378479004
1761231146001857500,5.197857421875,-1.433700680732727,-0.8188648819923401,-0.8159632682800293
1761231146018643200,5.214643310546875,-1.1296426057815552,-0.9955576062202454,-0.470060795545578
1761231146035432200,5.23143212890625,-0.6006332635879517,-0.9094256162643433,-0.16554448008537292
1761231146052221700,5.2482216796875,-0.19944749772548676,-0.5494732856750488,0.21181751787662506
1761231146069015600,5.265015625,0.07910704612731934,-0.18417587876319885,0.5876523852348328
1761231146085796900,5.281796875,0.3309362530708313,-0.08414668589830399,0.7571674585342407
1761231146102589700,5.298589599609375,0.4983133375644684,0.058337632566690445,0.8069530129432678
1761231146127774200,5.323774169921875,0.6328563690185547,0.23075434565544128,0.8032878041267395
1761231146144563000,5.34056298828125,0.5929974317550659,0.3689626157283783,0.7076873779296875
1761231146161348900,5.357348876953125,0.46792277693748474,0.5262604355812073,0.48166725039482117
1761231146178146000,5.37414599609375,0.32559117674827576,0.5751296281814575,0.22220222651958466
1761231146194930000,5.390929931640625,0.2528982162475586,0.5404630303382874,0.10201449692249298
1761231146211705000,5.407705078125,0.2396118938922882,0.6311765313148499,0.16462817788124084
1761231146228513500,5.424513427734375,0.3874412775039673,0.7402159571647644,0.3927863538265228
1761231146245299700,5.4412998046875,0.6950119137763977,0.5302310585975647,0.755793035030365
1761231146262089000,5.4580888671875,1.1042916774749756,0.33628132939338684,1.3559681177139282
1761231146278878500,5.47487841796875,1.3950635194778442,0.5422956347465515,1.5902349948883057
1761231146295668200,5.491668212890625,1.49738347530365,0.6983717083930969,1.4242323637008667
1761231146312457200,5.508457275390625,1.399950385093689,-0.18020524084568024,1.2350168228149414
1761231146329246700,5.525246826171875,1.048397421836853,-1.7496707439422607,0.7049384713172913
1761231146346035700,5.54203564453125,0.6794348955154419,-1.7395914793014526,-0.025045474991202354
1761231146362825500,5.558825439453125,0.39248090982437134,0.28527405858039856,0.30222558975219727
1761231146379614200,5.5756142578125,0.2739730477333069,2.352900266647339,0.47678032517433167
1761231146396404500,5.592404541015625,0.07864890247583389,1.6615535020828247,-0.15500704944133759
1761231146413194800,5.60919482421875,-0.5360342264175415,-0.12247848510742188,-0.9167560338973999
1761231146429978600,5.625978515625,-0.9332493543624878,-1.1498011350631714,-1.0699304342269897
1761231146446776800,5.64277685546875,-1.00502610206604,-1.1433870792388916,-1.2205088138580322
1761231146463561700,5.659561767578125,-1.0781772136688232,-0.43936482071876526,-1.3619240522384644
1761231146480351200,5.676351318359375,-1.0897835493087769,0.07513642311096191,-1.3865114450454712
1761231146497140700,5.693140625,-1.0841331481933594,0.4712825417518616,-1.3909401893615723
1761231146513928000,5.709927978515625,-1.037249207496643,0.42989641427993774,-1.387580394744873
1761231146530711000,5.7267109375,-1.0577131509780884,0.22388210892677307,-1.4022411108016968
1761231146547507200,5.743507080078125,-1.1820242404937744,-0.010842857882380486,-1.3348932266235352
1761231146564300000,5.760300048828125,-1.3744467496871948,-0.39706242084503174,-1.0742065906524658
1761231146581087200,5.777087158203125,-1.391703724861145,-0.9159924387931824,-0.7809911966323853
1761231146597877000,5.793876953125,-1.0983357429504395,-1.102917194366455,-0.5170974135398865
1761231146614666200,5.810666259765625,-0.6464481353759766,-1.0616837739944458,-0.2767219543457031
1761231146631442400,5.8274423828125,-0.09682214260101318,-0.8339837789535522,0.1586722433567047
1761231146648245200,5.844245361328125,0.432034432888031,-0.4178318381309509,0.5893322229385376
1761231146665034500,5.861034423828125,0.569631814956665,-0.12919799983501434,0.7913759350776672
1761231146681823700,5.87782373046875,0.6322455406188965,-0.015882495790719986,0.8248208165168762
1761231146698613200,5.89461328125,0.6320928335189819,0.12064588814973831,0.8307767510414124
1761231146715389200,5.91138916015625,0.5687155723571777,0.19425514340400696,0.7544185519218445
1761231146732189000,5.92818896484375,0.43967026472091675,0.266184538602829,0.5145012736320496
1761231146748984300,5.944984375,0.36651915311813354,0.4251621961593628,0.30115658044815063
1761231146765770500,5.9617705078125,0.36071592569351196,0.6291912198066711,0.16752979159355164
1761231146782559700,5.978559814453125,0.45631635189056396,0.8097018599510193,0.12980885803699493
1761231146799349800,5.995349853515625,0.6931793093681335,0.7641924023628235,0.3597996234893799
1761231146816138500,6.012138427734375,0.9524916410446167,0.5404630303382874,0.6928738951683044
1761231146832927700,6.028927734375,1.2446379661560059,0.34758231043815613,1.106735110282898
1761231146849718000,6.045718017578125,1.407128095626831,0.5523748993873596,1.2919800281524658
1761231146866507000,6.062507080078125,1.47844660282135,1.055269718170166,1.5499178171157837
1761231146883296000,6.0792958984375,1.2716686725616455,0.04596760869026184,1.9281961917877197
1761231146900085500,6.09608544921875,1.059698462486267,-1.3784173727035522,1.2150110006332397
1761231146916875300,6.112875244140625,0.7199047207832336,-1.763109803199768,0.27382034063339233
1761231146933664500,6.12966455078125,0.2863430976867676,-1.217454433441162,0.06582073122262955
1761231146950451000,6.146450927734375,0.012828170321881771,0.9195048809051514,0.26053401827812195
1761231146967245300,6.163245361328125,0.32910364866256714,1.9822577238082886,0.5792529582977295
1761231146984032500,6.180032470703125,0.07987063378095627,2.129934310913086,0.5262604355812073
1761231147000822000,6.196822021484375,-0.4830417037010193,0.7168503403663635,0.24174992740154266
1761231147017611300,6.213611328125,-0.8419250249862671,-1.2405146360397339,-0.627358615398407
1761231147034400800,6.23040087890625,-0.8530732989311218,-1.493260145187378,-1.2023354768753052
1761231147051190500,6.2471904296875,-0.8958339095115662,-0.8429940342903137,-1.6232216358184814
1761231147067976400,6.2639765625,-1.0399980545043945,-0.34162637591362,-1.8669569492340088
1761231147084766700,6.2807666015625,-1.2162326574325562,-0.16783522069454193,-1.867567777633667
1761231147101558300,6.297558349609375,-1.217454433441162,0.031001411378383636,-1.7362316846847534
1761231147118347800,6.31434765625,-1.2315043210983276,0.3045163154602051,-1.5025757551193237
1761231147135137500,6.331137451171875,-1.198823094367981,0.38209620118141174,-1.32863187789917
1761231147151926000,6.347926025390625,-1.2281445264816284,-0.060933809727430344,-1.1888965368270874
1761231147168716300,6.36471630859375,-1.2924381494522095,-0.6259841322898865,-1.0835222005844116
1761231147185505800,6.381505859375,-1.1317806243896484,-1.2855658531188965,-0.8239045143127441
1761231147202291700,6.398291748046875,-0.8292495608329773,-1.3532192707061768,-0.2848159074783325
1761231147219069200,6.415069091796875,-0.43508878350257874,-0.8330674767494202,0.3695734739303589
1761231147235861500,6.431861572265625,-0.014355333521962166,-0.3533855378627777,0.8715519905090332
1761231147252665900,6.448665771484375,0.28909197449684143,0.19425514340400696,0.9046914577484131
1761231147269453000,6.465453125,0.39935314655303955,0.299476683139801,0.8413141369819641
1761231147286242600,6.48224267578125,0.4331034719944,0.17638733983039856,0.7727445363998413
1761231147303031800,6.49903173828125,0.40943244099617004,0.23686300218105316,0.6475171446800232
1761231147319808300,6.515808349609375,0.32330042123794556,0.379652738571167,0.45952337980270386
1761231147336610800,6.53261083984375,0.25503623485565186,0.37400224804878235,0.22815817594528198
1761231147353398000,6.54939794921875,0.24908030033111572,0.34895676374435425,0.1293507218360901
1761231147370190000,6.566190185546875,0.2742784917354584,0.45982882380485535,0.12095131725072861
1761231147386980600,6.582980712890625,0.3819434940814972,0.6113234162330627,0.29336804151535034
1761231147403768300,6.599768310546875,0.5842925906181335,0.6299547553062439,0.5119050741195679
1761231147420557800,6.616557861328125,0.870330274105072,0.4363104999065399,0.8072584271430969
1761231147437337900,6.633337890625,1.1624765396118164,0.48747047781944275,1.2683089971542358
1761231147454134000,6.650134033203125,1.3506230115890503,0.6426302194595337,1.5460999011993408
1761231147470928100,6.66692822265625,1.4883731603622437,0.9140071272850037,1.4114041328430176
1761231147487713800,6.6837138671875,1.5801557302474976,0.7816020846366882,1.4978415966033936
1761231147504506000,6.700506103515625,1.3458888530731201,-1.32863187789917,1.286940336227417
1761231147521294000,6.717294189453125,1.0642799139022827,-2.0784690380096436,0.33719760179519653
1761231147538083600,6.73408349609375,0.6310238242149353,-0.03436116874217987,0.09529497474431992
1761231147554872800,6.750872802734375,0.31352660059928894,2.0839667320251465,0.17027868330478668
1761231147571662000,6.767662109375,0.14508049190044403,2.0648772716522217,-0.1941024363040924
1761231147588451800,6.784451904296875,-0.4043927788734436,0.33857205510139465,-0.4184426963329315
1761231147605239800,6.80123974609375,-0.7255551815032959,-0.9237809777259827,-0.6603453159332275
1761231147622030300,6.8180302734375,-0.6215553879737854,-1.524261474609375,-0.9783006906509399
1761231147638820900,6.83482080078125,-0.6459900140762329,-1.1646145582199097,-1.4602733850479126
1761231147655609000,6.851609130859375,-0.9242390990257263,-0.7087563872337341,-1.785253643989563
1761231147672398800,6.86839892578125,-1.1763737201690674,-0.2762638032436371,-1.9037615060806274
1761231147689187800,6.885187744140625,-1.4245377779006958,-0.02382374368607998,-1.7385225296020508
1761231147705964300,6.90196435546875,-1.486693263053894,0.12782354652881622,-1.4456125497817993
1761231147722766600,6.9187666015625,-1.5706872940063477,0.09086620807647705,-1.3715451955795288
1761231147739556000,6.93555615234375,-1.645671010017395,-0.10231992602348328,-1.3217597007751465
1761231147756332500,6.95233251953125,-1.541213035583496,-0.4737260043621063,-1.0528262853622437
1761231147773134800,6.969134765625,-1.1884382963180542,-0.8823948502540588,-0.6453791260719299
1761231147789924400,6.98592431640625,-0.6049093008041382,-0.7973318696022034,-0.18707747757434845
1761231147806701800,7.002701904296875,-0.07116580009460449,-0.4231768846511841,0.36560285091400146
1761231147823503000,7.019503173828125,0.30833423137664795,-0.0685696229338646,0.7852672934532166
1761231147840292400,7.036292236328125,0.44394633173942566,-0.03726277872920036,1.0435105562210083
1761231147857079000,7.0530791015625,0.45036038756370544,0.050243668258190155,1.060614824295044
1761231147873870300,7.069870361328125,0.4963280260562897,0.27091872692108154,0.8516988754272461
1761231147890645200,7.086645263671875,0.47678032517433167,0.569631814956665,0.608421802520752
1761231147907449900,7.103449951171875,0.36590829491615295,0.7945829629898071,0.20784689486026764
1761231147924238300,7.12023828125,0.22708915174007416,0.6580545902252197,-0.19120082259178162
1761231147941027600,7.137027587890625,0.14263702929019928,0.37339138984680176,-0.28955012559890747
1761231147957818000,7.153818115234375,0.0780380368232727,0.2431243658065796,-0.12980885803699493
1761231147974608000,7.17060791015625,0.15882496535778046,0.12996158003807068,0.23686300218105316
1761231147991397400,7.1873974609375,0.3698789179325104,0.1866193264722824,0.6058256030082703
1761231148008186000,7.20418603515625,0.7470881938934326,0.33429601788520813,1.052215337753296
1761231148024965000,7.220965087890625,1.1707231998443604,0.5355761051177979,1.5945110321044922
1761231148041765000,7.23776513671875,1.462716817855835,0.8526151776313782,1.412778615951538
1761231148058554600,7.2545546875,1.7395914793014526,1.4508049488067627,1.1840095520019531
1761231148075344000,7.27134375,1.8379408121109009,0.9703594446182251,1.8165605068206787
1761231148092123100,7.288123046875,1.4602733850479126,-1.3862059116363525,1.7452419996261597
1761231148108923000,7.3049228515625,1.0529789924621582,-2.989421844482422,1.3581061363220215
1761231148125712000,7.3217119140625,0.4349360466003418,-0.9940304756164551,-0.0861319974064827
1761231148142501400,7.33850146484375,0.039248090237379074,2.0763309001922607,-0.4818199574947357
1761231148159291000,7.355290771484375,-0.17821992933750153,2.5389087200164795,-0.6724098920822144
1761231148176080400,7.372080322265625,-0.32070425152778625,1.8277088403701782,0.19058994948863983
1761231148192870000,7.388869873046875,-0.6670648455619812,0.009162978269159794,0.2886338233947754
1761231148209659000,7.405658935546875,-0.7247915863990784,-1.353830099105835,-0.7266241908073425
1761231148226434000,7.42243408203125,-0.709061861038208,-1.3776538372039795,-1.5691601037979126
1761231148243238000,7.43923779296875,-0.825584352016449,-0.6429356932640076,-1.8759671449661255
1761231148260027100,7.456027099609375,-1.0039570331573486,-0.07590000331401825,-2.065640926361084
1761231148276817000,7.47281689453125,-1.1968377828598022,0.03634648025035858,-1.9350683689117432
1761231148293606000,7.48960595703125,-1.3238977193832397,0.0003054326225537807,-1.623374342918396
1761231148310393600,7.5063935546875,-1.3849842548370361,-0.019853120669722557,-1.517236590385437
1761231148327186200,7.523186279296875,-1.4126259088516235,-0.12308934330940247,-1.4315626621246338
1761231148343959000,7.539958984375,-1.3487904071807861,-0.4329507350921631,-1.229519009590149
1761231148360763600,7.556763671875,-1.1078041791915894,-0.7447974681854248,-0.869719386100769
1761231148377552100,7.57355224609375,-0.6730207800865173,-0.864679753780365,-0.33292156457901
1761231148394343400,7.590343505859375,-0.2977968156337738,-0.8480336666107178,0.308792382478714
1761231148411131600,7.607131591796875,-0.07009678333997726,-0.7009678483009338,0.7524332404136658
1761231148427921000,7.6239208984375,0.06459899991750717,-0.5242751240730286,0.9556986689567566
1761231148444710700,7.640710693359375,0.2122756689786911,-0.38637226819992065,0.922711968421936
1761231148461500000,7.6575,0.3663664162158966,-0.07330382615327835,0.7324274182319641
1761231148478289400,7.674289306640625,0.40775254368782043,0.41462478041648865,0.5233588218688965
1761231148495078000,7.691077880859375,0.36453384160995483,0.8219192028045654,0.3182607889175415
1761231148511868000,7.707867919921875,0.3081815242767334,0.9370672702789307,0.0981965884566307
1761231148528657400,7.724657470703125,0.33292156457901,0.8584184050559998,-0.03390302136540413
1761231148545446700,7.74144677734375,0.37537670135498047,0.7221954464912415,0.06169738993048668
1761231148562235100,7.758235107421875,0.46593746542930603,0.5583308339118958,0.3799581825733185
1761231148579022800,7.77502294921875,0.6411030888557434,0.4625777006149292,0.755793035030365
1761231148595818000,7.79181787109375,0.8536841869354248,0.593913733959198,0.9495900273323059
1761231148612604400,7.8086044921875,1.092837929725647,0.9065240025520325,1.273043155670166
1761231148629394000,7.825393798828125,1.23394775390625,1.1969904899597168,1.2721269130706787
1761231148646183200,7.84218310546875,1.3379476070404053,1.5650367736816406,1.1835514307022095
1761231148662972700,7.85897265625,1.4943290948867798,1.0512990951538086,1.803274154663086
1761231148679762000,7.875761962890625,1.3936890363693237,-1.5902349948883057,2.3234260082244873
1761231148696551400,7.892551513671875,1.1020009517669678,-2.4947736263275146,1.7008016109466553
1761231148713340700,7.909340576171875,0.7858781218528748,-0.42302417755126953,0.8662069439888
1761231148730130400,7.92613037109375,0.5812382698059082,1.5564846992492676,0.8576548099517822
1761231148746919400,7.94291943359375,0.21807889640331268,1.485166072845459,0.22937989234924316
1761231148763709000,7.959708984375,-0.35552358627319336,0.04963280260562897,-0.2796235680580139
1761231148780498200,7.976498291015625,-0.5623014569282532,-0.6366742849349976,-0.7550294399261475
1761231148797273900,7.99327392578125,-0.31902438402175903,-0.5187773108482361,-1.0012081861495972
1761231148814076700,8.01007666015625,-0.38209620118141174,-0.16630806028842926,-1.238223910331726
1761231148830866400,8.026866455078125,-0.6951646208763123,-0.2506074607372284,-1.559233546257019
1761231148847656200,8.04365625,-0.9450085163116455,-0.7031059265136719,-1.7777706384658813
1761231148864445200,8.060445068359375,-1.1479685306549072,-0.6884451508522034,-1.7096590995788574
1761231148881233400,8.0772333984375,-1.2458596229553223,-0.36010506749153137,-1.6125315427780151
1761231148898024200,8.094024169921875,-1.31916344165802,-0.007941247895359993,-1.4369077682495117
1761231148914813400,8.1108134765625,-1.3469579219818115,0.050243668258190155,-1.4117095470428467
1761231148931603000,8.12760302734375,-1.4419474601745605,-0.08078692853450775,-1.384678840637207
1761231148948380200,8.144380126953125,-1.4744759798049927,-0.7577783465385437,-1.1859948635101318
1761231148965182000,8.161181884765625,-1.2055425643920898,-1.6026049852371216,-0.8158105611801147
1761231148981971000,8.177970947265624,-0.8988882303237915,-1.451415777206421,-0.3211624026298523
1761231148998760400,8.194760498046875,-0.4112650156021118,-0.6140722632408142,0.07651086896657944
1761231149015548400,8.21154833984375,0.2174680233001709,0.0019853119738399982,0.3865249752998352
1761231149032339200,8.228339111328125,0.5914703011512756,-0.04230241850018501,0.6433938145637512
1761231149049128400,8.24512841796875,0.6249151229858398,-0.18814650177955627,0.7231117486953735
1761231149065918000,8.26191796875,0.6253733038902283,-0.1996002197265625,0.7327328324317932
1761231149082707500,8.27870751953125,0.5352706909179688,-0.056810468435287476,0.7133378982543945
1761231149099496700,8.29549658203125,0.3784310221672058,0.05207626149058342,0.5051855444908142
1761231149116286200,8.3122861328125,0.22510384023189545,0.16600263118743896,0.17043140530586243
1761231149133074200,8.32907421875,0.1618792861700058,0.1794416606426239,0.007941247895359993
1761231149149865000,8.345864990234375,0.126143679022789,0.10965031385421753,0.013897184282541275
1761231149166654500,8.362654541015624,0.19517144560813904,0.14935655891895294,0.20830504596233368
1761231149183443700,8.379443603515625,0.35873061418533325,0.3778201639652252,0.4818199574947357
1761231149200233000,8.39623291015625,0.6162103414535522,0.6757696866989136,0.7872526049613953
1761231149217016800,8.413016845703124,0.9214902520179749,0.789237916469574,1.2148582935333252
1761231149233797400,8.42979736328125,1.1160508394241333,0.802524209022522,1.3631458282470703
1761231149250603000,8.44660302734375,1.2388347387313843,0.9706648588180542,1.1688905954360962
1761231149267377700,8.463377685546876,1.1635456085205078,0.4340197443962097,1.4268285036087036
1761231149284169200,8.480169189453125,1.1491901874542236,-1.0781772136688232,1.5696182250976562
1761231149300969500,8.496969482421875,1.3005321025848389,-2.1478021144866943,0.8665123581886292
1761231149317758700,8.5137587890625,0.801913321018219,-0.7044803500175476,0.527634859085083
1761231149334547000,8.530546875,0.16768251359462738,1.8585574626922607,0.42470407485961914
1761231149351330800,8.547330810546875,0.1420261710882187,2.032196044921875,-0.05406157299876213
1761231149368123100,8.564123046875,-0.08338310569524765,0.6624833345413208,-0.4173736870288849
1761231149384908300,8.580908203125,-0.078343465924263,-0.8098546266555786,-0.3289509415626526
1761231149401705000,8.597705078125,-0.3124575614929199,-0.889267086982727,-0.6540839672088623
1761231149418496800,8.614496826171875,-0.4996877610683441,-0.5934556126594543,-1.1397218704223633
1761231149435282000,8.631281982421875,-0.7787004709243774,-0.3588833212852478,-1.4830280542373657
1761231149452072700,8.64807275390625,-1.1311696767807007,-0.061391957104206085,-1.6632333993911743
1761231149468863000,8.664863037109376,-1.244943380355835,0.043218716979026794,-1.7441730499267578
1761231149485639200,8.68163916015625,-1.2586878538131714,0.3352122902870178,-1.6672040224075317
1761231149502438000,8.69843798828125,-1.2055425643920898,0.6327036619186401,-1.5413657426834106
1761231149519233000,8.71523291015625,-1.1447614431381226,0.6265950202941895,-1.476919412612915
1761231149536018000,8.732017822265625,-1.1908818483352661,0.3150537610054016,-1.326341152191162
1761231149552814800,8.74881494140625,-1.2131783962249756,-0.14187344908714294,-0.9625709056854248
1761231149569598700,8.7655986328125,-1.0047205686569214,-0.5100724697113037,-0.5748242139816284
1761231149586387200,8.78238720703125,-0.6403394937515259,-0.7237225770950317,-0.29397889971733093
1761231149603179800,8.7991796875,-0.17730364203453064,-0.712574303150177,0.10048733651638031
1761231149619967000,8.815967041015625,0.23167064785957336,-0.6698137521743774,0.5729916095733643
1761231149636749600,8.83274951171875,0.3367394804954529,-0.5354233980178833,0.8275696635246277
1761231149653545500,8.84954541015625,0.3387247920036316,-0.42271876335144043,0.8239045143127441
1761231149670329600,8.86632958984375,0.3923282027244568,-0.2942843437194824,0.6973026990890503
1761231149687127800,8.8831279296875,0.4239404797554016,0.08139779418706894,0.5335907936096191
1761231149703914000,8.8999140625,0.42271876335144043,0.4677700698375702,0.351400226354599
1761231149720703700,8.916703857421876,0.38927388191223145,0.708450973033905,0.17119498550891876
1761231149737486000,8.933486083984375,0.3727805018424988,0.7354817390441895,0.04046982154250145
1761231149754273000,8.95027294921875,0.3988949954509735,0.6264423131942749,-0.024587325751781464
1761231149771061500,8.9670615234375,0.5244278311729431,0.5529857873916626,0.15790866315364838
1761231149787858000,8.98385791015625,0.6950119137763977,0.5502368807792664,0.619111955165863
1761231149804653800,9.00065380859375,0.9805914163589478,0.8547531962394714,1.3344351053237915
1761231149821439700,9.017439697265624,1.2571606636047363,1.5187636613845825,1.5780175924301147
1761231149838229000,9.03422900390625,1.2837333679199219,1.6772832870483398,1.4245377779006958
1761231149855006700,9.0510068359375,1.21027672290802,-0.3677408695220947,1.3904820680618286
1761231149871808300,9.067808349609376,1.1217013597488403,-2.2687535285949707,1.656819224357605
1761231149888597200,9.08459716796875,0.7115052938461304,-1.571908950805664,0.8246681094169617
1761231149905385500,9.101385498046875,0.24205535650253296,0.07223481684923172,0.294895201921463
1761231149922176000,9.118176025390625,0.21471913158893585,1.365131139755249,-0.048105638474226
1761231149938963200,9.134963134765625,0.1082758679986,1.0531316995620728,-0.02168571576476097
1761231149955757800,9.1517578125,-0.26343563199043274,0.5445863604545593,0.10766500234603882
1761231149972543700,9.168543701171876,-0.5699372887611389,-0.09040805697441101,-0.06001751124858856
1761231149989331000,9.1853310546875,-0.6687447428703308,-0.6479753255844116,-0.6586654782295227
1761231150006123000,9.202123046875,-0.8851437568664551,-0.5656611919403076,-1.2229522466659546
1761231150022915800,9.218915771484374,-1.0575604438781738,-0.44364088773727417,-1.5302174091339111
1761231150039702000,9.235701904296874,-1.0939068794250488,-0.3523165285587311,-1.6436856985092163
1761231150056491300,9.2524912109375,-1.0836749076843262,-0.16172657907009125,-1.579850196838379
1761231150073268200,9.269268310546876,-1.017396092414856,0.14217889308929443,-1.3984233140945435
1761231150090066700,9.286066650390625,-1.0561859607696533,0.28527405858039856,-1.2148582935333252
1761231150106860000,9.302860107421875,-1.1591167449951172,0.005955935921519995,-0.9728028774261475
1761231150123629800,9.3196298828125,-1.267392635345459,-0.39156460762023926,-0.7276932001113892
1761231150140440000,9.336440185546875,-1.1520918607711792,-0.7666358947753906,-0.5021312236785889
1761231150157227500,9.3532275390625,-0.8229882121086121,-1.1887437105178833,-0.2845104932785034
1761231150174004200,9.370004150390624,-0.31780263781547546,-1.095739483833313,0.18829920887947083
1761231150190790700,9.386790771484375,0.15485434234142303,-0.7521278262138367,0.716697633266449
1761231150207594000,9.403593994140625,0.37140607833862305,-0.13958270847797394,0.8390234112739563
1761231150224377300,9.42037744140625,0.4072943925857544,0.07192938029766083,0.7848091125488281
1761231150241171200,9.437171142578125,0.4554000496864319,-0.0731511116027832,0.7211264371871948
1761231150257967600,9.453967529296875,0.4063780903816223,-0.08536841720342636,0.5354233980178833
1761231150274753300,9.470753173828125,0.3026837408542633,0.048258353024721146,0.31154128909111023
1761231150291542800,9.487542724609375,0.1976149082183838,0.19685132801532745,0.08491026610136032
1761231150308332500,9.50433251953125,0.1563815027475357,0.3052799105644226,-0.10873401165008545
1761231150325121800,9.521121826171875,0.14187344908714294,0.49128836393356323,-0.1915062516927719
1761231150341911000,9.5379111328125,0.2370157092809677,0.5731443166732788,-0.0659734457731247
1761231150358707700,9.554707763671875,0.423329621553421,0.5542075037956238,0.192422553896904
1761231150375489500,9.571489501953126,0.6872233748435974,0.4885394871234894,0.5832235813140869
1761231150392279600,9.588279541015625,0.9538660645484924,0.617584764957428,1.2567025423049927
1761231150409068500,9.605068603515624,1.1895073652267456,0.7383833527565002,1.4787520170211792
1761231150425855000,9.62185498046875,1.3912456035614014,0.6779077053070068,1.3359622955322266
1761231150442631700,9.638631591796875,1.4578299522399902,0.29626965522766113,1.6256651878356934
1761231150459436500,9.6554365234375,1.6229162216186523,-1.1669052839279175,1.658041000366211
1761231150476226300,9.672226318359375,1.4830280542373657,-1.5552629232406616,0.8200865983963013
1761231150493013000,9.689012939453125,0.43707409501075745,-0.023365596309304237,0.5876523852348328
1761231150509803800,9.7058037109375,0.0754418596625328,1.5416711568832397,0.39614611864089966
1761231150526598000,9.722597900390625,0.21365012228488922,2.076789140701294,0.36300668120384216
1761231150543382500,9.739382568359375,-0.09804387390613556,1.1594222784042358,0.5251913666725159
1761231150560173300,9.75617333984375,-0.37980547547340393,-0.4818199574947357,-0.0835358202457428
1761231150576962600,9.772962646484375,-0.4433354437351227,-1.2527319192886353,-0.8672759532928467
1761231150593752000,9.789751953125,-0.55069500207901,-1.3894129991531372,-1.3797918558120728
1761231150610541000,9.806541015625,-0.6896668672561646,-0.9532552361488342,-1.7747162580490112
1761231150627331600,9.82333154296875,-0.8953757286071777,-0.4619668424129486,-2.0254764556884766
1761231150644120000,9.8401201171875,-1.0879509449005127,-0.2837468981742859,-2.0499110221862793
1761231150660909600,9.85690966796875,-1.3070988655090332,-0.06444628536701202,-1.749212622642517
1761231150677697800,9.87369775390625,-1.3964380025863647,0.41462478041648865,-1.3324497938156128
1761231150694488600,9.890488525390625,-1.3555099964141846,0.6360634565353394,-1.2111930847167969
1761231150711277600,9.907277587890626,-1.3930782079696655,0.23945917189121246,-1.323439598083496
1761231150728054300,9.92405419921875,-1.4341589212417603,-0.30772337317466736,-1.1409435272216797
1761231150744856300,9.940856201171876,-1.2571606636047363,-0.9224064946174622,-0.6814202070236206
1761231150761646300,9.957646240234375,-0.8068002462387085,-1.1800389289855957,-0.247094988822937
1761231150778435600,9.974435546875,-0.25274550914764404,-1.1601858139038086,0.33597588539123535
1761231150795223600,9.9912236328125,0.19853121042251587,-1.0752755403518677,0.8781188130378723
1761231150812015600,10.008015625,0.41172316670417786,-0.6885978579521179,0.9805914163589478
1761231150828803600,10.024803466796875,0.4963280260562897,-0.22449298202991486,0.8373435139656067
1761231150845593000,10.041593017578125,0.5778785347938538,0.12079860270023346,0.6681338548660278
1761231150862382300,10.05838232421875,0.5002986192703247,0.3588833212852478,0.4283692538738251
1761231150879172000,10.075172119140625,0.32910364866256714,0.4080579876899719,0.2594650089740753
1761231150895961300,10.09196142578125,0.17440202832221985,0.1336267739534378,0.0708603709936142
1761231150912750600,10.10875048828125,0.06200282275676727,-0.21960605680942535,-0.07681630551815033
1761231150929539600,10.12553955078125,0.030085112899541855,-0.16081027686595917,-0.06643159687519073
1761231150946329600,10.14232958984375,0.16004669666290283,0.10384709388017654,0.19898934662342072
1761231150963117800,10.159117919921876,0.48869219422340393,0.44486260414123535,0.7276932001113892
1761231150979908400,10.175908447265625,0.9001099467277527,0.8127561807632446,1.2680035829544067
1761231150996696600,10.192696533203126,1.277166485786438,1.4479033946990967,1.6508632898330688
1761231151013486800,10.20948681640625,1.5364787578582764,2.03540301322937,1.6520850658416748
1761231151030276400,10.2262763671875,1.5028811693191528,1.7276796102523804,1.7426458597183228
1761231151047065900,10.24306591796875,1.4463762044906616,-0.9424123764038086,1.8529070615768433
1761231151063855900,10.25985595703125,1.4341589212417603,-2.8035659790039062,1.2551753520965576
1761231151080644000,10.27664404296875,1.0868819952011108,-2.146427869796753,0.7066183686256409
1761231151097433900,10.293433837890625,0.3793473243713379,1.0580185651779175,0.6241515874862671
1761231151114223400,10.310223388671876,0.4092797040939331,2.8383853435516357,0.3842342495918274
1761231151131012600,10.3270126953125,0.2603813111782074,1.7898352146148682,-0.18112154304981232
1761231151147802400,10.34380224609375,-0.12736541032791138,-0.4853324294090271,-0.43615779280662537
1761231151164576300,10.360576171875,-0.4440990388393402,-1.01617431640625,-0.6178901791572571
1761231151181380400,10.37738037109375,-0.679129421710968,-0.9166033267974854,-0.9162978529930115
1761231151198172200,10.394172119140626,-0.7944302558898926,-0.8239045143127441,-1.2345587015151978
1761231151214960000,10.410960205078124,-1.0238101482391357,-0.44944411516189575,-1.5155566930770874
1761231151231750100,10.427750244140626,-1.2148582935333252,-0.025503624230623245,-1.6297885179519653
1761231151248539400,10.444539306640625,-1.2942707538604736,0.20066922903060913,-1.6504051685333252
1761231151265329200,10.4613291015625,-1.3017538785934448,0.30833423137664795,-1.6424639225006104
1761231151282108400,10.4781083984375,-1.3475687503814697,0.42562034726142883,-1.6380351781845093
1761231151298905900,10.49490576171875,-1.4535537958145142,0.2428189367055893,-1.5968017578125
1761231151315697700,10.51169775390625,-1.5778648853302002,-0.1592831164598465,-1.3446670770645142
1761231151332486400,10.528486328125,-1.408349871635437,-0.6478226184844971,-0.8527678847312927
1761231151349276000,10.54527587890625,-1.0083857774734497,-0.7174612283706665,-0.4885394871234894
1761231151366065400,10.5620654296875,-0.44196099042892456,-0.40775254368782043,-0.15882496535778046
1761231151382854700,10.578854736328125,0.13301590085029602,-0.13897185027599335,0.2154827117919922
1761231151399644200,10.59564404296875,0.4495968222618103,-0.03344487398862839,0.48517972230911255
1761231151416434000,10.612433837890626,0.5167919993400574,-0.012522737495601177,0.7327328324317932
1761231151433222100,10.62922216796875,0.6200281977653503,0.10705413669347763,0.9592111706733704
1761231151449996800,10.645996826171874,0.6585127115249634,0.24190263450145721,1.1217013597488403
1761231151466787300,10.662787353515625,0.6301075220108032,0.242513507604599,0.9966266751289368
1761231151483584300,10.679584228515624,0.5196936130523682,0.31444287300109863,0.6423248052597046
1761231151500379400,10.69637939453125,0.413097620010376,0.5853615999221802,0.24694228172302246
1761231151517168600,10.713168701171876,0.3856086730957031,0.8161159753799438,0.0607810914516449
1761231151533957000,10.72995703125,0.3874412775039673,0.8077165484428406,0.07177666574716568
1761231151550749700,10.746749755859375,0.446389764547348,0.6963863968849182,0.2984076738357544
1761231151567537200,10.763537109375,0.7440338730812073,0.6939429044723511,0.7556403279304504
1761231151584326700,10.78032666015625,1.0749701261520386,0.8947648406028748,1.0702359676361084
1761231151601116200,10.7971162109375,1.2944234609603882,1.469589114189148,1.3715451955795288
1761231151617905200,10.8139052734375,1.1994339227676392,0.30054569244384766,1.9170478582382202
1761231151634693600,10.830693603515625,1.069166898727417,-1.451874017715454,1.9469802379608154
1761231151651484400,10.847484375,0.9747881889343262,-2.2821924686431885,1.1117748022079468
1761231151668273400,10.8642734375,0.6638578176498413,-2.0693061351776123,0.4723515510559082
1761231151685063200,10.881063232421875,0.1621847152709961,0.7925976514816284,0.251218318939209
1761231151701852200,10.89785205078125,0.021380282938480377,2.065182685852051,0.16798794269561768
1761231151718629000,10.914629150390626,-0.27382034063339233,1.31916344165802,-0.006261368747800589
1761231151735432000,10.931431884765624,-0.5325217843055725,0.26832255721092224,-0.04382958263158798
1761231151752220000,10.948219970703125,-0.5726861953735352,-0.7709119319915771,-0.3689626157283783
1761231151768998400,10.964998291015625,-0.5566509366035461,-0.8743008971214294,-0.9532552361488342
1761231151785799400,10.98179931640625,-0.5859724879264832,-0.7562511563301086,-1.4182764291763306
1761231151802585600,10.998585693359376,-0.6130032539367676,-0.34025195240974426,-1.6814066171646118
1761231151819381000,11.015381103515624,-0.8121453523635864,0.0705549344420433,-1.8350391387939453
1761231151836150300,11.032150390625,-0.90728759765625,0.06475171446800232,-1.8248071670532227
1761231151852957000,11.04895703125,-1.1450668573379517,0.13775011897087097,-1.5871806144714355
1761231151869743600,11.06574365234375,-1.2707524299621582,0.27320948243141174,-1.2420417070388794
1761231151886538500,11.08253857421875,-1.3564262390136719,0.08307767659425735,-1.0906999111175537
1761231151903312000,11.099311767578126,-1.423926830291748,-0.31001409888267517,-0.9378308653831482
1761231151920116700,11.11611669921875,-1.3070988655090332,-0.6348416805267334,-0.7180721163749695
1761231151936901400,11.1329013671875,-0.9865473508834839,-1.1133018732070923,-0.4153883755207062
1761231151953692000,11.14969189453125,-0.57436603307724,-1.2412781715393066,0.1472185254096985
1761231151970483000,11.16648291015625,-0.10277807712554932,-1.267698049545288,0.6403394937515259
1761231151987272000,11.18327197265625,0.2513710558414459,-0.8411614298820496,0.6163630485534668
1761231152004061400,11.2000615234375,0.34315356612205505,-0.2562579810619354,0.41340306401252747
1761231152020848000,11.21684814453125,0.3825543522834778,-0.025045474991202354,0.25793784856796265
1761231152037643000,11.23364306640625,0.43997567892074585,0.11224649101495743,0.10781771689653397
1761231152054425000,11.250425048828125,0.4715879559516907,0.42180246114730835,0.03878994286060333
1761231152071224000,11.26722412109375,0.43676865100860596,0.5795583724975586,-0.02076941914856434
1761231152088003800,11.28400390625,0.3805690407752991,0.6624833345413208,-0.056352317333221436
1761231152104801300,11.30080126953125,0.39996400475502014,0.6624833345413208,0.02076941914856434
1761231152121587500,11.31758740234375,0.47540587186813354,0.6988298296928406,0.25641068816185
1761231152138376700,11.334376708984376,0.5952881574630737,0.7134906053543091,0.6901249885559082
1761231152155153400,11.3511533203125,0.7852672934532166,0.880104124546051,1.1791226863861084
1761231152171955700,11.367955810546874,1.12506103515625,1.3764320611953735,1.6407840251922607
1761231152188745200,11.3847451171875,1.5598443746566772,1.7821993827819824,1.8669569492340088
1761231152205534200,11.4015341796875,1.6418530941009521,0.6614143252372742,1.8307631015777588
1761231152222323700,11.41832373046875,1.3410019874572754,-2.020589590072632,1.2782355546951294
1761231152239113200,11.43511328125,1.0574077367782593,-2.5059218406677246,1.1872166395187378
1761231152255902700,11.45190283203125,0.5149593949317932,0.25763240456581116,0.7623597979545593
1761231152272691700,11.468691650390625,0.20570887625217438,2.4659101963043213,0.5375614166259766
1761231152289481500,11.4854814453125,-0.35063666105270386,1.9274325370788574,-0.21853704750537872
1761231152306270700,11.502270751953125,-0.970054030418396,0.24694228172302246,-0.7900014519691467
1761231152323057400,11.519057373046875,-1.2892310619354248,-0.9344711303710938,-1.2625057697296143
1761231152339852000,11.53585205078125,-0.9236282706260681,-0.9320276379585266,-1.7194329500198364
1761231152356639000,11.552638916015624,-0.6659958362579346,-0.4634940028190613,-1.7484490871429443
1761231152373428200,11.56942822265625,-0.6542366743087769,-0.2292271852493286,-1.688889741897583
1761231152390214400,11.58621435546875,-0.7533495426177979,-0.006261368747800589,-1.3228286504745483
1761231152407006200,11.603006103515625,-0.9132435321807861,0.418748140335083,-0.7302893996238708
1761231152423796500,11.61979638671875,-1.0754282474517822,0.34895676374435425,-0.3240640163421631
1761231152440585200,11.636585205078125,-1.2837333679199219,0.06902777403593063,-0.15531249344348907
1761231152457378300,11.65337841796875,-1.4184291362762451,-0.35964691638946533,-0.032528575509786606
1761231152474146800,11.670146728515626,-1.178053617477417,-1.0167851448059082,0.06627888232469559
1761231152490957300,11.686957275390625,-0.6183483600616455,-1.5486961603164673,0.24617868661880493
1761231152507743500,11.703743408203126,0.02733621932566166,-1.3564262390136719,0.9816604256629944
1761231152524514000,11.72051416015625,0.5707008838653564,-0.9511171579360962,1.2148582935333252
1761231152541309200,11.73730908203125,0.7675521969795227,-0.3364340364933014,0.7156286239624023
1761231152558112000,11.754112060546875,0.6817256212234497,0.2321287989616394,0.21013765037059784
1761231152574896400,11.770896484375,0.6583600044250488,0.7602217793464661,-0.17073683440685272
1761231152591690000,11.78768994140625,0.5748242139816284,1.1462886333465576,-0.3701843321323395
1761231152608477000,11.804476806640626,0.20463985204696655,0.9804387092590332,-0.3061962127685547
1761231152625272800,11.82127294921875,-0.044745877385139465,0.4236350357532501,-0.22678372263908386
1761231152642058800,11.838058837890625,-0.1618792861700058,0.06322455406188965,-0.16019940376281738
1761231152658848500,11.8548486328125,-0.09804387390613556,0.22876903414726257,0.06612616032361984
1761231152675637800,11.8716376953125,0.038637228310108185,0.5407684445381165,0.45036038756370544
1761231152692426800,11.8884267578125,0.23121249675750732,0.5988006591796875,0.7828238010406494
1761231152709216300,11.90521630859375,0.4885394871234894,0.36483925580978394,1.312138557434082
1761231152726004700,11.922004638671876,0.8252789378166199,0.5832235813140869,1.9941695928573608
1761231152742795300,11.938795166015625,1.3197743892669678,0.935081958770752,2.498438835144043
1761231152759571500,11.955571533203125,1.371850609779358,-0.3721696436405182,1.8892534971237183
1761231152776361200,11.972361328125,1.2974777221679688,-1.2530373334884644,1.357953429222107
1761231152793163500,11.98916357421875,0.8875871896743774,-0.2848159074783325,0.4127921760082245
1761231152809953000,12.005953125,0.684779942035675,1.7739527225494385,0.4743368625640869
1761231152826742300,12.0227421875,1.0725266933441162,1.4701999425888062,0.8787296414375305
1761231152843519000,12.03951904296875,0.7200574278831482,1.0900890827178955,0.46822822093963623
1761231152860321300,12.0563212890625,0.36560285091400146,0.564592182636261,0.23136521875858307
1761231152877110500,12.073110595703126,-0.015882495790719986,0.379652738571167,0.13500121235847473
1761231152893899500,12.0898994140625,-0.3321579694747925,-0.17638733983039856,0.03390302136540413
1761231152910689000,12.10668896484375,-0.5109887719154358,-0.3251330256462097,-0.1615738570690155
1761231152927479000,12.12347900390625,-0.6047565937042236,-0.4508185386657715,-0.42959097027778625
1761231152944267800,12.140267822265624,-0.7081455588340759,-0.5154175758361816,-0.565203070640564
1761231152961063700,12.157063720703125,-0.7770205736160278,-0.5187773108482361,-0.6301075220108032
1761231152977845800,12.173845703125,-0.7606799602508545,-0.48976120352745056,-0.6525567770004272
1761231152994636300,12.19063623046875,-0.6649268269538879,-0.1976149082183838,-0.6068946123123169
1761231153011425500,12.207425537109375,-0.5305364727973938,0.12980885803699493,-0.551916778087616
1761231153028202000,12.224201904296875,-0.3914119005203247,0.26343563199043274,-0.5073235630989075
1761231153045003000,12.2410029296875,-0.21838432550430298,0.2643519341945648,-0.49556443095207214
1761231153061793800,12.257793701171876,-0.09498954564332962,0.23457226157188416,-0.4560109078884125
1761231153078583600,12.27458349609375,0.014508049935102463,0.1941024363040924,-0.3407101035118103
1761231153095372500,12.29137255859375,-0.09437867999076843,0.2961169183254242,-0.11270463466644287
1761231153112162300,12.308162353515625,-0.20555615425109863,0.23457226157188416,0.11621711403131485
1761231153128938200,12.324938232421875,-0.19914206862449646,0.11010845750570297,0.251218318939209
1761231153145741600,12.341741455078125,-0.20586158335208893,-0.014355333521962166,0.21441370248794556
1761231153162530300,12.3585302734375,-0.1368338167667389,0.03894266113638878,0.10033461451530457
1761231153179319600,12.375319580078125,-0.04535674303770065,0.2370157092809677,0.03940080851316452
1761231153196109000,12.392109130859374,-0.028557950630784035,0.2883284091949463,0.11331550031900406
1761231153212898600,12.408898681640625,0.05726861581206322,0.021991148591041565,0.31612277030944824
1761231153229687600,12.4256875,0.19013181328773499,0.06887505948543549,0.17043140530586243
1761231153246477600,12.4424775390625,0.15531249344348907,0.5911648273468018,0.0455094613134861
1761231153263266800,12.459266845703125,0.2076941877603531,0.8880453705787659,-0.018325956538319588
1761231153280044300,12.476044189453125,0.15363261103630066,0.6417139172554016,-0.03588833287358284
1761231153296844000,12.492843994140625,-0.4450153410434723,1.2735012769699097,-0.29657506942749023
1761231153313635000,12.509635009765624,-0.19776763021945953,-0.1310305893421173,0.037110064178705215
1761231153330424600,12.526424560546875,-0.1963931769132614,-0.024587325751781464,0.09392052888870239
1761231153347214000,12.543214111328124,-0.26862800121307373,-0.019547687843441963,-0.004428773187100887
1761231153364003300,12.56000341796875,-0.20799961686134338,0.02886338345706463,-0.0806342139840126
1761231153380791000,12.576791015625,-0.14263702929019928,-0.06154467165470123,-0.10354165732860565
1761231153397582300,12.593582275390625,-0.09865473955869675,-0.14996741712093353,-0.12476922571659088
1761231153414371300,12.610371337890625,-0.01038470957428217,-0.17088955640792847,-0.10812314599752426
1761231153431147800,12.627147705078125,-0.03756821155548096,-0.2590068578720093,-0.09804387390613556
1761231153447950300,12.643950439453125,-0.15271630883216858,-0.30405816435813904,-0.05864306539297104
1761231153464735200,12.6607353515625,-0.19394971430301666,-0.2874121069908142,-0.010079276748001575
1761231153481533200,12.677533203125,-0.12980885803699493,-0.15653422474861145,-0.03497203439474106
1761231153498308400,12.694308349609376,-0.16279558837413788,-0.09162978827953339,-0.04046982154250145
1761231153515104300,12.711104248046874,-0.16630806028842926,0.08078692853450775,-0.06276640295982361
1761231153531897600,12.727897705078124,-0.0682641938328743,0.20082195103168488,-0.01878410577774048
1761231153548690200,12.744690185546874,-0.06414084881544113,0.21105393767356873,0.046731192618608475
1761231153565476000,12.76147607421875,-0.07360926270484924,0.0377209298312664,0.09957103431224823
1761231153582265600,12.778265625,-0.1212567538022995,0.044135015457868576,0.04138612002134323
1761231153599052300,12.79505224609375,-0.06368270516395569,0.2275473028421402,-0.06734789162874222
1761231153615842600,12.811842529296875,-0.04749477282166481,0.14966198801994324,0.05910121276974678
1761231153632636400,12.828636474609375,-0.08933904021978378,0.18707747757434845,0.045204028487205505
1761231153649423000,12.845423095703126,-0.09254608303308487,0.13515393435955048,0.055741455405950546
1761231153666212900,12.862212890625,-0.06704246252775192,0.07681630551815033,0.02687807008624077
1761231153682999300,12.878999267578125,-0.05757404863834381,0.11133018881082535,0.011301007121801376
1761231153699794000,12.8957939453125,-0.0933096632361412,0.13148874044418335,0.03375030308961868
1761231153716580900,12.912580810546874,-0.08659014850854874,0.166460782289505,-0.005497787147760391
1761231153733370000,12.9293701171875,-0.010231993161141872,0.08903361111879349,-0.0708603709936142
1761231153750159400,12.946159423828124,0.019853120669722557,0.06658431142568588,-0.06933320313692093
1761231153766948900,12.962948974609375,0.005955935921519995,-0.028099801391363144,-0.1108720451593399
1761231153783735300,12.9797353515625,-0.0507018156349659,-0.07391469180583954,-0.13118331134319305
1761231153800531000,12.996531005859374,-0.06444628536701202,0.034666601568460464,-0.07651086896657944
1761231153817301200,13.01330126953125,-0.04214970022439957,0.12476922571659088,-0.03695734590291977
1761231153834106600,13.030106689453126,-0.05604688450694084,0.164170041680336,0.021838432177901268
1761231153850896100,13.046896240234375,-0.04581489413976669,0.15195272862911224,0.003054326167330146
1761231153867685000,13.06368505859375,-0.0633772686123848,0.08384125679731369,-0.03145955875515938
1761231153884475000,13.080474853515625,-0.022449297830462456,-0.024434609338641167,0.009926560334861279
1761231153901264400,13.097264404296874,-0.01725694350898266,-0.019853120669722557,0.005650503560900688
1761231153918054700,13.1140546875,-0.019853120669722557,-0.027030786499381065,-0.01466076634824276
1761231153934843100,13.130843017578124,0.006261368747800589,-0.13255776464939117,-0.029932396486401558
1761231153951632600,13.147632568359375,0.009468411095440388,-0.1498146951198578,-0.022602014243602753
1761231153968422700,13.164422607421875,-0.001679879380390048,0.024129176512360573,0.0025961773935705423
1761231153985212200,13.181212158203126,0.026114489883184433,0.027641652151942253,-0.021074850112199783
1761231154002000400,13.19800048828125,0.06261368840932846,-0.11682797968387604,-0.0705549344420433
1761231154018791000,13.214791015625,0.08261952549219131,-0.28267788887023926,-0.05864306539297104
1761231154035580200,13.231580078125,0.052228979766368866,-0.30512720346450806,-0.05268712714314461
1761231154052369700,13.24836962890625,-0.03573561832308769,-0.38835757970809937,-0.10430523753166199
1761231154069159000,13.265158935546875,-0.2370157092809677,-0.3923282027244568,-0.05619960278272629
1761231154085948400,13.281948486328124,-0.23640485107898712,-0.461355984210968,-0.11041389405727386
1761231154102725000,13.29872509765625,-0.24877487123012543,-0.4940372705459595,-0.10323622822761536
1761231154119527200,13.315527099609374,-0.31749722361564636,-0.518471896648407,-0.09941831976175308
1761231154136316000,13.33231591796875,-0.413555771112442,-0.43646320700645447,-0.04138612002134323
1761231154153107500,13.349107421875,-0.34865134954452515,-0.3266601860523224,-0.012522737495601177
1761231154169895400,13.3658955078125,-0.337503045797348,-0.29794952273368835,-0.016951510682702065
1761231154186685000,13.382684814453125,-0.28557950258255005,-0.2590068578720093,-0.1293507218360901
1761231154203474200,13.39947412109375,-0.11362093687057495,-0.294437050819397,-0.19593502581119537
1761231154220251000,13.4162509765625,0.08643743395805359,-0.4789183437824249,-0.13041973114013672
1761231154237053200,13.43305322265625,-0.027641652151942253,-0.46181413531303406,0.003359758760780096
1761231154253833000,13.4498330078125,-0.1915062516927719,-0.28420504927635193,-0.03588833287358284
1761231154270632000,13.4666318359375,-0.19532416760921478,-0.22327125072479248,-0.05955936014652252
1761231154287421200,13.483421142578125,-0.10995574295520782,-0.1235474944114685,-0.16172657907009125
1761231154304210700,13.500210693359374,-0.0377209298312664,-0.07330382615327835,-0.18631389737129211
1761231154321005000,13.517005126953125,0.10766500234603882,-0.008399397134780884,-0.1609629988670349
1761231154337790000,13.5337900390625,0.313373863697052,-0.0959058403968811,-0.13530665636062622
1761231154354579000,13.550578857421876,0.3055853247642517,-0.1472185254096985,-0.07849618047475815
1761231154371375600,13.567375732421874,0.1875356286764145,-0.06872233748435974,-0.09666942805051804
1761231154388158200,13.584158203125,0.058948494493961334,-0.048105638474226,-0.12553280591964722
1761231154404947200,13.600947265625,-0.001527163083665073,0.0027488935738801956,-0.17012597620487213
1761231154421723600,13.6177236328125,0.03130684420466423,0.04749477282166481,-0.15134187042713165
1761231154438540300,13.634540283203124,0.128434419631958,0.04444044828414917,-0.10567969083786011
1761231154455314400,13.651314453125,0.19303341209888458,-0.00855211354792118,-0.0705549344420433
1761231154472105000,13.66810498046875,0.20601430535316467,-0.044287730008363724,-0.016035212203860283
1761231154488894200,13.684894287109374,0.1843285858631134,-0.08200865983963013,0.04138612002134323
1761231154505683500,13.701683349609375,-0.15836681425571442,0.18784105777740479,0.06750060617923737
1761231154522473200,13.71847314453125,-0.5677992701530457,0.7086036801338196,-0.21441370248794556
1761231154539262500,13.735262451171875,-0.18860463798046112,0.32650747895240784,0.05757404863834381
1761231154556039200,13.7520390625,-0.06841690838336945,0.7733554244041443,0.29596421122550964
1761231154572840000,13.76883984375,-0.05421429127454758,0.703411340713501,0.32818734645843506
1761231154589630700,13.785630615234375,-0.1310305893421173,0.3173444867134094,0.2718350291252136
1761231154606420000,13.802419921875,-0.13057245314121246,0.24388794600963593,0.25931230187416077
1761231154623209500,13.81920947265625,0.006719517521560192,0.2583959996700287,0.3747658133506775
1761231154639998700,13.835998779296874,0.32330042123794556,0.27840182185173035,0.3494149148464203
1761231154656788700,13.852788818359375,0.3949243724346161,0.3549126982688904,0.3602577745914459
1761231154673566500,13.86956640625,0.33429601788520813,0.4262312352657318,0.4343251883983612
1761231154690367000,13.886366943359375,0.2542726695537567,0.7273877859115601,0.4265366494655609
1761231154707155200,13.9031552734375,0.24923302233219147,0.8607091307640076,0.355981707572937
1761231154723947500,13.919947509765626,0.265573650598526,0.7443392872810364,0.26939156651496887
1761231154740735200,13.9367353515625,0.3000875413417816,0.4092797040939331,0.16065755486488342
1761231154757526800,13.95352685546875,0.2788599729537964,0.2606867551803589,0.0988074541091919
1761231154774313000,13.97031298828125,0.20891591906547546,0.0455094613134861,0.0734565481543541
1761231154791105300,13.987105224609374,0.11453723162412643,-0.041691552847623825,0.11575896292924881
1761231154807893000,14.00389306640625,0.1771509200334549,0.01038470957428217,0.10430523753166199
1761231154824682200,14.02068212890625,0.14187344908714294,0.2148718535900116,0.1638645976781845
1761231154841477600,14.0374775390625,0.10201449692249298,0.16462817788124084,0.12767083942890167
1761231154858261200,14.05426123046875,0.03588833287358284,0.027030786499381065,0.06872233748435974
1761231154875050500,14.071050537109375,0.01863138936460018,0.00045814894838258624,0.06948592513799667
1761231154891839700,14.08783984375,0.005039638374000788,0.023060163483023643,0.06933320313692093
1761231154908628200,14.104628173828125,-0.003817907767370343,0.03848451003432274,0.0503963828086853
1761231154925404700,14.12140478515625,-0.012675453908741474,0.031001411378383636,0.05207626149058342
1761231154942209300,14.138209228515626,-0.012064588256180286,0.02382374368607998,0.03878994286060333
1761231154958997800,14.154997802734375,-0.019394971430301666,0.02733621932566166,0.025045474991202354
1761231154975787300,14.171787353515626,-0.01542434748262167,0.030695978552103043,0.016493361443281174
1761231154992563500,14.1885634765625,-0.004123340360820293,0.030695978552103043,0.012217304669320583
1761231155009365800,14.20536572265625,-0.004734205547720194,0.031154127791523933,0.005497787147760391
1761231155026155500,14.222155517578125,-0.002138028386980295,0.020616702735424042,-0.004734205547720194
1761231155042944500,14.238944580078124,0.0032070425804704428,0.027488935738801956,-0.007177666760981083
1761231155059721500,14.255721435546874,-0.006719517521560192,0.0403171069920063,0.01542434748262167
1761231155076510700,14.2725107421875,-0.018020525574684143,0.028405234217643738,0.01038470957428217
1761231155093311500,14.2893115234375,-0.03497203439474106,0.017867809161543846,0.001679879380390048
1761231155110102500,14.3061025390625,-0.039706241339445114,0.020922135561704636,0.005192354787141085
1761231155126891800,14.322891845703126,-0.033139441162347794,0.010537425056099892,0.006719517521560192
1761231155143681000,14.339680908203125,-0.02229658141732216,0.004123340360820293,-0.00427605677396059
1761231155160470800,14.356470703125,-0.013897184282541275,0.01191187184303999,-0.01191187184303999
1761231155177259800,14.373259765625,-0.016340645030140877,0.01572977937757969,-0.013897184282541275
1761231155194049300,14.39004931640625,-0.015882495790719986,0.021532999351620674,-0.012064588256180286
1761231155210838500,14.406838623046875,-0.015577063895761967,0.021380282938480377,-0.012522737495601177
1761231155227628300,14.423628173828124,-0.022602014243602753,0.016951510682702065,-0.0013744467869400978
1761231155244417800,14.440417724609375,-0.03237585723400116,0.01237002108246088,-0.008246680721640587
1761231155261194500,14.457194580078125,-0.03237585723400116,0.010995574295520782,-0.01191187184303999
1761231155277996300,14.473996337890625,-0.018478672951459885,0.06612616032361984,0.007788531947880983
1761231155294785800,14.490785888671875,-0.019394971430301666,0.06017022579908371,-0.0019853119738399982
1761231155311576300,14.507576416015626,-0.02122756652534008,0.02977968007326126,-0.022143865004181862
1761231155328363800,14.52436376953125,-0.016340645030140877,-0.004581489134579897,-0.03985895588994026
1761231155345152800,14.54115283203125,-0.020005837082862854,-0.03940080851316452,-0.04260785132646561
1761231155361942300,14.5579423828125,-0.031612277030944824,-0.0656680166721344,-0.041233405470848083
1761231155378733800,14.57473388671875,-0.02779436856508255,-0.04398229718208313,-0.03894266113638878
