time,seconds_elapsed,z,y,x
1761316273511910700,0.26091064453125,2.517249345779419,-8.01356315612793,-5.429314613342285
1761316273530833000,0.2798330078125,2.4885356426239014,-8.023134231567383,-5.450850009918213
1761316273549755400,0.29875537109375,2.438286304473877,-7.977670669555664,-5.4628143310546875
1761316273568677600,0.317677734375,2.416750907897949,-7.946564197540283,-5.4173502922058105
1761316273587600100,0.33660009765625,2.4741785526275635,-7.953742504119873,-5.424529075622559
1761316273606522400,0.3555224609375,2.4119651317596436,-7.884350776672363,-5.4795637130737305
1761316273625444900,0.37444482421875,2.4191436767578125,-7.905886173248291,-5.5106706619262695
1761316273644367000,0.3933671875,2.56510591506958,-7.963313579559326,-5.489135265350342
1761316273663289600,0.41228955078125,2.510071039199829,-7.960920810699463,-5.527420520782471
1761316273682211800,0.4312119140625,2.455035924911499,-7.968099594116211,-5.4556355476379395
1761316273701134300,0.45013427734375,2.550748825073242,-7.929814338684082,-5.402993679046631
1761316273720056600,0.469056640625,2.6273193359375,-7.913064479827881,-5.4556355476379395
1761316273738979000,0.48797900390625,2.5674986839294434,-7.968099594116211,-5.4795637130737305
1761316273757901300,0.5069013671875,2.5746772289276123,-7.908278942108154,-5.527420520782471
1761316273776823800,0.52582373046875,2.493321180343628,-7.848458290100098,-5.553741455078125
1761316273795746000,0.54474609375,2.3258235454559326,-7.932207107543945,-5.546562671661377
1761316273814668500,0.56366845703125,2.3162522315979004,-7.941778182983398,-5.505885124206543
1761316273833590800,0.5825908203125,2.2947168350219727,-8.018348693847656,-5.38624382019043
1761316273852513300,0.60151318359375,2.359323024749756,-8.018348693847656,-5.383851051330566
1761316273871435500,0.620435546875,2.390429735183716,-8.080561637878418,-5.412564754486084
1761316273890358000,0.63935791015625,2.4095723628997803,-7.9585280418396,-5.383851051330566
1761316273909280300,0.6582802734375,2.359323024749756,-8.025527000427246,-5.453242778778076
1761316273928202800,0.67720263671875,2.3641088008880615,-7.932207107543945,-5.477170944213867
1761316273947125000,0.696125,2.3569302558898926,-7.865208148956299,-5.589633464813232
1761316273966047500,0.715047607421875,2.376072883605957,-7.872386455535889,-5.565705299377441
1761316273984969700,0.7339697265625,2.4191436767578125,-7.8795647621154785,-5.570491313934326
1761316274003892200,0.752892333984375,2.390429735183716,-7.9728851318359375,-5.553741455078125
1761316274022814500,0.771814453125,2.3712873458862305,-7.9968132972717285,-5.563312530517578
1761316274041737000,0.790737060546875,2.392822742462158,-8.085348129272461,-5.558526992797852
1761316274060659200,0.8096591796875,2.620140790939331,-7.817351341247559,-5.501099109649658
1761316274079581700,0.828581787109375,2.359323024749756,-7.70967435836792,-5.8097734451293945
1761316274098504000,0.84750390625,2.3162522315979004,-7.628318786621094,-5.757131099700928
1761316274117426400,0.866426513671875,2.335394859313965,-7.64028263092041,-5.807380676269531
1761316274136348700,0.8853486328125,2.414358139038086,-7.76470947265625,-5.807380676269531
1761316274155271200,0.904271240234375,2.3497519493103027,-7.817351341247559,-5.747560024261475
1761316274174193400,0.923193359375,2.4358935356140137,-7.841279983520508,-5.6207404136657715
1761316274193116000,0.942115966796875,2.526820659637451,-7.850851058959961,-5.513063430786133
1761316274212038100,0.9610380859375,2.548356056213379,-7.8795647621154785,-5.556134223937988
1761316274230960600,0.979960693359375,2.462214469909668,-7.76470947265625,-5.61116886138916
1761316274249883000,0.9988828125,2.5459632873535156,-7.255038261413574,-5.639883041381836
1761316274268805400,1.017805419921875,1.978864312171936,-7.479963779449463,-6.580262184143066
1761316274287727600,1.0367275390625,2.400001049041748,-8.126026153564453,-5.089533805847168
1761316274306650000,1.055650146484375,2.854637384414673,-8.934800148010254,-5.79780912399292
1761316274325572400,1.074572265625,2.871387243270874,-8.350951194763184,-5.527420520782471
1761316274344494800,1.093494873046875,2.414358139038086,-7.625925540924072,-5.54177713394165
1761316274363417000,1.1124169921875,2.3641088008880615,-7.8556365966796875,-5.79780912399292
1761316274382339600,1.131339599609375,2.68953275680542,-8.252845764160156,-5.714060306549072
1761316274401261800,1.15026171875,2.579462766647339,-8.032705307006836,-5.752345561981201
1761316274420184300,1.169184326171875,2.555534601211548,-7.960920810699463,-5.881557941436768
1761316274439106600,1.1881064453125,2.3880369663238525,-7.95134973526001,-5.848058700561523
1761316274458029000,1.207029052734375,2.3784656524658203,-8.23848819732666,-5.61116886138916
1761316274476951300,1.225951416015625,2.572284460067749,-8.817551612854004,-5.601597785949707
1761316274495873800,1.244873779296875,2.531606435775757,-8.559126853942871,-6.010770320892334
1761316274514796000,1.263796142578125,2.5459632873535156,-8.228917121887207,-5.838487148284912
1761316274533718500,1.282718505859375,2.469393014907837,-7.537391185760498,-5.733202934265137
1761316274552640800,1.301640869140625,2.4670002460479736,-7.752745151519775,-5.752345561981201
1761316274571563300,1.320563232421875,2.531606435775757,-7.929814338684082,-5.694917678833008
1761316274590485500,1.339485595703125,2.337787628173828,-7.716853141784668,-5.484349727630615
1761316274609408000,1.358407958984375,2.562713146209717,-7.200003147125244,-5.343173027038574
1761316274628330200,1.377330322265625,2.414358139038086,-7.283751964569092,-5.589633464813232
1761316274647252700,1.396252685546875,2.3617160320281982,-6.448657035827637,-5.740381717681885
1761316274666175000,1.415175048828125,2.1200408935546875,-5.917450428009033,-5.824130535125732
1761316274685097500,1.434097412109375,2.6703901290893555,-7.448856830596924,-5.651846885681152
1761316274704019700,1.453019775390625,2.2612173557281494,-7.365108013153076,-5.79063081741333
1761316274722942000,1.47194189453125,2.3952155113220215,-7.534998416900635,-5.618347644805908
1761316274741864400,1.490864501953125,2.3784656524658203,-8.080561637878418,-5.788238048553467
1761316274760786700,1.50978662109375,2.562713146209717,-7.9728851318359375,-5.958128452301025
1761316274779709200,1.528709228515625,2.526820659637451,-7.7216386795043945,-6.075376510620117
1761316274798631400,1.54763134765625,2.478964328765869,-7.621140003204346,-6.025127410888672
1761316274817554000,1.566553955078125,2.562713146209717,-7.678567886352539,-5.893522262573242
1761316274836476200,1.58547607421875,2.5292134284973145,-7.621140003204346,-5.821737289428711
1761316274855398700,1.604398681640625,2.557927370071411,-7.568498134613037,-5.891129493713379
1761316274874321200,1.623321044921875,2.579462766647339,-7.5565338134765625,-5.893522262573242
1761316274893243400,1.642243408203125,2.610569477081299,-7.5637125968933105,-5.907878875732422
1761316274912166000,1.661165771484375,2.5674986839294434,-7.534998416900635,-6.001199245452881
1761316274931088100,1.680088134765625,2.562713146209717,-7.499105930328369,-6.0538411140441895
1761316274950010400,1.69901025390625,2.5387847423553467,-7.506284713745117,-5.98444938659668
1761316274968932900,1.717932861328125,2.548356056213379,-7.616354465484619,-5.886343479156494
1761316274987855000,1.736855224609375,2.5052852630615234,-7.6474609375,-6.008377552032471
1761316275006777600,1.755777587890625,2.5531418323516846,-7.5804619789123535,-5.907878875732422
1761316275025699800,1.774699951171875,2.572284460067749,-7.590033531188965,-5.816951751708984
1761316275044622300,1.793622314453125,2.218146562576294,-7.554141044616699,-5.864808082580566
1761316275063544600,1.812544677734375,2.6153552532196045,-7.582854747772217,-5.8337016105651855
1761316275082467000,1.831467041015625,2.7421748638153076,-7.568498134613037,-5.883950710296631
1761316275101389300,1.850389404296875,2.7349963188171387,-7.523034572601318,-5.931807518005371
1761316275120311800,1.869311767578125,2.6249263286590576,-7.590033531188965,-5.979663848876953
1761316275139234000,1.888234130859375,2.6321048736572266,-7.534998416900635,-5.905486106872559
1761316275158156500,1.907156494140625,2.8283164501190186,-7.5326056480407715,-5.974878311157227
1761316275177078800,1.926078857421875,2.9862427711486816,-7.434499740600586,-6.029912948608398
1761316275196001300,1.945001220703125,3.060420274734497,-7.35314416885376,-6.020341873168945
1761316275214923500,1.963923583984375,3.1178479194641113,-7.183253765106201,-5.986842155456543
1761316275233846000,1.982845947265625,3.1896326541900635,-7.058826923370361,-5.924628734588623
1761316275252768300,2.001768310546875,3.211168050765991,-6.994220733642578,-5.965306758880615
1761316275271690800,2.020690673828125,3.1585259437561035,-7.094718933105469,-6.16391134262085
1761316275290613000,2.039613037109375,3.1728827953338623,-6.900900363922119,-5.881557941436768
1761316275309535500,2.058535400390625,3.280559778213501,-6.539584159851074,-5.60399055480957
1761316275328457700,2.077457763671875,3.1824541091918945,-6.537191390991211,-5.793023586273193
1761316275347380200,2.096380126953125,3.2518460750579834,-6.680760860443115,-5.560919761657715
1761316275366302500,2.115302490234375,3.1178479194641113,-7.085147857666016,-5.4556355476379395
1761316275385225000,2.134224853515625,3.067598581314087,-7.274180889129639,-5.5106706619262695
1761316275404147200,2.153147216796875,2.926422119140625,-7.712067604064941,-5.699703693389893
1761316275423069700,2.172069580078125,2.7637102603912354,-7.752745151519775,-5.807380676269531
1761316275441992000,2.190991943359375,2.6321048736572266,-7.336394309997559,-5.5728840827941895
1761316275460914400,2.20991455078125,2.5124638080596924,-7.5565338134765625,-5.654240131378174
1761316275479836700,2.228836669921875,2.4765713214874268,-8.516056060791016,-5.599205017089844
1761316275498759200,2.24775927734375,2.2612173557281494,-8.994620323181152,-5.245067119598389
1761316275517681400,2.266681396484375,2.383251428604126,-8.999405860900879,-5.170889854431152
1761316275536604000,2.28560400390625,2.2133610248565674,-8.764909744262695,-5.00578498840332
1761316275555526100,2.304526123046875,1.6941183805465698,-8.413164138793945,-5.161318302154541
1761316275574448600,2.32344873046875,1.4691931009292603,-8.803194046020508,-5.072783946990967
1761316275593371000,2.342370849609375,1.648654818534851,-7.970492362976074,-5.424529075622559
1761316275612293400,2.36129345703125,1.1030912399291992,-7.786244869232178,-5.927021503448486
1761316275631215600,2.380215576171875,1.2801600694656372,-7.678567886352539,-6.2189459800720215
1761316275650138000,2.39913818359375,1.4787644147872925,-8.078168869018555,-5.989234924316406
1761316275669060400,2.418060302734375,1.4883357286453247,-8.513663291931152,-5.599205017089844
1761316275687982800,2.43698291015625,1.2897313833236694,-8.609375953674316,-5.594419479370117
1761316275706905000,2.455905029296875,1.1030912399291992,-7.984848976135254,-5.587240695953369
1761316275725827600,2.47482763671875,1.4883357286453247,-7.731209754943848,-5.302495002746582
1761316275744749800,2.493749755859375,1.1150553226470947,-7.558926582336426,-5.405386447906494
1761316275763672000,2.512672119140625,1.1868400573730469,-7.76470947265625,-6.058627128601074
1761316275782594600,2.531594482421875,1.3615161180496216,-7.63310432434082,-6.281159400939941
1761316275801516800,2.550516845703125,1.2035897970199585,-7.369893550872803,-6.278766632080078
1761316275820439300,2.569439208984375,1.0145567655563354,-7.269395351409912,-6.374479293823242
1761316275839361500,2.588361572265625,1.0863415002822876,-7.319644451141357,-6.534798622131348
1761316275858284000,2.607283935546875,1.1078768968582153,-7.319644451141357,-6.632904529571533
1761316275877206300,2.626206298828125,1.0097711086273193,-7.427321434020996,-6.702296257019043
1761316275896128800,2.645128662109375,0.8949156403541565,-7.6043901443481445,-6.532405853271484
1761316275915051000,2.664051025390625,0.9451649188995361,-7.582854747772217,-6.226124286651611
1761316275933973500,2.682973388671875,0.760917603969574,-7.752745151519775,-6.003592014312744
1761316275952895700,2.701895751953125,0.5838487148284912,-7.779066562652588,-5.898307800292969
1761316275971818200,2.720818359375,0.397208571434021,-7.941778182983398,-5.7786664962768555
1761316275990740500,2.739740478515625,0.5982056856155396,-7.8819580078125,-5.704489231109619
1761316276009663000,2.7586630859375,0.7872386574745178,-7.874779224395752,-5.536991596221924
1761316276028585200,2.777585205078125,0.9427721500396729,-8.01356315612793,-5.474778175354004
1761316276047507700,2.7965078125,0.9116654396057129,-7.944170951843262,-5.5106706619262695
1761316276066430000,2.815429931640625,0.8901300430297852,-7.944170951843262,-5.309673309326172
1761316276085352400,2.8343525390625,0.8279166221618652,-7.977670669555664,-5.436492919921875
1761316276104274700,2.853274658203125,0.9212366938591003,-7.9250288009643555,-5.484349727630615
1761316276123197200,2.872197265625,1.1389836072921753,-7.791030406951904,-6.128018856048584
1761316276142119400,2.891119384765625,1.0432707071304321,-7.250252723693848,-6.302694797515869
1761316276161042000,2.9100419921875,0.6747759580612183,-7.539783954620361,-6.0849480628967285
1761316276179964200,2.928964111328125,0.605384111404419,-7.89631462097168,-6.417550563812256
1761316276198886700,2.94788671875,0.5958128571510315,-7.884350776672363,-6.618547439575195
1761316276217809000,2.966808837890625,0.8350951075553894,-7.920242786407471,-6.666403770446777
1761316276236731400,2.9857314453125,1.098305583000183,-8.09970474243164,-6.51326322555542
1761316276255653600,3.004653564453125,0.9547362327575684,-8.48734188079834,-6.829115867614746
1761316276274576100,3.023576171875,0.9116654396057129,-8.839086532592773,-7.396214962005615
1761316276293498400,3.042498291015625,1.490728497505188,-9.123832702636719,-8.48734188079834
1761316276312420900,3.0614208984375,1.490728497505188,-9.174081802368164,-8.61176872253418
1761316276331343000,3.080343017578125,0.42831525206565857,-8.391629219055176,-8.350951194763184
1761316276350265600,3.099265625,1.8975083827972412,-8.997013092041016,-7.436892986297607
1761316276369187800,3.118187744140625,2.1439690589904785,-9.169296264648438,-6.6113691329956055
1761316276388110300,3.1371103515625,2.5603201389312744,-10.100104331970215,-5.958128452301025
1761316276407032600,3.156032470703125,2.4646072387695312,-11.10030460357666,-5.230710506439209
1761316276425955000,3.174955078125,1.2873386144638062,-11.743973731994629,-4.462614059448242
1761316276444877300,3.193877197265625,0.914058268070221,-11.399407386779785,-4.639683246612549
1761316276463799800,3.2127998046875,1.4811571836471558,-9.980463027954102,-5.7164530754089355
1761316276482722000,3.23172216796875,1.8305093050003052,-8.13081169128418,-6.032305717468262
1761316276501644500,3.25064453125,2.321038007736206,-7.16650390625,-6.7932233810424805
1761316276520566800,3.26956689453125,1.6390835046768188,-7.41535758972168,-7.458428382873535
1761316276539489300,3.2884892578125,1.581655740737915,-7.642675399780273,-6.654439926147461
1761316276558411500,3.30741162109375,0.7513462901115417,-7.223931789398193,-5.505885124206543
1761316276577334000,3.326333984375,1.0504491329193115,-6.814758777618408,-4.673182487487793
1761316276596256300,3.34525634765625,1.4165509939193726,-6.774080753326416,-4.170690059661865
1761316276615178800,3.3641787109375,1.7754744291305542,-7.326822757720947,-3.8883368968963623
1761316276634101000,3.38310107421875,2.5387847423553467,-7.6474609375,-3.94097900390625
1761316276653023500,3.4020234375,3.2374889850616455,-7.3986077308654785,-3.9744784832000732
1761316276671945700,3.42094580078125,2.854637384414673,-6.853044033050537,-4.359723091125488
1761316276690868200,3.4398681640625,2.139183521270752,-6.216553211212158,-3.902693748474121
1761316276709790500,3.45879052734375,2.4406790733337402,-5.7786664962768555,-3.263810157775879
1761316276728713000,3.477712890625,3.1992039680480957,-5.771488189697266,-3.0484559535980225
1761316276747635200,3.49663525390625,3.469592809677124,-6.118447303771973,-3.0556344985961914
1761316276766557700,3.5155576171875,3.85483717918396,-6.20219612121582,-3.601198196411133
1761316276785480000,3.53447998046875,3.675375461578369,-5.699703693389893,-4.144368648529053
1761316276804402400,3.55340234375,3.7710886001586914,-5.084748268127441,-4.823930263519287
1761316276823324700,3.57232470703125,4.070191383361816,-4.383651256561279,-5.443671703338623
1761316276842247200,3.5912470703125,4.8574299812316895,-4.240081787109375,-6.367300987243652
1761316276861169400,3.61016943359375,5.5728840827941895,-4.4721856117248535,-7.680960655212402
1761316276880092000,3.629091796875,6.099305152893066,-5.024927616119385,-9.269794464111328
1761316276899014100,3.64801416015625,6.479763507843018,-5.900700569152832,-10.226923942565918
1761316276917936600,3.6669365234375,6.6113691329956055,-6.0538411140441895,-9.870393753051758
1761316276936859000,3.68585888671875,7.032505512237549,-5.900700569152832,-8.286344528198242
1761316276955781400,3.704781494140625,6.900900363922119,-5.548955917358398,-6.742974281311035
1761316276974703600,3.72370361328125,6.321837425231934,-4.826323509216309,-5.864808082580566
1761316276993626000,3.742626220703125,5.182853698730469,-3.397808074951172,-5.79780912399292
1761316277012548400,3.76154833984375,3.713660717010498,-2.0195422172546387,-6.252445697784424
1761316277031470800,3.780470947265625,2.4263222217559814,-4.366901397705078,-6.573083877563477
1761316277050393000,3.79939306640625,3.2925238609313965,-9.913464546203613,-7.11146879196167
1761316277069315600,3.818315673828125,6.597012042999268,-14.151153564453125,-7.056434154510498
1761316277088237800,3.83723779296875,6.702296257019043,-16.584653854370117,-8.470592498779297
1761316277107160300,3.856160400390625,0.4905286431312561,-16.627723693847656,-8.638090133666992
1761316277126082600,3.87508251953125,-1.8664016723632812,-9.7005033493042,-2.0961127281188965
1761316277145005000,3.894005126953125,-2.715853691101074,-5.8959150314331055,1.428515076637268
1761316277163927300,3.91292724609375,-5.259424209594727,-7.408178806304932,0.7369893789291382
1761316277182849800,3.931849853515625,-5.733202934265137,-9.018548965454102,-3.476771354675293
1761316277201772000,3.95077197265625,-5.139782905578613,-10.28195858001709,-7.202396392822266
1761316277220694500,3.969694580078125,-2.957528829574585,-10.461421012878418,-8.293522834777832
1761316277239616800,3.98861669921875,1.8185452222824097,-8.544769287109375,-7.944170951843262
1761316277258539300,4.007539306640625,2.3258235454559326,-8.755337715148926,-6.920042991638184
1761316277277461500,4.02646142578125,1.8807586431503296,-9.253045082092285,-5.618347644805908
1761316277296384000,4.045384033203125,2.014756679534912,-8.963513374328613,-4.886143684387207
1761316277315306200,4.06430615234375,1.5290136337280273,-7.994420528411865,-4.534399032592773
1761316277334228700,4.083228759765625,0.31345975399017334,-7.64028263092041,-4.847858905792236
1761316277353151000,4.10215087890625,-0.3756731450557709,-7.200003147125244,-5.3934221267700195
1761316277372073500,4.121073486328125,-0.43549370765686035,-7.1234331130981445,-5.862415313720703
1761316277390995700,4.13999560546875,0.019142581149935722,-7.23589563369751,-5.819344520568848
1761316277409918200,4.158918212890625,0.35413774847984314,-7.178467750549316,-5.405386447906494
1761316277428840400,4.17784033203125,0.7082754969596863,-7.276573657989502,-5.312066078186035
1761316277447763000,4.196762939453125,0.8111668825149536,-7.312466144561768,-5.350351333618164
1761316277466685200,4.215685302734375,0.7896314859390259,-7.022934436798096,-5.522634506225586
1761316277485607700,4.234607666015625,0.7226324677467346,-6.991827964782715,-5.615954875946045
1761316277504530000,4.253530029296875,0.851844847202301,-7.080362319946289,-5.694917678833008
1761316277523452200,4.2724521484375,0.8973084688186646,-7.288537979125977,-5.804987907409668
1761316277542374700,4.291374755859375,0.6652047038078308,-7.207181930541992,-5.498706340789795
1761316277561297000,4.310296875,0.6317051649093628,-7.161718368530273,-4.826323509216309
1761316277580219400,4.329219482421875,0.24406790733337402,-7.302894592285156,-4.718646049499512
1761316277599141600,4.3481416015625,-1.0169496536254883,-7.587640762329102,-5.288137912750244
1761316277618064100,4.367064208984375,-1.399801254272461,-7.898707389831543,-6.151947021484375
1761316277636986400,4.385986328125,-0.38285163044929504,-8.202595710754395,-6.970292568206787
1761316277655908900,4.404908935546875,1.1030912399291992,-8.240880966186523,-7.255038261413574
1761316277674831400,4.423831298828125,1.8305093050003052,-8.365307807922363,-7.085147857666016
1761316277693753600,4.442753662109375,0.576670229434967,-8.886942863464355,-7.999206066131592
1761316277712676000,4.461676025390625,0.4331009089946747,-8.944371223449707,-9.734002113342285
1761316277731598300,4.480598388671875,1.2681959867477417,-9.542576789855957,-10.552348136901855
1761316277750520800,4.499520751953125,1.8711873292922974,-10.107282638549805,-9.659825325012207
1761316277769443000,4.518443115234375,3.38105845451355,-10.884950637817383,-5.690132141113281
1761316277788365600,4.537365478515625,1.9262222051620483,-11.882757186889648,-3.902693748474121
1761316277807287800,4.556287841796875,-1.069591760635376,-12.672389030456543,-4.967499732971191
1761316277826210000,4.5752099609375,-1.3830515146255493,-12.734601974487305,-6.8865437507629395
1761316277845132500,4.594132568359375,-0.04546362906694412,-12.32542896270752,-7.542177200317383
1761316277864054800,4.6130546875,2.4909284114837646,-9.305686950683594,-7.307680130004883
1761316277882977300,4.631977294921875,3.0245277881622314,-8.719446182250977,-7.207181930541992
1761316277901899500,4.6508994140625,4.570291042327881,-9.162117958068848,-6.647261142730713
1761316277920822000,4.669822021484375,1.8496519327163696,-8.72183895111084,-6.845865726470947
1761316277939744300,4.688744140625,0.39960137009620667,-8.13798999786377,-6.405586242675781
1761316277958666800,4.707666748046875,0.20338992774486542,-7.482356548309326,-5.907878875732422
1761316277977589000,4.726589111328125,0.3852444589138031,-7.22871732711792,-5.517848968505859
1761316277996511500,4.745511474609375,1.277767300605774,-7.04925537109375,-5.003392219543457
1761316278015433700,4.764433837890625,2.0267207622528076,-7.259823799133301,-4.981856822967529
1761316278034356200,4.783356201171875,1.9621145725250244,-6.991827964782715,-4.625326156616211
1761316278053278500,4.802278564453125,0.9786644577980042,-6.427121639251709,-3.9864425659179688
1761316278072201000,4.821200927734375,1.0552347898483276,-6.094519138336182,-2.7349963188171387
1761316278091123200,4.840123291015625,1.6462619304656982,-5.367101192474365,-2.084148406982422
1761316278110045700,4.859045654296875,2.4047868251800537,-5.015356063842773,-1.7419748306274414
1761316278128968000,4.877968017578125,3.136990547180176,-5.101497650146484,-1.9860427379608154
1761316278147890400,4.896890380859375,3.510270833969116,-5.072783946990967,-2.6249263286590576
1761316278166812700,4.915812744140625,3.6466617584228516,-4.589433670043945,-3.570091485977173
1761316278185735200,4.934735107421875,3.7639100551605225,-3.783052682876587,-4.1970109939575195
1761316278204657400,4.953657470703125,4.436293125152588,-3.2709884643554688,-4.878965377807617
1761316278223580000,4.972579833984375,5.3694939613342285,-3.3643085956573486,-5.6446685791015625
1761316278242502100,4.991502197265625,6.199803352355957,-4.314259052276611,-7.188039302825928
1761316278261424600,5.010424560546875,7.293323516845703,-5.690132141113281,-9.705288887023926
1761316278280347000,5.029346923828125,8.338987350463867,-7.1473612785339355,-11.205588340759277
1761316278299269400,5.048269287109375,8.858229637145996,-8.173882484436035,-9.678967475891113
1761316278318191600,5.067191650390625,8.48016357421875,-7.350750923156738,-7.130611419677734
1761316278337114000,5.086114013671875,7.503891944885254,-5.776273727416992,-4.869394302368164
1761316278356036400,5.105036376953125,5.907878875732422,-4.029513359069824,-4.048655986785889
1761316278374958800,5.123958740234375,4.677968502044678,-4.359723091125488,-5.709274768829346
1761316278393881000,5.142881103515625,5.8719868659973145,-7.70967435836792,-8.185846328735352
1761316278412803600,5.161803466796875,7.192824840545654,-13.48594856262207,-9.449256896972656
1761316278431725800,5.180725830078125,4.945964336395264,-16.752151489257812,-10.183853149414062
1761316278450648300,5.1996484375,-1.3591232299804688,-10.3681001663208,-7.489534854888916
1761316278469570600,5.218570556640625,-0.5790630578994751,-6.932007312774658,-0.9212366938591003
1761316278488493000,5.2374931640625,-0.24646073579788208,-4.625326156616211,1.5649060010910034
1761316278507415300,5.256415283203125,-3.22552490234375,-6.417550563812256,-1.430907964706421
1761316278526337800,5.275337890625,-4.362115859985352,-9.774680137634277,-4.831109046936035
1761316278545260000,5.294260009765625,-3.2279176712036133,-10.645668029785156,-6.97268533706665
1761316278564182500,5.3131826171875,-0.9547362327575684,-8.870193481445312,-8.056633949279785
1761316278583104800,5.332104736328125,1.526620864868164,-7.463213920593262,-7.393822193145752
1761316278602027300,5.35102734375,2.667997360229492,-8.353343963623047,-6.0370917320251465
1761316278620949500,5.369949462890625,2.8905298709869385,-8.874979019165039,-4.761716842651367
1761316278639872000,5.3888720703125,2.297109842300415,-8.2695951461792,-4.208974838256836
1761316278658794200,5.407794189453125,0.914058268070221,-7.207181930541992,-4.575077056884766
1761316278677716700,5.426716796875,0.25363919138908386,-6.809973239898682,-5.127819061279297
1761316278696639000,5.445638916015625,-0.28953152894973755,-6.8243303298950195,-5.773880958557129
1761316278715561200,5.464561279296875,-0.12921242415905,-7.345965385437012,-6.161518096923828
1761316278734483700,5.483483642578125,0.3038884699344635,-7.731209754943848,-6.44387149810791
1761316278753406000,5.502406005859375,0.7513462901115417,-7.525427341461182,-6.58265495300293
1761316278772328400,5.521328369140625,1.0863415002822876,-7.271788120269775,-6.161518096923828
1761316278791251000,5.5402509765625,0.8470591902732849,-7.403393268585205,-6.1710896492004395
1761316278810173200,5.559173095703125,0.6269195079803467,-7.451249599456787,-6.156732559204102
1761316278829095700,5.578095703125,0.4905286431312561,-7.264609336853027,-6.317051887512207
1761316278848018000,5.597017822265625,0.7082754969596863,-7.11146879196167,-6.329015731811523
1761316278866940400,5.6159404296875,0.7585247755050659,-6.843472957611084,-6.206982135772705
1761316278885862700,5.634862548828125,0.6317051649093628,-6.783652305603027,-6.106483459472656
1761316278904785000,5.653784912109375,0.4570291340351105,-7.195217609405518,-5.769095420837402
1761316278923707400,5.672707275390625,0.2919243574142456,-7.7838521003723145,-5.333601474761963
1761316278942629600,5.691629638671875,0.1459621787071228,-8.219346046447754,-5.5728840827941895
1761316278961552100,5.71055224609375,0.2632105052471161,-8.358129501342773,-6.283552169799805
1761316278980474400,5.729474365234375,0.2679961323738098,-8.02074146270752,-6.891329288482666
1761316278999396900,5.74839697265625,0.2991028428077698,-7.95134973526001,-7.204789161682129
1761316279018319000,5.767319091796875,0.3852444589138031,-7.89631462097168,-7.128218650817871
1761316279037241600,5.78624169921875,0.2919243574142456,-7.769495010375977,-7.642675399780273
1761316279056163800,5.805163818359375,1.5409778356552124,-7.29093074798584,-8.614161491394043
1761316279075086300,5.82408642578125,2.242074728012085,-8.664410591125488,-8.82233715057373
1761316279094008600,5.843008544921875,2.344966173171997,-9.92542839050293,-9.243474006652832
1761316279112931000,5.86193115234375,1.0791629552841187,-11.392229080200195,-8.676374435424805
1761316279131853300,5.880853271484375,-0.13639089465141296,-13.100704193115234,-7.190432071685791
1761316279150775800,5.89977587890625,0.35892340540885925,-14.715859413146973,-5.4867424964904785
1761316279169698000,5.918697998046875,1.0839486122131348,-14.514862060546875,-4.144368648529053
1761316279188620500,5.93762060546875,1.8592232465744019,-11.018948554992676,-3.019742250442505
1761316279207542800,5.956542724609375,2.6943182945251465,-9.248259544372559,-3.7495529651641846
1761316279226465300,5.97546533203125,3.177668571472168,-9.274580955505371,-6.374479293823242
1761316279245387500,5.994387451171875,1.9669002294540405,-8.96112060546875,-8.087740898132324
1761316279264310000,6.01331005859375,1.2538390159606934,-7.688138961791992,-8.346165657043457
1761316279283232300,6.032232177734375,0.6484549641609192,-7.200003147125244,-6.829115867614746
1761316279302154500,6.051154541015625,0.40677985548973083,-7.1856465339660645,-6.142375946044922
1761316279321077000,6.070076904296875,0.08374879509210587,-7.020541667938232,-5.699703693389893
1761316279339999200,6.088999267578125,0.48095735907554626,-7.142575740814209,-4.816751956939697
1761316279358921700,6.107921630859375,1.5984054803848267,-7.252645492553711,-4.7712883949279785
1761316279377844200,6.12684423828125,1.4213366508483887,-6.898507595062256,-4.615755081176758
1761316279396766500,6.145766357421875,1.34476637840271,-6.223731517791748,-3.0891339778900146
1761316279415689000,6.16468896484375,1.3615161180496216,-6.1328043937683105,-1.6223337650299072
1761316279434611200,6.183611083984375,1.3471591472625732,-5.606383323669434,-0.9954141974449158
1761316279453533400,6.202533447265625,1.4452649354934692,-5.230710506439209,-1.1341979503631592
1761316279472456000,6.2214560546875,2.297109842300415,-5.106283664703369,-2.4885356426239014
1761316279491378200,6.240378173828125,3.438486099243164,-5.051248550415039,-3.783052682876587
1761316279510300700,6.25930078125,4.41475772857666,-4.876572608947754,-4.4243292808532715
1761316279529223000,6.278222900390625,4.761716842651367,-4.187439441680908,-4.800002098083496
1761316279548145400,6.2971455078125,4.9052863121032715,-3.500699520111084,-5.314459323883057
1761316279567067600,6.316067626953125,5.589633464813232,-3.2590243816375732,-6.025127410888672
1761316279585990100,6.334990234375,6.26440954208374,-3.87876558303833,-7.365108013153076
1761316279604912400,6.353912353515625,7.140182971954346,-5.120640277862549,-9.052047729492188
1761316279623835000,6.3728349609375,8.226524353027344,-6.745367050170898,-10.547562599182129
1761316279642757000,6.391757080078125,8.561519622802734,-8.02791976928711,-10.080962181091309
1761316279661679600,6.4106796875,7.558926582336426,-7.601997375488281,-7.793423175811768
1761316279680601900,6.429601806640625,7.393822193145752,-5.735595703125,-5.161318302154541
1761316279699524400,6.4485244140625,6.4941205978393555,-3.5222349166870117,-3.3690943717956543
1761316279718446600,6.467446533203125,5.103890895843506,-4.486542224884033,-3.680161237716675
1761316279737369000,6.486369140625,4.833501815795898,-8.080561637878418,-5.606383323669434
1761316279756291300,6.505291259765625,6.774080753326416,-13.490734100341797,-7.436892986297607
1761316279775213600,6.524213623046875,4.213760852813721,-15.31167221069336,-9.437292098999023
1761316279794136000,6.543135986328125,-0.33499518036842346,-12.43549919128418,-9.982855796813965
1761316279813058300,6.562058349609375,-3.005385160446167,-9.107083320617676,-4.752145767211914
1761316279831980800,6.580980712890625,-3.6634113788604736,-5.419743061065674,-2.390429735183716
1761316279850903000,6.599903076171875,-3.304488182067871,-6.2500529289245605,-4.3549370765686035
1761316279869825500,6.618825439453125,-4.673182487487793,-9.506684303283691,-5.1876397132873535
1761316279888747800,6.637747802734375,-4.019941806793213,-11.849257469177246,-6.7621169090271
1761316279907670300,6.656670166015625,-1.5601203441619873,-11.313265800476074,-6.532405853271484
1761316279926592500,6.675592529296875,2.7493531703948975,-10.14317512512207,-5.2977094650268555
1761316279945515000,6.694514892578125,2.146361827850342,-9.822537422180176,-4.244867324829102
1761316279964437200,6.713437255859375,1.5625132322311401,-9.8871431350708,-4.326223373413086
1761316279983359700,6.73235986328125,2.0745773315429688,-8.891729354858398,-4.778466701507568
1761316280002282000,6.751281982421875,1.0719845294952393,-7.546962738037109,-5.675775527954102
1761316280021204500,6.77020458984375,0.30628129839897156,-6.874579429626465,-6.283552169799805
1761316280040126700,6.789126708984375,-0.2632105052471161,-6.64486837387085,-6.618547439575195
1761316280059049200,6.80804931640625,-0.6364908218383789,-6.759724140167236,-6.128018856048584
1761316280077971500,6.826971435546875,-0.27756741642951965,-7.039684295654297,-5.558526992797852
1761316280096894000,6.84589404296875,0.30628129839897156,-7.144968509674072,-5.144568920135498
1761316280115816200,6.864816162109375,0.8709874153137207,-7.154539585113525,-4.874179840087891
1761316280134738700,6.88373876953125,0.9978070259094238,-7.2574310302734375,-4.919643402099609
1761316280153661000,6.902660888671875,1.2705888748168945,-7.130611419677734,-5.240281581878662
1761316280172583200,6.921583251953125,1.1676974296569824,-7.0061845779418945,-5.800201892852783
1761316280191505700,6.940505615234375,0.9068797826766968,-6.898507595062256,-6.206982135772705
1761316280210428000,6.959427978515625,1.0480563640594482,-6.915257453918457,-6.594619274139404
1761316280229350400,6.978350341796875,0.6819544434547424,-6.719046115875244,-6.786045074462891
1761316280248272600,6.997272705078125,0.19142581522464752,-6.778866767883301,-6.967899322509766
1761316280267195100,7.016195068359375,0.4498506486415863,-7.152146816253662,-6.778866767883301
1761316280286117400,7.035117431640625,0.7130611538887024,-7.5326056480407715,-6.692724704742432
1761316280305040000,7.054039794921875,0.20578274130821228,-7.95134973526001,-7.247859954833984
1761316280323962000,7.072962158203125,-0.25363919138908386,-8.149953842163086,-7.513463020324707
1761316280342884600,7.091884521484375,-0.14835500717163086,-8.260024070739746,-7.434499740600586
1761316280361806800,7.110806884765625,0.6891329288482666,-8.449056625366211,-7.345965385437012
1761316280380729300,7.129729248046875,1.1078768968582153,-8.85344409942627,-7.95134973526001
1761316280399651600,7.148651611328125,1.794616937637329,-8.24566650390625,-8.834300994873047
1761316280418573800,7.16757373046875,0.10049854964017868,-8.097311973571777,-9.616754531860352
1761316280437496300,7.186496337890625,0.6197410821914673,-10.12881851196289,-10.834700584411621
1761316280456418600,7.20541845703125,1.947757601737976,-12.835101127624512,-8.429914474487305
1761316280475341000,7.224341064453125,2.0027925968170166,-13.715659141540527,-4.505684852600098
1761316280494263300,7.24326318359375,1.0815558433532715,-13.476377487182617,-3.2135608196258545
1761316280513185800,7.262185791015625,0.42831525206565857,-12.849457740783691,-3.376272678375244
1761316280532108000,7.28110791015625,0.7010970115661621,-10.911271095275879,-3.187239646911621
1761316280551030500,7.300030517578125,2.4837498664855957,-9.681360244750977,-5.381458282470703
1761316280569952800,7.318952880859375,2.9240293502807617,-9.650253295898438,-7.22871732711792
1761316280588875300,7.337875244140625,1.7826528549194336,-9.018548965454102,-7.822137355804443
1761316280607797500,7.356797607421875,1.3160524368286133,-8.12123966217041,-7.913064479827881
1761316280626720000,7.375719970703125,0.4378865361213684,-7.81974458694458,-6.510870456695557
1761316280645642200,7.394642333984375,0.6125625967979431,-7.04207706451416,-5.965306758880615
1761316280664564700,7.413564697265625,0.7034898400306702,-6.936792850494385,-4.962714195251465
1761316280683487000,7.432487060546875,1.0863415002822876,-6.742974281311035,-4.620540618896484
1761316280702409200,7.4514091796875,1.2394821643829346,-6.759724140167236,-3.8117663860321045
1761316280721331700,7.470331787109375,1.6654045581817627,-6.307480335235596,-2.840280532836914
1761316280740254000,7.48925390625,1.6869399547576904,-5.962913990020752,-2.0673987865448
1761316280759176400,7.508176513671875,1.7922241687774658,-5.661418437957764,-1.828116536140442
1761316280778098700,7.5270986328125,1.7252250909805298,-5.565705299377441,-1.7778671979904175
1761316280797021200,7.546021240234375,2.1918256282806396,-5.857629776000977,-2.4287149906158447
1761316280815943400,7.564943359375,2.909672260284424,-5.6590256690979,-3.1178479194641113
1761316280834866000,7.583865966796875,3.476771354675293,-5.175675392150879,-3.38105845451355
1761316280853788200,7.6027880859375,3.6993038654327393,-4.524827480316162,-3.838087558746338
1761316280872710700,7.621710693359375,4.12761926651001,-3.8907296657562256,-4.701896667480469
1761316280891633000,7.6406328125,5.240281581878662,-3.7399818897247314,-5.84566593170166
1761316280910555100,7.65955517578125,6.668796539306641,-4.438685894012451,-7.2095746994018555
1761316280929477600,7.6784775390625,7.69531774520874,-5.850451469421387,-9.004191398620605
1761316280948399900,7.69739990234375,8.353343963623047,-7.307680130004883,-10.810772895812988
1761316280967322400,7.716322265625,8.197810173034668,-8.190631866455078,-10.482955932617188
1761316280986244600,7.73524462890625,7.788637638092041,-7.654639720916748,-8.417949676513672
1761316281005167000,7.7541669921875,7.302894592285156,-4.8574299812316895,-5.788238048553467
1761316281024089300,7.77308935546875,6.632904529571533,-1.648654818534851,-3.720839262008667
1761316281043011800,7.79201171875,5.173282623291016,-2.093719720840454,-3.7112679481506348
1761316281061934000,7.81093408203125,4.692325115203857,-7.788637638092041,-6.1950178146362305
1761316281080856300,7.829856201171875,6.953542709350586,-16.663616180419922,-9.671789169311523
1761316281099778800,7.84877880859375,6.3601226806640625,-20.36052703857422,-10.176674842834473
1761316281118701000,7.867701171875,0.7322037220001221,-10.963912963867188,-5.955735683441162
1761316281137623600,7.88662353515625,-0.064606212079525,-6.25723123550415,-1.2275179624557495
1761316281156545800,7.9055458984375,1.3758729696273804,-4.785645484924316,0.8470591902732849
1761316281175468300,7.92446826171875,-2.9288148880004883,-4.034298896789551,-1.0480563640594482
1761316281194390500,7.943390625,-5.706881999969482,-6.845865726470947,-5.54177713394165
1761316281213313000,7.96231298828125,-4.132404804229736,-9.982855796813965,-8.46341323852539
1761316281232235300,7.9812353515625,-0.48813581466674805,-10.2747802734375,-8.14516830444336
1761316281251157800,8.00015771484375,-0.672383189201355,-10.214960098266602,-6.8482584953308105
1761316281270080000,8.019080078125,1.9334007501602173,-9.961320877075195,-4.677968502044678
1761316281289002500,8.03800244140625,1.4739787578582764,-9.489934921264648,-3.9625144004821777
1761316281307924700,8.0569248046875,1.215553879737854,-8.50169849395752,-4.295116424560547
1761316281326847000,8.075846923828125,1.129412293434143,-7.779066562652588,-5.194818019866943
1761316281345769500,8.09476953125,1.0097711086273193,-7.348358154296875,-5.867201328277588
1761316281364691700,8.113691650390624,0.6340979933738708,-7.2574310302734375,-6.3840508460998535
1761316281383614200,8.1326142578125,0.32542386651039124,-7.121040344238281,-6.745367050170898
1761316281402536400,8.151536376953125,0.004785645287483931,-7.355536937713623,-6.348158359527588
1761316281421459000,8.170458984375,0.1579262912273407,-7.334001541137695,-6.254838466644287
1761316281440381200,8.189381103515625,0.4139583110809326,-7.018148899078369,-6.015556335449219
1761316281459303700,8.2083037109375,0.8542376756668091,-7.142575740814209,-5.948556900024414
1761316281478226000,8.227225830078124,1.2993026971817017,-7.4225358963012695,-6.003592014312744
1761316281497148200,8.246148193359375,1.1892328262329102,-7.324429988861084,-5.802595138549805
1761316281516070700,8.265070556640625,1.0432707071304321,-6.929614543914795,-5.5968122482299805
1761316281534993000,8.283992919921875,0.916451096534729,-6.6831536293029785,-5.546562671661377
1761316281553915400,8.302915283203125,0.5742774605751038,-6.996613502502441,-5.864808082580566
1761316281572837600,8.321837646484376,0.3924229145050049,-7.412964344024658,-6.613761901855469
1761316281591760100,8.340760009765624,0.38763725757598877,-7.599604606628418,-7.214360237121582
1761316281610682400,8.359682373046875,0.8135597109794617,-7.357929706573486,-7.561319351196289
1761316281629604600,8.3786044921875,0.7657032608985901,-7.348358154296875,-7.3986077308654785
1761316281648527000,8.397527099609375,-0.03349951654672623,-7.795815944671631,-7.286144733428955
1761316281667449300,8.416449462890625,-0.24406790733337402,-8.439485549926758,-6.726224422454834
1761316281686371800,8.435371826171876,0.33020952343940735,-9.023334503173828,-6.412764549255371
1761316281705294000,8.454294189453124,0.44745782017707825,-9.040083885192871,-6.876972198486328
1761316281724216600,8.473216552734375,1.1222338676452637,-8.889336585998535,-8.346165657043457
1761316281743138800,8.492138916015625,1.3112667798995972,-8.193024635314941,-8.63330364227295
1761316281762061300,8.511061279296875,1.9310078620910645,-8.135597229003906,-9.154939651489258
1761316281780983600,8.529983642578125,3.321237802505493,-9.044869422912598,-9.635896682739258
1761316281799905800,8.54890576171875,2.6943182945251465,-10.822736740112305,-8.243273735046387
1761316281818828300,8.567828369140624,0.016749758273363113,-12.299108505249023,-6.38883638381958
1761316281837750500,8.58675048828125,-0.9978070259094238,-13.007384300231934,-5.44845724105835
1761316281856673000,8.605673095703125,-0.18903298676013947,-12.77049446105957,-4.907679080963135
1761316281875595300,8.62459521484375,1.9453648328781128,-11.00459098815918,-4.579862594604492
1761316281894517800,8.643517822265625,3.730410575866699,-10.490134239196777,-5.438885688781738
1761316281913440000,8.66243994140625,3.3858439922332764,-10.028319358825684,-7.302894592285156
1761316281932362500,8.681362548828124,2.6392834186553955,-8.719446182250977,-8.094919204711914
1761316281951284700,8.70028466796875,0.6245267391204834,-7.106683254241943,-8.011170387268066
1761316281970207000,8.71920703125,-0.33499518036842346,-6.142375946044922,-7.286144733428955
1761316281989129500,8.73812939453125,-0.41156548261642456,-5.788238048553467,-6.118447303771973
1761316282008051700,8.7570517578125,0.07896314561367035,-5.941378593444824,-4.871787071228027
1761316282026974200,8.77597412109375,1.3519448041915894,-7.027719974517822,-3.9672999382019043
1761316282045896400,8.794896484375,2.4095723628997803,-7.192824840545654,-3.486342668533325
1761316282064819000,8.81381884765625,1.9836499691009521,-6.429514408111572,-3.3332018852233887
1761316282083741200,8.8327412109375,1.5696916580200195,-5.8719868659973145,-2.6009981632232666
1761316282102663400,8.851663330078125,1.3519448041915894,-5.446064472198486,-2.0099709033966064
1761316282121586000,8.8705859375,1.6031911373138428,-5.034498691558838,-1.5337992906570435
1761316282140508200,8.889508056640626,2.416750907897949,-5.335994720458984,-1.643869161605835
1761316282159430700,8.9084306640625,3.1561331748962402,-5.474778175354004,-2.3617160320281982
1761316282178353000,8.927352783203125,3.735196113586426,-5.290530681610107,-3.263810157775879
1761316282197275400,8.946275390625,4.438685894012451,-4.9435715675354,-4.12761926651001
1761316282216197600,8.96519775390625,5.424529075622559,-4.646861553192139,-5.194818019866943
1761316282235119900,8.984119873046875,6.6831536293029785,-4.807180881500244,-6.417550563812256
1761316282254042400,9.00304248046875,7.769495010375977,-5.816951751708984,-7.788637638092041
1761316282272964600,9.021964599609374,8.535198211669922,-6.879364967346191,-9.475577354431152
1761316282291887000,9.04088720703125,8.109275817871094,-7.575676441192627,-10.14317512512207
1761316282310809300,9.059809326171875,7.980063438415527,-7.259823799133301,-9.367900848388672
1761316282329731800,9.07873193359375,7.618747234344482,-5.718846321105957,-7.436892986297607
1761316282348654000,9.097654052734375,7.5804619789123535,-4.1036906242370605,-5.123033046722412
1761316282367576300,9.116576416015626,7.113861560821533,-4.436293125152588,-4.285545349121094
1761316282386498800,9.135498779296874,6.833901405334473,-8.164310455322266,-6.44387149810791
1761316282405421000,9.154421142578125,7.3986077308654785,-13.706088066101074,-9.104690551757812
1761316282424343600,9.173343505859375,4.807180881500244,-16.972291946411133,-9.34157943725586
1761316282443265800,9.192265869140625,0.2871387302875519,-9.480362892150879,-8.149953842163086
1761316282462188000,9.21118798828125,-1.2131611108779907,-4.761716842651367,-1.7180466651916504
1761316282481110500,9.230110595703126,1.0815558433532715,-4.500899314880371,0.9619147181510925
1761316282500033000,9.249032958984374,-1.2251251935958862,-5.570491313934326,1.0145567655563354
1761316282518955300,9.267955322265625,-4.278367042541504,-7.8628153800964355,-2.8426733016967773
1761316282537877500,9.28687744140625,-2.2612173557281494,-10.40638542175293,-5.264209747314453
1761316282556800000,9.305800048828125,-0.576670229434967,-11.432906150817871,-6.860222339630127
1761316282575722200,9.32472216796875,0.698704183101654,-10.6025972366333,-6.391229152679443
1761316282594644700,9.343644775390626,2.857030153274536,-8.413164138793945,-5.800201892852783
1761316282613567000,9.36256689453125,1.1509476900100708,-6.838686943054199,-6.38165807723999
1761316282632489200,9.3814892578125,0.4307080805301666,-6.716653347015381,-6.252445697784424
1761316282651411700,9.40041162109375,0.02153540402650833,-7.058826923370361,-6.491727828979492
1761316282670334000,9.419333984375,0.2225325107574463,-7.293323516845703,-6.204588890075684
1761316282689256400,9.43825634765625,0.5647061467170715,-7.408178806304932,-6.26440954208374
1761316282708178700,9.4571787109375,1.038485050201416,-7.432106971740723,-6.680760860443115
1761316282727101200,9.47610107421875,1.1748759746551514,-7.467999458312988,-6.51326322555542
1761316282746023400,9.4950234375,0.9068797826766968,-7.341179847717285,-6.056233882904053
1761316282764945700,9.513945556640625,1.0217353105545044,-7.685746192932129,-5.85284423828125
1761316282783868200,9.5328681640625,0.9906286001205444,-7.774280548095703,-5.8719868659973145
1761316282802790400,9.551790283203125,0.5694918036460876,-7.590033531188965,-5.565705299377441
1761316282821713000,9.570712890625,0.5551348328590393,-7.70249605178833,-5.424529075622559
1761316282840635100,9.58963525390625,0.9523434042930603,-7.448856830596924,-5.501099109649658
1761316282859557400,9.608557373046875,1.0863415002822876,-6.857829570770264,-5.974878311157227
1761316282878480000,9.62747998046875,1.2035897970199585,-6.733402729034424,-6.6113691329956055
1761316282897402000,9.646402099609375,1.0767701864242554,-6.640082836151123,-7.393822193145752
1761316282916324600,9.66532470703125,0.6675975322723389,-6.766902446746826,-7.575676441192627
1761316282935246800,9.684246826171876,0.7561319470405579,-7.17368221282959,-7.171289443969727
1761316282954169000,9.703169189453124,0.916451096534729,-7.712067604064941,-6.601797580718994
1761316282973091600,9.722091552734375,0.7250252366065979,-8.38684368133545,-6.613761901855469
1761316282992013800,9.741013916015625,0.11724831163883209,-9.109476089477539,-6.776473522186279
1761316283010936300,9.759936279296875,-0.3852444589138031,-9.695717811584473,-7.010970115661621
1761316283029858600,9.778858642578125,-0.5862415432929993,-10.119247436523438,-6.955935478210449
1761316283048781000,9.797781005859376,-0.45942193269729614,-10.250852584838867,-7.561319351196289
1761316283067703300,9.816703369140624,-0.6532405614852905,-10.085747718811035,-8.585447311401367
1761316283086625500,9.83562548828125,0.15074782073497772,-9.564111709594727,-8.298309326171875
1761316283105548000,9.854548095703125,0.31824541091918945,-10.016355514526367,-8.032705307006836
1761316283124470300,9.87347021484375,0.6819544434547424,-10.06421184539795,-7.109076023101807
1761316283143392800,9.892392822265625,2.0817556381225586,-9.879964828491211,-5.850451469421387
1761316283162315000,9.91131494140625,2.0315065383911133,-10.037891387939453,-5.1876397132873535
1761316283181237500,9.930237548828124,0.34695929288864136,-10.097711563110352,-5.9676995277404785
1761316283200159700,9.94915966796875,-0.5264210104942322,-10.207781791687012,-5.7547383308410645
1761316283219082000,9.96808203125,-0.6173482537269592,-10.521241188049316,-5.213960647583008
1761316283238004500,9.98700439453125,0.18424734473228455,-9.999606132507324,-4.505684852600098
1761316283256926700,10.0059267578125,2.9958138465881348,-9.784252166748047,-5.173282623291016
1761316283275849200,10.02484912109375,3.462414264678955,-9.879964828491211,-6.39601469039917
1761316283294771500,10.043771484375,1.5912270545959473,-9.145368576049805,-6.436692714691162
1761316283313693700,10.062693603515624,0.8662018179893494,-8.159524917602539,-6.068198204040527
1761316283332616200,10.0816162109375,0.33020952343940735,-7.523034572601318,-5.532206058502197
1761316283351538400,10.100538330078125,0.20338992774486542,-7.278966426849365,-4.9292144775390625
1761316283370461000,10.1194609375,1.301695466041565,-7.3986077308654785,-4.778466701507568
1761316283389383200,10.138383056640626,0.4977070987224579,-7.561319351196289,-4.9292144775390625
1761316283408305400,10.157305419921874,1.801795482635498,-7.594819068908691,-4.445864677429199
1761316283427228000,10.176227783203124,2.201396942138672,-6.948757171630859,-3.7878382205963135
1761316283446150100,10.195150146484375,2.0195422172546387,-5.869594097137451,-3.7328033447265625
1761316283465072600,10.21407275390625,2.2157537937164307,-5.0943193435668945,-3.2063822746276855
1761316283483995000,10.232994873046875,2.139183521270752,-4.718646049499512,-2.799602508544922
1761316283502917000,10.251917236328126,1.950150489807129,-5.19960355758667,-2.909672260284424
1761316283521839600,10.270839599609374,2.3736801147460938,-5.434100151062012,-3.136990547180176
1761316283540761900,10.289761962890625,3.014956474304199,-5.1804609298706055,-3.3643085956573486
1761316283559684400,10.308684326171875,3.4576287269592285,-4.622933387756348,-3.7112679481506348
1761316283578606600,10.327606689453125,4.070191383361816,-3.996013879776001,-4.433900356292725
1761316283597528800,10.34652880859375,4.9531426429748535,-3.7471601963043213,-5.240281581878662
1761316283616451300,10.365451416015626,5.78345251083374,-4.1970109939575195,-6.204588890075684
1761316283635373600,10.38437353515625,6.64486837387085,-5.209175109863281,-7.707281589508057
1761316283654296000,10.403296142578125,6.9822564125061035,-6.369693756103516,-9.442078590393066
1761316283673218300,10.42221826171875,7.872386455535889,-7.551748275756836,-10.308279991149902
1761316283692140500,10.441140625,8.226524353027344,-7.6666035652160645,-9.305686950683594
1761316283711063000,10.46006298828125,7.549355506896973,-6.489335060119629,-7.348358154296875
1761316283729985300,10.4789853515625,6.556334018707275,-4.59421968460083,-5.400600910186768
1761316283748907800,10.49790771484375,5.929414749145508,-2.9072794914245605,-4.486542224884033
1761316283767830000,10.516830078125,4.883750915527344,-4.316651821136475,-4.883750915527344
1761316283786752300,10.535752197265625,4.517649173736572,-7.795815944671631,-6.6113691329956055
1761316283805674800,10.5546748046875,4.800002098083496,-11.523834228515625,-8.398807525634766
1761316283824597000,10.573596923828125,5.163711071014404,-14.746966361999512,-8.575876235961914
1761316283843519500,10.59251953125,2.713460922241211,-12.227323532104492,-7.348358154296875
1761316283862441700,10.611441650390624,1.5074782371520996,-8.082955360412598,-3.452843189239502
1761316283881364200,10.6303642578125,2.400001049041748,-7.190432071685791,0.32542386651039124
1761316283900286500,10.649286376953125,-0.5240281820297241,-6.367300987243652,0.5000999569892883
1761316283919208700,10.668208740234375,-3.9601213932037354,-7.219145774841309,-2.943171739578247
1761316283938131200,10.687131103515625,-5.730810165405273,-9.229117393493652,-7.04925537109375
1761316283957053400,10.706053466796876,-3.0029923915863037,-8.934800148010254,-8.37727165222168
1761316283975976000,10.724975830078124,-0.8063812255859375,-7.81974458694458,-7.061219692230225
1761316283994898200,10.743898193359374,0.8638089895248413,-8.126026153564453,-5.912664890289307
1761316284013820400,10.7628203125,2.754138946533203,-9.549755096435547,-5.082355499267578
1761316284032743000,10.781742919921875,2.1367905139923096,-9.889535903930664,-5.3694939613342285
1761316284051665200,10.8006650390625,2.0889341831207275,-8.908478736877441,-5.6207404136657715
1761316284070587400,10.81958740234375,1.1940184831619263,-7.920242786407471,-5.592026710510254
1761316284089510000,10.838510009765624,0.32303106784820557,-7.2574310302734375,-5.814558982849121
1761316284108432100,10.85743212890625,-0.25363919138908386,-6.642475605010986,-5.678168296813965
1761316284127354600,10.876354736328125,-0.698704183101654,-6.632904529571533,-5.838487148284912
1761316284146276900,10.89527685546875,-0.29431718587875366,-7.140182971954346,-6.230910301208496
1761316284165199000,10.91419921875,0.4546363055706024,-7.692924976348877,-6.515655994415283
1761316284184121600,10.93312158203125,0.9068797826766968,-7.75753116607666,-6.501298904418945
1761316284203043800,10.9520439453125,1.5864413976669312,-7.585247993469238,-6.288337707519531
1761316284221966300,10.97096630859375,1.8065811395645142,-7.463213920593262,-5.962913990020752
1761316284240888600,10.989888671875,1.459621787071228,-7.1234331130981445,-5.8959150314331055
1761316284259810800,11.008810791015625,1.277767300605774,-6.733402729034424,-5.864808082580566
1761316284278733300,11.0277333984375,1.0241280794143677,-6.474977970123291,-5.879165172576904
1761316284297655600,11.046655517578126,0.8446664214134216,-6.6831536293029785,-6.343372821807861
1761316284316578000,11.065578125,0.576670229434967,-6.879364967346191,-6.912864685058594
1761316284335500300,11.084500244140624,0.2632105052471161,-7.008577346801758,-7.03489875793457
1761316284354422500,11.103422607421875,0.13639089465141296,-7.231110095977783,-6.594619274139404
1761316284373345000,11.122344970703125,0.12681959569454193,-7.5086774826049805,-6.295516490936279
1761316284392267300,11.141267333984375,0.04307080805301666,-7.704888820648193,-6.455835342407227
1761316284411189500,11.160189453125,-0.2392822653055191,-7.932207107543945,-6.673582553863525
1761316284430112000,11.179112060546874,-0.5144568681716919,-8.367700576782227,-6.704689025878906
1761316284449034200,11.1980341796875,-0.3852444589138031,-9.193224906921387,-7.29810905456543
1761316284467956700,11.216956787109375,0.02153540402650833,-9.58325481414795,-8.204988479614258
1761316284486879000,11.23587890625,0.8877372145652771,-9.57607650756836,-8.176275253295898
1761316284505801200,11.25480126953125,0.24646073579788208,-10.258030891418457,-8.374878883361816
1761316284524723700,11.2737236328125,0.727418065071106,-11.485548973083496,-8.642875671386719
1761316284543646000,11.29264599609375,1.7994025945663452,-12.06939697265625,-7.523034572601318
1761316284562568200,11.311568115234374,2.823530673980713,-11.866007804870605,-4.776073932647705
1761316284581490700,11.33049072265625,1.8735800981521606,-11.499905586242676,-3.5054850578308105
1761316284600413000,11.349412841796875,0.5694918036460876,-10.37767219543457,-3.4576287269592285
1761316284619335400,11.36833544921875,-0.3756731450557709,-9.923035621643066,-4.376472473144531
1761316284638257700,11.387257568359376,0.6317051649093628,-9.245866775512695,-5.472385406494141
1761316284657180200,11.40618017578125,1.277767300605774,-8.149953842163086,-6.331408500671387
1761316284676102400,11.425102294921874,1.7730815410614014,-8.322237014770508,-7.140182971954346
1761316284695024600,11.444024658203125,1.3782658576965332,-8.93240737915039,-6.860222339630127
1761316284713947100,11.462947021484375,1.0408778190612793,-8.666803359985352,-6.666403770446777
1761316284732869400,11.481869384765625,0.7968099117279053,-8.09252643585205,-5.529813289642334
1761316284751791600,11.50079150390625,1.00259268283844,-7.735995769500732,-5.053641319274902
1761316284770714000,11.519714111328126,1.1174482107162476,-7.4464640617370605,-4.668396949768066
1761316284789636400,11.53863623046875,1.765903115272522,-7.427321434020996,-4.680361270904541
1761316284808558800,11.557558837890625,2.122433662414551,-7.29810905456543,-4.551148891448975
1761316284827481000,11.576481201171875,2.63449764251709,-6.831508636474609,-4.658825874328613
1761316284846403300,11.5954033203125,2.122433662414551,-6.252445697784424,-4.115654945373535
1761316284865325800,11.614325927734376,1.8544375896453857,-5.79780912399292,-3.7112679481506348
1761316284884248000,11.633248046875,1.7084753513336182,-5.4795637130737305,-3.28773832321167
1761316284903170300,11.65217041015625,1.8711873292922974,-5.252245903015137,-3.012563705444336
1761316284922092800,11.6710927734375,2.2923240661621094,-5.26899528503418,-3.1106693744659424
1761316284941015000,11.69001513671875,2.8929226398468018,-5.31685209274292,-3.4193434715270996
1761316284959937500,11.7089375,3.1034910678863525,-5.06082010269165,-3.7232320308685303
1761316284978859800,11.72785986328125,3.5030922889709473,-4.697110652923584,-4.122833251953125
1761316284997782000,11.746781982421876,4.211368083953857,-4.685146808624268,-4.72582483291626
1761316285016704500,11.76570458984375,5.72841739654541,-5.111069202423096,-5.955735683441162
1761316285035626800,11.784626708984375,7.051648139953613,-5.680561065673828,-7.920242786407471
1761316285054549000,11.803549072265625,7.968099594116211,-6.228517532348633,-9.750752449035645
1761316285073471500,11.822471435546875,8.221738815307617,-6.967899322509766,-10.660024642944336
1761316285092393700,11.841393798828125,7.6498541831970215,-7.501499176025391,-9.573683738708496
1761316285111316200,11.860316162109376,7.121040344238281,-6.838686943054199,-7.054041385650635
1761316285130238500,11.879238525390624,6.69990348815918,-5.529813289642334,-5.357530117034912
1761316285149160700,11.89816064453125,5.740381717681885,-6.386443614959717,-4.991427898406982
1761316285168083200,11.917083251953125,6.831508636474609,-9.736394882202148,-8.056633949279785
1761316285187005400,11.93600537109375,6.092126369476318,-15.407384872436523,-10.162318229675293
1761316285205927700,11.954927734375,3.8835511207580566,-15.333207130432129,-8.523234367370605
1761316285224850200,11.97385009765625,1.2346965074539185,-8.01356315612793,-5.900700569152832
1761316285243772400,11.9927724609375,-0.3278166949748993,-2.8905298709869385,-1.1772687435150146
1761316285262694700,12.011694580078125,-0.0933200865983963,-2.6225335597991943,0.8446664214134216
1761316285281617200,12.0306171875,-0.5599204897880554,-5.111069202423096,-0.8135597109794617
1761316285300539400,12.049539306640625,-2.2540390491485596,-9.226723670959473,-3.5270206928253174
1761316285319462000,12.0684619140625,-2.7876384258270264,-11.96889877319336,-6.429514408111572
1761316285338384100,12.087384033203126,0.06699903309345245,-10.939985275268555,-6.477370738983154
1761316285357306400,12.106306396484374,0.064606212079525,-8.578269004821777,-6.379265308380127
1761316285376228900,12.125228759765625,0.33738797903060913,-7.355536937713623,-6.831508636474609
1761316285395151000,12.144151123046875,1.2346965074539185,-7.680960655212402,-6.714260101318359
1761316285414073600,12.163073486328125,1.454836130142212,-8.149953842163086,-6.015556335449219
1761316285432995800,12.181995849609375,1.1270195245742798,-8.039883613586426,-5.649454116821289
1761316285451918000,12.20091796875,0.5670989751815796,-7.865208148956299,-5.592026710510254
1761316285470840600,12.219840576171874,0.13160525262355804,-7.623532772064209,-5.295316696166992
1761316285489762800,12.2387626953125,0.4498506486415863,-7.36032247543335,-5.395814895629883
1761316285508685000,12.25768505859375,0.5120640397071838,-7.465606689453125,-5.13739013671875
1761316285527607600,12.276607666015625,0.8303094506263733,-7.83410120010376,-5.158925533294678
1761316285546529800,12.29552978515625,0.9954141974449158,-7.980063438415527,-5.446064472198486
1761316285565452000,12.3144521484375,0.9595218896865845,-8.015955924987793,-5.687739372253418
1761316285584374500,12.33337451171875,0.9332008361816406,-7.9585280418396,-6.317051887512207
1761316285603296800,12.352296875,0.8590233325958252,-7.635497093200684,-6.4701924324035645
1761316285622219300,12.37121923828125,0.7082754969596863,-7.271788120269775,-6.192625045776367
1761316285641141500,12.3901416015625,0.7800601720809937,-6.994220733642578,-5.831308841705322
1761316285660063700,12.409063720703125,0.7010970115661621,-7.22871732711792,-5.936593055725098
1761316285678986200,12.427986328125,0.6173482537269592,-7.312466144561768,-5.972485542297363
1761316285697908500,12.446908447265624,0.5742774605751038,-7.424928665161133,-5.773880958557129
1761316285716830700,12.465830810546874,0.8039883971214294,-7.652246952056885,-5.723631858825684
1761316285735753200,12.484753173828125,0.9379864931106567,-7.724031448364258,-6.056233882904053
1761316285754675500,12.503675537109375,0.7728816866874695,-7.788637638092041,-6.096911907196045
1761316285773597700,12.52259765625,0.6891329288482666,-7.8317084312438965,-5.931807518005371
1761316285792520200,12.541520263671876,0.5718846321105957,-7.915457248687744,-6.137589931488037
1761316285811442400,12.5604423828125,0.29431718587875366,-8.025527000427246,-6.685546398162842
1761316285830364700,12.57936474609375,-0.0933200865983963,-8.193024635314941,-7.063612461090088
1761316285849287200,12.598287109375,-0.14356936514377594,-8.15234661102295,-7.094718933105469
1761316285868209400,12.61720947265625,-0.11246266216039658,-8.049455642700195,-7.3052873611450195
1761316285887132000,12.6361318359375,0.5096712112426758,-8.030312538146973,-8.566305160522461
1761316285906054100,12.65505419921875,0.7082754969596863,-7.9250288009643555,-9.547362327575684
1761316285924976400,12.673976318359376,-0.18903298676013947,-7.917850017547607,-9.80100154876709
1761316285943899000,12.69289892578125,-0.06939185410737991,-8.764909744262695,-10.092926025390625
1761316285962821000,12.711821044921875,0.8279166221618652,-10.265209197998047,-9.08554744720459
1761316285981743400,12.730743408203125,1.5696916580200195,-11.983255386352539,-7.135396957397461
1761316286000665900,12.749665771484375,2.6368906497955322,-12.76331615447998,-3.924229145050049
1761316286019588000,12.768588134765626,1.8496519327163696,-12.263216018676758,-2.124826431274414
1761316286038510300,12.78751025390625,-0.07178468257188797,-11.073983192443848,-2.4574289321899414
1761316286057432800,12.806432861328124,-0.17706887423992157,-9.973284721374512,-3.053241729736328
1761316286076355000,12.82535498046875,0.3756731450557709,-9.41336441040039,-4.886143684387207
1761316286095277300,12.84427734375,0.8374879360198975,-8.504091262817383,-5.726024627685547
1761316286114199800,12.86319970703125,1.557727575302124,-8.128418922424316,-7.767102241516113
1761316286133122000,12.8821220703125,2.2229323387145996,-8.46341323852539,-7.530212879180908
1761316286152044500,12.90104443359375,1.8807586431503296,-8.544769287109375,-6.183053493499756
1761316286170966800,12.919966796875,1.3304094076156616,-8.34138011932373,-4.981856822967529
1761316286189889000,12.938888916015625,0.9284151792526245,-7.865208148956299,-4.223331928253174
1761316286208811500,12.9578115234375,0.8590233325958252,-7.070790767669678,-4.2209391593933105
1761316286227733800,12.976733642578125,0.9834501147270203,-6.728617191314697,-4.579862594604492
1761316286246656000,12.995656005859376,1.552941918373108,-6.69990348815918,-4.338187217712402
1761316286265578500,13.01457861328125,2.2995026111602783,-6.472585201263428,-3.7734813690185547
1761316286284500700,13.033500732421874,2.586641311645508,-6.355337142944336,-3.38105845451355
1761316286303423200,13.05242333984375,2.6871397495269775,-6.606583118438721,-3.5150563716888428
1761316286322345500,13.071345458984375,2.6297121047973633,-6.788437843322754,-3.950550079345703
1761316286341267700,13.090267822265625,2.943171739578247,-6.920042991638184,-4.137190341949463
1761316286360190200,13.109190185546876,3.538984775543213,-6.853044033050537,-4.479363918304443
1761316286379112400,13.128112548828126,4.1970109939575195,-6.97986364364624,-5.194818019866943
1761316286398034700,13.14703466796875,4.67078971862793,-6.728617191314697,-5.886343479156494
1761316286416957200,13.165957275390625,5.108676433563232,-6.20219612121582,-6.642475605010986
1761316286435879400,13.18487939453125,5.123033046722412,-5.886343479156494,-7.17368221282959
1761316286454801700,13.2038017578125,5.218746185302734,-5.635097503662109,-6.996613502502441
1761316286473724200,13.22272412109375,4.479363918304443,-5.4867424964904785,-6.98704195022583
1761316286492646400,13.241646484375,4.438685894012451,-5.410171985626221,-7.015756130218506
1761316286511568600,13.260568603515624,4.333401679992676,-5.6925249099731445,-6.8171515464782715
1761316286530491100,13.2794912109375,4.589433670043945,-6.022734642028809,-6.029912948608398
1761316286549413400,13.298413330078125,4.527220249176025,-6.051448345184326,-5.218746185302734
1761316286568335600,13.317335693359375,3.85483717918396,-5.821737289428711,-4.646861553192139
1761316286587258000,13.336258056640625,3.4648072719573975,-6.116054534912109,-4.405186653137207
1761316286606180400,13.355180419921876,3.7088751792907715,-7.946564197540283,-4.890929698944092
1761316286625102600,13.3741025390625,4.153940200805664,-11.765508651733398,-6.97268533706665
1761316286644025000,13.393025146484375,6.092126369476318,-12.533604621887207,-7.503891944885254
1761316286662947300,13.411947265625,5.563312530517578,-10.679167747497559,-8.848658561706543
1761316286681869600,13.43086962890625,1.3495519161224365,-8.023134231567383,-8.432307243347168
1761316286700792000,13.4497919921875,-0.32542386651039124,-5.898307800292969,-5.630311489105225
1761316286719714300,13.46871435546875,0.03349951654672623,-5.723631858825684,-2.9312076568603516
1761316286738636500,13.487636474609374,-0.5790630578994751,-6.333801746368408,-3.483949661254883
1761316286757559000,13.50655908203125,0.38285163044929504,-7.707281589508057,-6.362515449523926
1761316286776481300,13.525481201171875,2.445464849472046,-8.635697364807129,-7.22871732711792
1761316286795403500,13.544403564453125,3.074777126312256,-8.544769287109375,-6.853044033050537
1761316286814326000,13.563325927734375,3.431307554244995,-8.200202941894531,-6.125626087188721
1761316286833248300,13.582248291015626,2.392822742462158,-7.893921852111816,-5.4556355476379395
1761316286852170500,13.60117041015625,1.923829436302185,-7.29093074798584,-5.788238048553467
1761316286871093000,13.620093017578125,1.8305093050003052,-6.6831536293029785,-6.393621921539307
1761316286890015200,13.63901513671875,1.8735800981521606,-6.455835342407227,-6.757331371307373
1761316286908937500,13.6579375,2.720639228820801,-6.695117950439453,-6.64486837387085
1761316286927860000,13.67685986328125,3.012563705444336,-7.7216386795043945,-5.9198431968688965
1761316286956243500,13.705243408203126,2.9838497638702393,-8.240880966186523,-5.376672267913818
1761316286975165700,13.724165771484374,3.074777126312256,-8.059026718139648,-5.302495002746582
1761316286994088200,13.743088134765625,3.105883836746216,-7.7216386795043945,-5.953342914581299
1761316287013010400,13.762010498046875,3.4432718753814697,-7.240681171417236,-6.367300987243652
1761316287031932700,13.7809326171875,3.359523057937622,-6.941578388214111,-6.508477687835693
1761316287050855200,13.799855224609376,3.383451223373413,-7.164111137390137,-6.565905570983887
1761316287069777400,13.81877734375,3.414557933807373,-7.343572616577148,-6.278766632080078
1761316287088699600,13.83769970703125,3.4193434715270996,-7.192824840545654,-6.027520179748535
1761316287107622100,13.8566220703125,3.3930225372314453,-7.144968509674072,-5.85284423828125
1761316287126544400,13.87554443359375,3.5198421478271484,-7.288537979125977,-5.773880958557129
1761316287145466600,13.894466552734375,3.6370904445648193,-7.35314416885376,-5.726024627685547
1761316287164389000,13.91338916015625,3.85483717918396,-7.319644451141357,-5.804987907409668
1761316287183311400,13.932311279296876,3.656233072280884,-7.149754047393799,-6.104090690612793
1761316287202233900,13.95123388671875,3.4983067512512207,-7.085147857666016,-6.1710896492004395
1761316287221156000,13.970156005859375,3.436093330383301,-7.0995049476623535,-6.166304111480713
1761316287240078300,13.989078369140625,3.5461630821228027,-6.946363925933838,-6.216553211212158
1761316287259000800,14.008000732421875,3.596412420272827,-6.905686378479004,-6.142375946044922
1761316287277923000,14.026923095703125,3.680161237716675,-7.027719974517822,-6.116054534912109
1761316287296845300,14.04584521484375,3.6442689895629883,-7.073183536529541,-6.190232276916504
1761316287315767800,14.064767822265624,3.538984775543213,-7.058826923370361,-6.137589931488037
1761316287334690000,14.08368994140625,3.675375461578369,-7.03489875793457,-6.020341873168945
1761316287353612300,14.1026123046875,3.675375461578369,-7.089933395385742,-6.044270038604736
1761316287372534800,14.12153466796875,3.682554006576538,-7.133004188537598,-6.0466628074646
1761316287391457000,14.14045703125,3.610769271850586,-7.082755088806152,-6.049055576324463
1761316287410379300,14.159379150390626,3.5509488582611084,-7.015756130218506,-6.041877269744873
1761316287429301800,14.1783017578125,3.6131622791290283,-7.04925537109375,-5.9676995277404785
1761316287448224000,14.19722412109375,3.6394832134246826,-7.013363361358643,-5.9916276931762695
1761316287467146200,14.216146240234375,3.4815568923950195,-7.018148899078369,-5.946164131164551
1761316287486068700,14.23506884765625,3.6777684688568115,-7.03489875793457,-5.989234924316406
1761316287504991000,14.253990966796875,3.5533416271209717,-7.04207706451416,-6.010770320892334
1761316287523913200,14.272913330078126,3.838087558746338,-7.0301127433776855,-5.864808082580566
1761316287542835700,14.291835693359374,4.005585193634033,-6.97986364364624,-6.034698486328125
1761316287561758000,14.310758056640625,3.775874137878418,-6.860222339630127,-6.022734642028809
1761316287580680400,14.329680419921875,3.4983067512512207,-6.723831653594971,-6.041877269744873
