time,seconds_elapsed,z,y,x
1761316273499949300,0.24894921875,-0.04393935203552246,0.025656700134277344,0.08209943771362305
1761316273518871800,0.267871826171875,-0.020118236541748047,-0.05682802200317383,0.025654315948486328
1761316273537794000,0.2867939453125,-0.04219937324523926,-0.05216836929321289,0.004082679748535156
1761316273556716500,0.305716552734375,-0.07792997360229492,-0.005321502685546875,-0.00495147705078125
1761316273575638800,0.324638671875,-0.08513975143432617,0.02176046371459961,0.04072093963623047
1761316273594561300,0.343561279296875,-0.02255868911743164,0.011380672454833984,0.028975486755371094
1761316273613483500,0.3624833984375,-0.07634949684143066,0.07351541519165039,-0.022233009338378906
1761316273632406000,0.381406005859375,-0.05973625183105469,0.04231739044189453,-0.04510021209716797
1761316273651328300,0.400328369140625,0.08445310592651367,-0.016547203063964844,-0.01774740219116211
1761316273670250800,0.419250732421875,0.027219772338867188,-0.013393402099609375,-0.048600196838378906
1761316273689173000,0.438173095703125,-0.02311539649963379,-0.02162313461303711,0.02654552459716797
1761316273708095500,0.457095458984375,0.07200431823730469,0.014749526977539062,0.07852697372436523
1761316273727017700,0.476017822265625,0.1419689655303955,0.02680683135986328,0.026468753814697266
1761316273745940200,0.494940185546875,0.07619452476501465,-0.029975414276123047,0.006115436553955078
1761316273764862500,0.513862548828125,0.08121347427368164,0.028684616088867188,-0.03743124008178711
1761316273783785000,0.532784912109375,0.0023429393768310547,0.08440971374511719,-0.059474945068359375
1761316273802707200,0.551707275390625,-0.15578341484069824,-0.0022606849670410156,-0.0471949577331543
1761316273821629700,0.570629638671875,-0.15451407432556152,-0.012685775756835938,-0.0028409957885742188
1761316273840552200,0.58955224609375,-0.16762995719909668,-0.08836984634399414,0.11634397506713867
1761316273859474400,0.608474365234375,-0.0981743335723877,-0.08692455291748047,0.1163034439086914
1761316273878396700,0.627396728515625,-0.06327700614929199,-0.1441211700439453,0.0844578742980957
1761316273897319200,0.646319091796875,-0.042901039123535156,-0.019609451293945312,0.10686445236206055
1761316273916241400,0.665241455078125,-0.09027814865112305,-0.08295059204101562,0.03412961959838867
1761316273935164000,0.684163818359375,-0.08183479309082031,0.011441230773925781,0.008845806121826172
1761316273954086100,0.703086181640625,-0.08488941192626953,0.07660388946533203,-0.1008000373840332
1761316273973008600,0.722008544921875,-0.06265616416931152,0.06559562683105469,-0.07241582870483398
1761316273991931000,0.740930908203125,-0.018647193908691406,0.05437326431274414,-0.07169628143310547
1761316274010853400,0.759853271484375,-0.04779863357543945,-0.040753841400146484,-0.0493621826171875
1761316274029775600,0.778775634765625,-0.06570839881896973,-0.06548881530761719,-0.05375957489013672
1761316274048698000,0.797697998046875,-0.038909912109375,-0.15329933166503906,-0.03960132598876953
1761316274067620400,0.816620361328125,0.19511723518371582,0.10881853103637695,0.028045177459716797
1761316274086542800,0.83554296875,-0.06308960914611816,0.2084522247314453,-0.27099609375
1761316274105465000,0.854465087890625,-0.10565733909606934,0.2791309356689453,-0.20948266983032227
1761316274124387600,0.8733876953125,-0.0831766128540039,0.2568631172180176,-0.24951791763305664
1761316274143309800,0.892309814453125,-0.002106904983520508,0.12650632858276367,-0.2389206886291504
1761316274162232300,0.911232421875,-0.06329154968261719,0.06998872756958008,-0.16965579986572266
1761316274181154600,0.930154541015625,0.026305675506591797,0.041796207427978516,-0.03525733947753906
1761316274200077000,0.9490771484375,0.11645650863647461,0.02789449691772461,0.07594013214111328
1761316274218999300,0.967999267578125,0.13399744033813477,-0.004200935363769531,0.03665447235107422
1761316274237921800,0.986921875,0.03708529472351074,0.10500907897949219,-0.015976905822753906
1761316274256844000,1.005843994140625,0.09333515167236328,0.5997433662414551,-0.05411243438720703
1761316274275766500,1.0247666015625,-0.5222048759460449,0.3556828498840332,-1.0116214752197266
1761316274294688800,1.043688720703125,-0.11284303665161133,-0.29253292083740234,0.48415184020996094
1761316274313611300,1.062611328125,0.35544538497924805,-1.0817198753356934,-0.20937871932983398
1761316274332533500,1.081533447265625,0.3845198154449463,-0.4799337387084961,0.07482767105102539
1761316274351456000,1.1004560546875,-0.08624410629272461,0.2336711883544922,0.06131744384765625
1761316274370378200,1.119378173828125,-0.15770649909973145,-0.012849807739257812,-0.18279170989990234
1761316274389300700,1.13830078125,0.14430952072143555,-0.4117450714111328,-0.08421659469604492
1761316274408223000,1.157222900390625,0.023201704025268555,-0.19507694244384766,-0.10780096054077148
1761316274427145500,1.1761455078125,0.008933544158935547,-0.13492059707641602,-0.20394134521484375
1761316274446067700,1.195067626953125,-0.14382028579711914,-0.14383792877197266,-0.13046836853027344
1761316274464990200,1.213990234375,-0.13538098335266113,-0.44007301330566406,0.13550901412963867
1761316274483912400,1.232912353515625,0.0673367977142334,-1.0002593994140625,0.159027099609375
1761316274502835000,1.2518349609375,0.016919851303100586,-0.7247381210327148,-0.232147216796875
1761316274521757200,1.270757080078125,0.02887248992919922,-0.38428306579589844,-0.045264244079589844
1761316274540679700,1.2896796875,-0.03675365447998047,0.29847049713134766,0.06734514236450195
1761316274559602000,1.308601806640625,-0.014507293701171875,0.07534456253051758,0.0603485107421875
1761316274578524400,1.3275244140625,0.07148551940917969,-0.10543060302734375,0.13326120376586914
1761316274597446700,1.34644677734375,-0.11130189895629883,0.0995936393737793,0.3460249900817871
1761316274616369200,1.365369140625,0.1149911880493164,0.5885529518127441,0.48669004440307617
1761316274635291400,1.38429150390625,-0.02575516700744629,0.49459362030029297,0.22504663467407227
1761316274654214000,1.4032138671875,-0.07894086837768555,1.3038883209228516,0.053736209869384766
1761316274673136000,1.42213623046875,-0.3131065368652344,1.8034453392028809,-0.026177406311035156
1761316274692058600,1.44105859375,0.23882341384887695,0.26317834854125977,0.14429712295532227
1761316274710980900,1.45998095703125,-0.17878174781799316,0.3331308364868164,0.01342153549194336
1761316274729903400,1.4789033203125,-0.0563664436340332,0.14798402786254883,0.1933441162109375
1761316274748825600,1.49782568359375,-0.07906246185302734,-0.40511274337768555,0.03497314453125
1761316274767748000,1.516748046875,0.10033679008483887,-0.30281925201416016,-0.1220393180847168
1761316274786670300,1.53567041015625,0.0605626106262207,-0.05836057662963867,-0.22592449188232422
1761316274805592800,1.5545927734375,0.011296987533569336,0.03527402877807617,-0.1651911735534668
1761316274824515000,1.57351513671875,0.09408926963806152,-0.026607990264892578,-0.02711343765258789
1761316274843437600,1.5924375,0.05717301368713379,0.0269622802734375,0.048107147216796875
1761316274862359800,1.61135986328125,0.08243346214294434,0.0760951042175293,-0.018592357635498047
1761316274881282000,1.630281982421875,0.0993051528930664,0.0822610855102539,-0.016575336456298828
1761316274900204500,1.64920458984375,0.12347960472106934,0.06902265548706055,-0.027403831481933594
1761316274919126800,1.668126708984375,0.07528901100158691,0.09197568893432617,-0.11507272720336914
1761316274938049300,1.68704931640625,0.06756281852722168,0.121734619140625,-0.16010475158691406
1761316274956971800,1.7059716796875,0.04310131072998047,0.10844755172729492,-0.08473777770996094
1761316274975894000,1.72489404296875,0.05320858955383301,-0.0030541419982910156,0.015177726745605469
1761316274994816500,1.74381640625,0.00929117202758789,-0.03235769271850586,-0.10469770431518555
1761316275013738800,1.76273876953125,0.057351112365722656,0.034182071685791016,-0.0021505355834960938
1761316275032661200,1.7816611328125,0.07389402389526367,0.023532390594482422,0.08558797836303711
1761316275051583500,1.80058349609375,-0.26554012298583984,0.05800485610961914,0.04085350036621094
1761316275070505700,1.819505615234375,0.1250476837158203,0.029914379119873047,0.07085847854614258
1761316275089428200,1.83842822265625,0.2512786388397217,0.04523515701293945,0.018161296844482422
1761316275108350500,1.8573505859375,0.23990750312805176,0.09246635437011719,-0.03162717819213867
1761316275127273000,1.87627294921875,0.12410831451416016,0.026712894439697266,-0.08400297164916992
1761316275146195200,1.8951953125,0.13090085983276367,0.08009672164916992,-0.009070396423339844
1761316275165117700,1.91411767578125,0.32787513732910156,0.08275461196899414,-0.0766153335571289
1761316275184040000,1.9330400390625,0.4848463535308838,0.17932510375976562,-0.12566137313842773
1761316275202962400,1.95196240234375,0.5549311637878418,0.2552914619445801,-0.10955429077148438
1761316275221884700,1.970884765625,0.6091358661651611,0.4168524742126465,-0.07219696044921875
1761316275240807200,1.98980712890625,0.6779265403747559,0.535064697265625,-0.01467132568359375
1761316275259729400,2.0087294921875,0.6955657005310059,0.5975441932678223,-0.0679931640625
1761316275278652000,2.02765185546875,0.6405041217803955,0.49904537200927734,-0.2759218215942383
1761316275297574100,2.04657421875,0.6537911891937256,0.6937165260314941,-0.009122371673583984
1761316275316496600,2.06549658203125,0.7592623233795166,1.0508160591125488,0.23489856719970703
1761316275335419000,2.0844189453125,0.662553071975708,1.0434861183166504,0.019890308380126953
1761316275354341400,2.10334130859375,0.728459358215332,0.8859848976135254,0.23296642303466797
1761316275373263600,2.122263671875,0.5844602584838867,0.47640562057495117,0.31487321853637695
1761316275392186000,2.14118603515625,0.5261642932891846,0.29355478286743164,0.22840499877929688
1761316275411108400,2.1601083984375,0.37555646896362305,-0.11480951309204102,0.003838062286376953
1761316275430030800,2.17903076171875,0.2200756072998047,-0.11539745330810547,-0.1409134864807129
1761316275448953000,2.197953125,0.10917186737060547,0.3403797149658203,0.04386281967163086
1761316275467875600,2.21687548828125,0.014174699783325195,0.167633056640625,-0.10396385192871094
1761316275486797800,2.2357978515625,0.007407426834106445,-0.7237696647644043,-0.10551929473876953
1761316275505720300,2.25472021484375,-0.17345976829528809,-1.1293153762817383,0.20618724822998047
1761316275524642600,2.273642578125,-0.017815351486206055,-1.0845704078674316,0.25040102005004883
1761316275543565000,2.29256494140625,-0.15576672554016113,-0.821688175201416,0.3968815803527832
1761316275562487300,2.3114873046875,-0.6424778699874878,-0.45009613037109375,0.22949743270874023
1761316275581409800,2.330409912109375,-0.8211857080459595,-0.8219451904296875,0.3151273727416992
1761316275600332000,2.34933203125,-0.5923862457275391,0.025928497314453125,-0.03913068771362305
1761316275619254500,2.368254638671875,-1.08530855178833,0.2199110984802246,-0.5368742942810059
1761316275638176800,2.3871767578125,-0.8399871587753296,0.3318290710449219,-0.8086299896240234
1761316275657099300,2.406099365234375,-0.569409966468811,-0.06541728973388672,-0.5517911911010742
1761316275676021500,2.425021484375,-0.48378849029541016,-0.4956817626953125,-0.13665771484375
1761316275694944000,2.443944091796875,-0.601768970489502,-0.5815801620483398,-0.11113452911376953
1761316275713866200,2.4628662109375,-0.7061170339584351,0.056400299072265625,-0.09484529495239258
1761316275732788700,2.481788818359375,-0.2432459592819214,0.31914186477661133,0.1958293914794922
1761316275751711000,2.5007109375,-0.5470011234283447,0.49668121337890625,0.09862613677978516
1761316275770633500,2.519633544921875,-0.4090757369995117,0.29950714111328125,-0.5500326156616211
1761316275789555700,2.5385556640625,-0.175512433052063,0.4399285316467285,-0.7679777145385742
1761316275808478200,2.557478271484375,-0.26891565322875977,0.7121386528015137,-0.7626428604125977
1761316275827400400,2.576400390625,-0.3912992477416992,0.8211545944213867,-0.8568768501281738
1761316275846323000,2.595322998046875,-0.2524622678756714,0.7804312705993652,-1.0167078971862793
1761316275865245200,2.6142451171875,-0.16439306735992432,0.7939267158508301,-1.1199450492858887
1761316275884167700,2.633167724609375,-0.20028436183929443,0.7044792175292969,-1.2020540237426758
1761316275903090000,2.65208984375,-0.25335776805877686,0.5466132164001465,-1.0460386276245117
1761316275922012400,2.671012451171875,-0.14021062850952148,0.5848493576049805,-0.7520890235900879
1761316275940934700,2.6899345703125,-0.25582247972488403,0.43126964569091797,-0.5430498123168945
1761316275959857000,2.70885693359375,-0.35784024000167847,0.42371034622192383,-0.4545097351074219
1761316275978779400,2.727779296875,-0.45839279890060425,0.28571176528930664,-0.35925865173339844
1761316275997701600,2.74670166015625,-0.1592370867729187,0.37889671325683594,-0.32294321060180664
1761316276016624000,2.7656240234375,0.12839341163635254,0.42601871490478516,-0.20740938186645508
1761316276035546400,2.78454638671875,0.3826064467430115,0.32906436920166016,-0.20508432388305664
1761316276054468900,2.80346875,0.4420666992664337,0.43554115295410156,-0.30272579193115234
1761316276073391400,2.822391357421875,0.506721556186676,0.4717111587524414,-0.17292261123657227
1761316276092313600,2.841313720703125,0.5301661491394043,0.4718036651611328,-0.3632068634033203
1761316276111236000,2.860236083984375,0.6928812861442566,0.5492634773254395,-0.4632110595703125
1761316276130158300,2.879158447265625,0.9496839642524719,0.7046513557434082,-1.1438584327697754
1761316276149080800,2.898080810546875,0.8726312518119812,1.2381982803344727,-1.326674461364746
1761316276168003000,2.917003173828125,0.5207808613777161,0.9287152290344238,-1.0981330871582031
1761316276186925600,2.935925537109375,0.4667338728904724,0.5647544860839844,-1.4064650535583496
1761316276205847800,2.954847900390625,0.46678537130355835,0.5713706016540527,-1.5799570083618164
1761316276224770300,2.973770263671875,0.708645224571228,0.5336260795593262,-1.5991473197937012
1761316276243692500,2.992692626953125,0.9582777619361877,0.35589122772216797,-1.42106294631958
1761316276262614800,3.01161474609375,0.784579336643219,-0.02476787567138672,-1.699422836303711
1761316276281537300,3.030537353515625,0.7045238018035889,-0.37520408630371094,-2.1831183433532715
1761316276300459500,3.04945947265625,1.2379035949707031,-0.6946620941162109,-3.193157196044922
1761316276319382000,3.068382080078125,1.1270400285720825,-0.8115015029907227,-3.1897764205932617
1761316276338304300,3.08730419921875,-0.10023954510688782,-0.11479759216308594,-2.7903528213500977
1761316276357226800,3.106226806640625,1.1518969535827637,-0.8153572082519531,-1.740727424621582
1761316276376149000,3.12514892578125,1.1138185262680054,-1.0973072052001953,-0.7877249717712402
1761316276395071500,3.144071533203125,1.1724313497543335,-2.1515164375305176,-0.020389556884765625
1761316276413993700,3.16299365234375,0.6736990213394165,-3.29188871383667,0.8074564933776855
1761316276432916200,3.181916259765625,-0.8801754713058472,-4.095647811889648,1.6763124465942383
1761316276451838500,3.20083837890625,-1.5354218482971191,-3.9278883934020996,1.6254796981811523
1761316276470761000,3.219760986328125,-1.192077398300171,-2.6923861503601074,0.6850824356079102
1761316276489683200,3.23868310546875,-1.060469388961792,-1.0303683280944824,0.4891071319580078
1761316276508605700,3.257605712890625,-0.77854323387146,-0.24460172653198242,-0.17650222778320312
1761316276527528000,3.27652783203125,-1.660476565361023,-0.6403331756591797,-0.7832183837890625
1761316276546450400,3.295450439453125,-1.9171156883239746,-0.9915318489074707,0.045171260833740234
1761316276565372700,3.31437255859375,-2.9441492557525635,-0.6859116554260254,1.1894803047180176
1761316276584295200,3.333295166015625,-2.8189470767974854,-0.3820457458496094,2.0072073936462402
1761316276603217400,3.352217529296875,-2.6067123413085938,-0.44664669036865234,2.497973918914795
1761316276622140000,3.371139892578125,-2.3760194778442383,-1.0960979461669922,2.7723050117492676
1761316276641062100,3.390062255859375,-1.7224242687225342,-1.4997963905334473,2.7124667167663574
1761316276659984600,3.408984619140625,-1.145939588546753,-1.3112068176269531,2.6411216259002686
1761316276678907000,3.427906982421875,-1.6588537693023682,-0.8038983345031738,2.1897130012512207
1761316276697829400,3.446829345703125,-2.465961456298828,-0.1781930923461914,2.5703635215759277
1761316276716751600,3.465751708984375,-2.192361831665039,0.28609132766723633,3.136030912399292
1761316276735674000,3.484674072265625,-1.4184162616729736,0.35196590423583984,3.279010534286499
1761316276754596400,3.503596435546875,-1.0983917713165283,0.08323812484741211,3.2072415351867676
1761316276773518800,3.522518798828125,-0.6394340991973877,0.08551025390625,2.609684705734253
1761316276792441000,3.541441162109375,-0.7268819808959961,0.6701579093933105,2.0302071571350098
1761316276811363600,3.560363525390625,-0.5153274536132812,1.3616485595703125,1.3349790573120117
1761316276830285800,3.579285888671875,-0.08243513107299805,2.1386570930480957,0.7098841667175293
1761316276849208300,3.598208251953125,0.8519387245178223,2.3691091537475586,-0.22138309478759766
1761316276868130600,3.617130615234375,1.707855463027954,2.2277278900146484,-1.5452542304992676
1761316276887053000,3.636052978515625,2.3383686542510986,1.7477407455444336,-3.1380276679992676
1761316276905975300,3.654975341796875,2.7776060104370117,0.9114384651184082,-4.079677104949951
1761316276924897800,3.673897705078125,2.9315390586853027,0.7632656097412109,-3.6896309852600098
1761316276943820000,3.692820068359375,3.3252172470092773,0.8924546241760254,-2.076676845550537
1761316276962742500,3.711742431640625,3.1296868324279785,1.1942591667175293,-0.5087089538574219
1761316276981664800,3.730664794921875,2.4874534606933594,1.8478660583496094,0.403200626373291
1761316277000587300,3.749587158203125,1.3175737857818604,3.211651086807251,0.5061330795288086
1761316277019509500,3.768509521484375,-0.11767935752868652,4.551200866699219,0.08811378479003906
1761316277038432000,3.787431884765625,-1.2854738235473633,2.2154431343078613,-0.19302129745483398
1761316277057354200,3.806354248046875,-0.1882028579711914,-3.2528514862060547,-0.6711125373840332
1761316277076276700,3.82527685546875,3.3393502235412598,-7.378432273864746,-0.5716805458068848
1761316277095199000,3.844198974609375,3.497908353805542,-9.715536117553711,-1.992356300354004
1761316277114121500,3.86312158203125,-2.7372634410858154,-9.701128005981445,-2.166813850402832
1761316277133043700,3.882043701171875,-5.003847122192383,-2.711839199066162,4.35053014755249
1761316277151966200,3.90096630859375,-5.675533294677734,1.1891155242919922,7.802325248718262
1761316277170888400,3.919888427734375,-7.956387519836426,-0.14993906021118164,6.9711689949035645
1761316277189811000,3.93881103515625,-8.166938781738281,-1.603233814239502,2.653109550476074
1761316277208733200,3.957733154296875,-7.389248371124268,-2.7916364669799805,-1.0910768508911133
1761316277227655700,3.97665576171875,-5.002699851989746,-2.949894428253174,-2.119598388671875
1761316277246578000,3.995577880859375,0.01717507839202881,-1.0274405479431152,-1.6832284927368164
1761316277265500400,4.01450048828125,0.7054426670074463,-1.203646183013916,-0.6397590637207031
1761316277284422700,4.033422607421875,0.38912999629974365,-1.6445527076721191,0.6336312294006348
1761316277303345200,4.05234521484375,0.6508898735046387,-1.2976388931274414,1.3285441398620605
1761316277322267400,4.071267333984375,0.27935791015625,-0.2739996910095215,1.632411003112793
1761316277341190000,4.09018994140625,-0.8403469324111938,0.1401348114013672,1.2538180351257324
1761316277360112000,4.109112060546875,-1.4333574771881104,0.6435484886169434,0.6359195709228516
1761316277379034600,4.12803466796875,-1.3771216869354248,0.7799849510192871,0.10032463073730469
1761316277397956900,4.146956787109375,-0.7832242250442505,0.7222104072570801,0.08493328094482422
1761316277416879400,4.16587939453125,-0.3029874861240387,0.833442211151123,0.43602609634399414
1761316277435801600,4.184801513671875,0.1912766695022583,0.7915387153625488,0.4578585624694824
1761316277454724000,4.20372412109375,0.407382994890213,0.8151383399963379,0.33710813522338867
1761316277473646300,4.222646240234375,0.48052120208740234,1.1645464897155762,0.07573175430297852
1761316277492568800,4.24156884765625,0.505424439907074,1.2478036880493164,-0.09920358657836914
1761316277511491000,4.260490966796875,0.7345036864280701,1.1986775398254395,-0.24264049530029297
1761316277530413600,4.27941357421875,0.8803778886795044,1.0193061828613281,-0.4018568992614746
1761316277549335800,4.298335693359375,0.7333449125289917,1.1239089965820312,-0.1389460563659668
1761316277568258300,4.31725830078125,0.7703131437301636,1.1881957054138184,0.4915332794189453
1761316277587180500,4.3361806640625,0.43305182456970215,1.0665817260742188,0.5548572540283203
1761316277606103000,4.35510302734375,-0.7835006713867188,0.8070034980773926,-0.06399774551391602
1761316277625025300,4.374025390625,-1.0958229303359985,0.52130126953125,-0.9734148979187012
1761316277643947800,4.39294775390625,0.009287774562835693,0.23963642120361328,-1.8281879425048828
1761316277662870000,4.4118701171875,1.571068525314331,0.2245779037475586,-2.1496100425720215
1761316277681792500,4.43079248046875,2.3214571475982666,0.12371826171875,-2.013906478881836
1761316277700714800,4.44971484375,1.024310827255249,-0.38234710693359375,-2.935415267944336
1761316277719637200,4.46863720703125,0.8195416927337646,-0.45154762268066406,-4.621375560760498
1761316277738559500,4.4875595703125,1.5181180238723755,-1.0940685272216797,-5.325284481048584
1761316277757482000,4.50648193359375,1.8940205574035645,-1.7197246551513672,-4.294071197509766
1761316277776404200,4.525404296875,3.0953540802001953,-2.5722780227661133,-0.19165515899658203
1761316277795326700,4.54432666015625,1.245266079902649,-3.6555795669555664,1.7060704231262207
1761316277814249000,4.5632490234375,-2.136709690093994,-4.568737983703613,0.7845163345336914
1761316277833171500,4.58217138671875,-2.7382302284240723,-4.813193321228027,-0.9139938354492188
1761316277852093700,4.60109375,-1.605337142944336,-4.626127243041992,-1.3002510070800781
1761316277871016200,4.62001611328125,0.7316467761993408,-1.8267955780029297,-0.8350343704223633
1761316277889938400,4.6389384765625,1.0514577627182007,-1.4434151649475098,-0.5544223785400391
1761316277908861000,4.65786083984375,2.369851589202881,-2.073090076446533,0.14782428741455078
1761316277927783200,4.676783203125,-0.6346436738967896,-1.8151421546936035,0.0477604866027832
1761316277946705700,4.69570556640625,-2.3842849731445312,-1.4096994400024414,0.5507397651672363
1761316277965628000,4.7146279296875,-2.871824026107788,-0.9230484962463379,1.0811338424682617
1761316277984550400,4.73355029296875,-2.9552111625671387,-0.823641300201416,1.4822654724121094
1761316278003472600,4.75247265625,-2.3154053688049316,-0.7949008941650391,1.9952640533447266
1761316278022395100,4.77139501953125,-1.8449087142944336,-1.1624197959899902,1.996324062347412
1761316278041317400,4.7903173828125,-2.211289167404175,-1.0402331352233887,2.292271614074707
1761316278060239600,4.809239501953125,-3.4567956924438477,-0.5765080451965332,2.833508014678955
1761316278079162000,4.828162109375,-3.5783119201660156,-0.2791604995727539,3.952986240386963
1761316278098084400,4.84708447265625,-3.127861976623535,0.4616880416870117,4.457184314727783
1761316278117006800,4.8660068359375,-2.4483015537261963,0.8544650077819824,4.66729736328125
1761316278135929000,4.88492919921875,-1.7278876304626465,0.8244705200195312,4.329015731811523
1761316278154851600,4.9038515625,-1.3329432010650635,0.9156975746154785,3.6192169189453125
1761316278173773800,4.92277392578125,-1.1578378677368164,1.46661376953125,2.6134917736053467
1761316278192696300,4.9416962890625,-0.9672386646270752,2.349074363708496,1.9429349899291992
1761316278211618600,4.96061865234375,-0.17444801330566406,2.949596405029297,1.240495204925537
1761316278230541000,4.979541015625,0.9156208038330078,2.957770347595215,0.47037506103515625
1761316278249463300,4.99846337890625,1.893465518951416,2.1190505027770996,-1.0868988037109375
1761316278268385800,5.0173857421875,3.071735382080078,0.8375744819641113,-3.6268534660339355
1761316278287308000,5.03630810546875,4.150722503662109,-0.5522198677062988,-5.137638568878174
1761316278306230500,5.05523046875,4.656401634216309,-1.547126293182373,-3.6109671592712402
1761316278325152800,5.07415283203125,4.242204189300537,-0.7286276817321777,-1.0532383918762207
1761316278344075300,5.0930751953125,3.2429375648498535,0.8083791732788086,1.2390289306640625
1761316278362997500,5.11199755859375,1.6547207832336426,2.5006675720214844,2.1096396446228027
1761316278381920000,5.130919921875,0.48659181594848633,2.136467933654785,0.5107541084289551
1761316278400842200,5.14984228515625,1.7910714149475098,-1.211625576019287,-1.882460594177246
1761316278419764700,5.1687646484375,3.211738109588623,-6.9712042808532715,-3.0477776527404785
1761316278438687000,5.18768701171875,1.0391924381256104,-10.19410514831543,-3.706758499145508
1761316278457609500,5.206609375,-5.145594596862793,-3.782958507537842,-0.9431977272033691
1761316278476531700,5.22553173828125,-4.1982197761535645,-0.293118953704834,5.636838436126709
1761316278495454200,5.2444541015625,-3.7016396522521973,2.1286916732788086,8.03637981414795
1761316278514376400,5.26337646484375,-6.459560394287109,0.5052661895751953,4.924175262451172
1761316278533299000,5.282298828125,-7.317400932312012,-2.69911527633667,1.4748811721801758
1761316278552221200,5.30122119140625,-5.9243550300598145,-3.480797290802002,-0.6447939872741699
1761316278571143700,5.320143798828125,-3.4243037700653076,-1.6808929443359375,-1.6513938903808594
1761316278590066000,5.33906591796875,-0.72452712059021,-0.2637343406677246,-0.9136862754821777
1761316278608988400,5.357988525390625,0.600266695022583,-1.1098880767822266,0.46056604385375977
1761316278627910700,5.37691064453125,0.968316912651062,-1.5577945709228516,1.7008094787597656
1761316278646833200,5.395833251953125,0.5058438777923584,-0.871856689453125,2.1961092948913574
1761316278665755400,5.41475537109375,-0.7563034892082214,0.2771639823913574,1.7520108222961426
1761316278684678000,5.433677978515625,-1.2820719480514526,0.7659225463867188,1.1115188598632812
1761316278703600000,5.45260009765625,-1.6705503463745117,0.840735912322998,0.38244056701660156
1761316278722522600,5.471522705078125,-1.341173529624939,0.40915584564208984,-0.08794069290161133
1761316278741444900,5.49044482421875,-0.7249487638473511,0.11438226699829102,-0.4532623291015625
1761316278760367400,5.509367431640625,-0.09851199388504028,0.4049215316772461,-0.6753835678100586
1761316278779289600,5.52828955078125,0.3924473524093628,0.7398495674133301,-0.3462953567504883
1761316278798212000,5.547212158203125,0.30205339193344116,0.6904411315917969,-0.45731163024902344
1761316278817134300,5.56613427734375,0.22606778144836426,0.7279019355773926,-0.5560622215270996
1761316278836056600,5.585056640625,0.2401599884033203,1.0032892227172852,-0.8426246643066406
1761316278854979000,5.60397900390625,0.6084905862808228,1.240771770477295,-0.9836344718933105
1761316278873901600,5.622901611328125,0.790922999382019,1.5783672332763672,-0.9780411720275879
1761316278892823800,5.64182373046875,0.7748159170150757,1.6880545616149902,-0.969703197479248
1761316278911746300,5.660746337890625,0.7006526589393616,1.3066954612731934,-0.694547176361084
1761316278930668500,5.67966845703125,0.6276499032974243,0.7355027198791504,-0.29953813552856445
1761316278949591000,5.698591064453125,0.557857871055603,0.31697940826416016,-0.574521541595459
1761316278968513300,5.71751318359375,0.7342890501022339,0.20189571380615234,-1.3274517059326172
1761316278987435800,5.736435791015625,0.7826701402664185,0.5672636032104492,-1.9835734367370605
1761316279006358000,5.75535791015625,0.8375394940376282,0.6629652976989746,-2.3408560752868652
1761316279025280300,5.7742802734375,0.9164794087409973,0.7370367050170898,-2.2924118041992188
1761316279044202800,5.79320263671875,0.7809015512466431,0.8639841079711914,-2.797236919403076
1761316279063125000,5.812125,1.9699597358703613,1.3006854057312012,-3.6837992668151855
1761316279082047500,5.831047607421875,2.4988045692443848,-0.1468954086303711,-3.7386703491210938
1761316279100969700,5.8499697265625,2.302302837371826,-1.5063323974609375,-3.9631972312927246
1761316279119892200,5.868892333984375,0.6410660743713379,-3.094996452331543,-3.186629295349121
1761316279138814500,5.887814453125,-0.9618275165557861,-4.943741798400879,-1.4957633018493652
1761316279157737000,5.906737060546875,-0.7939339876174927,-6.7033491134643555,0.39777231216430664
1761316279176659200,5.9256591796875,-0.33129143714904785,-6.651460647583008,1.9172601699829102
1761316279195581700,5.944581787109375,0.2304980754852295,-3.334937572479248,3.2277729511260986
1761316279214504000,5.96350390625,0.8765193223953247,-1.7529692649841309,2.6700732707977295
1761316279233426400,5.982426513671875,1.1529321670532227,-1.957115650177002,0.19530725479125977
1761316279252348700,6.0013486328125,-0.3081573247909546,-1.8200173377990723,-1.3902220726013184
1761316279271271200,6.020271240234375,-1.2760001420974731,-0.7291617393493652,-1.5386676788330078
1761316279290193400,6.039193359375,-2.135619878768921,-0.4192376136779785,0.058542728424072266
1761316279309116000,6.058115966796875,-2.6219985485076904,-0.5695905685424805,0.7969179153442383
1761316279328038100,6.0770380859375,-3.1757307052612305,-0.5480856895446777,1.259634017944336
1761316279346960600,6.095960693359375,-2.9959628582000732,-0.7945871353149414,2.1377334594726562
1761316279365883000,6.1148828125,-2.1302638053894043,-1.0239028930664062,2.1476383209228516
1761316279384805400,6.133805419921875,-2.6031413078308105,-0.7967214584350586,2.236525535583496
1761316279403727600,6.1527275390625,-2.9320685863494873,-0.2239995002746582,3.6760003566741943
1761316279422649900,6.17164990234375,-3.0712122917175293,-0.15862798690795898,5.031529426574707
1761316279441572400,6.190572265625,-3.173724412918091,0.4187746047973633,5.513180732727051
1761316279460494800,6.209494873046875,-3.1065316200256348,0.8768792152404785,5.233187675476074
1761316279479417000,6.2284169921875,-2.234816789627075,1.076737403869629,3.7848610877990723
1761316279498339600,6.247339599609375,-1.0506412982940674,1.182448387145996,2.4462080001831055
1761316279517261800,6.26626171875,-0.021978378295898438,1.3927159309387207,1.7898941040039062
1761316279536184300,6.285184326171875,0.39812469482421875,2.1280975341796875,1.4028406143188477
1761316279555106600,6.3041064453125,0.6430463790893555,2.889167308807373,0.8660669326782227
1761316279574028800,6.32302880859375,1.4522790908813477,3.2347962856292725,0.11724281311035156
1761316279592951300,6.341951416015625,2.258207321166992,2.7314205169677734,-1.2642903327941895
1761316279611873500,6.36087353515625,3.2423219680786133,1.5905237197875977,-2.9796247482299805
1761316279630796000,6.379796142578125,4.379878044128418,0.0357508659362793,-4.488834857940674
1761316279649718300,6.39871826171875,4.688461780548096,-1.211263656616211,-4.036990165710449
1761316279668640800,6.417640869140625,3.622676134109497,-0.7832760810852051,-1.7622766494750977
1761316279687563000,6.43656298828125,3.4195432662963867,1.047785758972168,0.8919425010681152
1761316279706485500,6.455485595703125,2.5265355110168457,3.190089225769043,2.7495362758636475
1761316279725407700,6.47440771484375,1.1845126152038574,2.1638646125793457,2.5130808353424072
1761316279744330200,6.493330322265625,1.011986255645752,-1.45159912109375,0.6693572998046875
1761316279763252500,6.51225244140625,3.0150792598724365,-6.866676330566406,-1.0792913436889648
1761316279782175000,6.531175048828125,0.43622660636901855,-8.689308166503906,-3.026658535003662
1761316279801097200,6.55009716796875,-4.123183250427246,-5.838479042053223,-3.508859157562256
1761316279820019700,6.569019775390625,-6.693905353546143,-2.4622206687927246,1.7274041175842285
1761316279838942000,6.58794189453125,-7.071640968322754,1.375112533569336,4.047835350036621
1761316279857864200,6.6068642578125,-6.27962589263916,0.748603343963623,2.043436050415039
1761316279876786700,6.62578662109375,-7.221675872802734,-2.332674026489258,1.1883106231689453
1761316279895709000,6.644708984375,-6.288084983825684,-4.560100555419922,-0.3988957405090332
1761316279914631400,6.66363134765625,-3.6663248538970947,-3.9577231407165527,-0.17387962341308594
1761316279933553700,6.6825537109375,0.7866711616516113,-2.7415175437927246,1.0671038627624512
1761316279952476200,6.70147607421875,0.3040041923522949,-2.3646230697631836,2.096008777618408
1761316279971398400,6.7203984375,-0.13455593585968018,-2.3483142852783203,1.962934970855713
1761316279990321000,6.73932080078125,0.5395750999450684,-1.273514747619629,1.4589004516601562
1761316280009243100,6.7582431640625,-0.3352975845336914,0.1448225975036621,0.4984307289123535
1761316280028165600,6.77716552734375,-0.9889917373657227,0.8897767066955566,-0.18192625045776367
1761316280047087900,6.796087890625,-1.4457826614379883,1.1929631233215332,-0.5947413444519043
1761316280066010400,6.81501025390625,-1.7067173719406128,1.1525764465332031,-0.1889185905456543
1761316280084932600,6.8339326171875,-1.2076454162597656,0.9476823806762695,0.2946610450744629
1761316280103855000,6.852855224609375,-0.44652804732322693,0.9145779609680176,0.6249074935913086
1761316280122777300,6.87177734375,0.2847774624824524,0.9717907905578613,0.8096394538879395
1761316280141699800,6.890699951171875,0.5502792000770569,0.9351997375488281,0.6709399223327637
1761316280160622000,6.9096220703125,0.951714038848877,1.134465217590332,0.24182748794555664
1761316280179544600,6.928544677734375,0.9656683802604675,1.3382635116577148,-0.4424762725830078
1761316280198466800,6.947466796875,0.8289238810539246,1.5249276161193848,-0.9785876274108887
1761316280217389300,6.966389404296875,1.0950703620910645,1.5797290802001953,-1.489114761352539
1761316280236311600,6.9853115234375,0.8326733708381653,1.8372817039489746,-1.792515754699707
1761316280255233800,7.00423388671875,0.43709495663642883,1.825162410736084,-2.0674057006835938
1761316280274156300,7.02315625,0.7905820608139038,1.4842028617858887,-1.9454655647277832
1761316280293078500,7.04207861328125,1.1276068687438965,1.1282801628112793,-1.9111948013305664
1761316280312001000,7.0610009765625,0.6669365167617798,0.7329936027526855,-2.5096116065979004
1761316280330923300,7.07992333984375,0.2477763593196869,0.557002067565918,-2.812671661376953
1761316280349845800,7.098845703125,0.39983582496643066,0.47098350524902344,-2.7746901512145996
1761316280368768000,7.11776806640625,1.2607604265213013,0.30738353729248047,-2.728083610534668
1761316280387690500,7.1366904296875,1.6698307991027832,-0.09154796600341797,-3.327871322631836
1761316280406612700,7.15561279296875,2.2783827781677246,0.4813861846923828,-4.120794773101807
1761316280425535200,7.17453515625,0.39927881956100464,0.5473461151123047,-4.72228479385376
1761316280444457500,7.19345751953125,0.6446177363395691,-1.6099252700805664,-5.679309368133545
1761316280463379700,7.212379638671875,1.6560401916503906,-4.465513229370117,-2.9945263862609863
1761316280482302200,7.23130224609375,1.3912575244903564,-5.482590675354004,1.147775650024414
1761316280501224400,7.250224365234375,0.1566895842552185,-5.358392715454102,2.5890586376190186
1761316280520147000,7.26914697265625,-0.7996026277542114,-4.859216213226318,2.566436290740967
1761316280539069200,7.288069091796875,-0.7974695563316345,-3.0828447341918945,2.9148659706115723
1761316280557991700,7.30699169921875,0.7240322828292847,-2.032198429107666,0.8833441734313965
1761316280576914000,7.325913818359375,0.891211986541748,-2.1902832984924316,-0.8036742210388184
1761316280595836400,7.34483642578125,-0.5162532329559326,-1.7441530227661133,-1.2579407691955566
1761316280614758700,7.363758544921875,-1.2670248746871948,-1.0308375358581543,-1.242638111114502
1761316280633681200,7.38268115234375,-2.4175825119018555,-0.8932185173034668,0.22161626815795898
1761316280652603400,7.401603271484375,-2.47530198097229,-0.2643313407897949,0.809023380279541
1761316280671526000,7.42052587890625,-2.614147663116455,-0.3004341125488281,1.8299202919006348
1761316280690448100,7.4394482421875,-2.4716811180114746,-0.2485365867614746,2.1720471382141113
1761316280709370600,7.45837060546875,-2.5776963233947754,-0.4025135040283203,2.951202630996704
1761316280728292900,7.47729296875,-2.4018094539642334,-0.06304454803466797,3.8570523262023926
1761316280747215400,7.49621533203125,-2.5732223987579346,0.22298383712768555,4.533597946166992
1761316280766137600,7.5151376953125,-2.6064674854278564,0.5297870635986328,4.642087936401367
1761316280785059800,7.534059814453125,-2.7593650817871094,0.6736211776733398,4.550546169281006
1761316280803982300,7.552982421875,-2.31422758102417,0.4495110511779785,3.784871816635132
1761316280822904600,7.571904541015625,-1.5735197067260742,0.7113261222839355,3.0222725868225098
1761316280841827000,7.5908271484375,-0.9539408683776855,1.2497224807739258,2.716043710708618
1761316280860749300,7.609749267578125,-0.6483027935028076,1.960871696472168,2.230776309967041
1761316280879671800,7.628671875,-0.1099400520324707,2.6659955978393555,1.3461499214172363
1761316280898594000,7.647593994140625,1.134429931640625,2.891275405883789,0.1964559555053711
1761316280917516500,7.6665166015625,2.6828112602233887,2.264141082763672,-1.1682491302490234
1761316280936438800,7.685438720703125,3.768465518951416,0.9140000343322754,-2.9758992195129395
1761316280955361000,7.704361083984375,4.40794563293457,-0.5124001502990723,-4.791940212249756
1761316280974283500,7.723283447265625,4.161425590515137,-1.4080290794372559,-4.465785503387451
1761316280993205800,7.742205810546875,3.655360698699951,-0.9239840507507324,-2.3734216690063477
1761316281012128300,7.761128173828125,3.1216015815734863,1.7839317321777344,0.32853078842163086
1761316281031050500,7.780050537109375,2.4440417289733887,4.879631042480469,2.4884397983551025
1761316281049973000,7.798972900390625,1.0211424827575684,4.35494327545166,2.5702619552612305
1761316281068895200,7.817895263671875,0.6643733978271484,-1.3291397094726562,0.15130329132080078
1761316281087817700,7.836817626953125,3.0577495098114014,-10.124059677124023,-3.263669013977051
1761316281106740000,7.855739990234375,2.4864847660064697,-13.706029891967773,-3.7784247398376465
1761316281125662500,7.874662353515625,-3.1894562244415283,-4.274785995483398,0.41342735290527344
1761316281144584700,7.893584716796875,-3.981052875518799,0.4449272155761719,5.097037315368652
1761316281163507000,7.9125068359375,-2.452563762664795,1.9890761375427246,7.095942497253418
1761316281182429400,7.931429443359375,-6.523079872131348,2.8722939491271973,5.135741233825684
1761316281201351700,7.9503515625,-8.808679580688477,0.24109649658203125,0.6703095436096191
1761316281220274200,7.969274169921875,-6.641749382019043,-2.737372875213623,-2.1638779640197754
1761316281239196400,7.988196533203125,-2.6719226837158203,-2.9690346717834473,-1.7708172798156738
1761316281258119000,8.007118896484375,-2.73941707611084,-2.9003067016601562,-0.429628849029541
1761316281277041200,8.026041259765625,-0.06480145454406738,-2.6272501945495605,1.7485442161560059
1761316281295963600,8.044963623046876,-0.44232749938964844,-2.101067543029785,2.4270756244659424
1761316281314886000,8.063885986328126,-0.537337064743042,-1.044238567352295,2.0574450492858887
1761316281333808400,8.082808349609374,-0.45241212844848633,-0.2580103874206543,1.1226577758789062
1761316281352730600,8.101730712890625,-0.4259437322616577,0.23562383651733398,0.40557193756103516
1761316281371652900,8.12065283203125,-0.6865469813346863,0.3941960334777832,-0.17117643356323242
1761316281390575400,8.139575439453125,-0.8957836627960205,0.5986995697021484,-0.5980587005615234
1761316281409497600,8.15849755859375,-1.1052930355072021,0.4367508888244629,-0.2742624282836914
1761316281428420000,8.177420166015626,-0.8209264278411865,0.5335512161254883,-0.25826406478881836
1761316281447342300,8.19634228515625,-0.41748136281967163,0.9252848625183105,-0.10260295867919922
1761316281466264800,8.215264892578125,0.17610126733779907,0.8792695999145508,-0.1281909942626953
1761316281485187000,8.23418701171875,0.7783787250518799,0.6837081909179688,-0.28839111328125
1761316281504109600,8.253109619140625,0.8177486658096313,0.8742175102233887,-0.2131190299987793
1761316281523031800,8.27203173828125,0.8097354769706726,1.3665814399719238,-0.15396976470947266
1761316281541954000,8.2909541015625,0.815220057964325,1.7085356712341309,-0.2599773406982422
1761316281560876500,8.30987646484375,0.6017137765884399,1.4828405380249023,-0.7290854454040527
1761316281579798800,8.328798828125,0.5473788380622864,1.1429800987243652,-1.6123600006103516
1761316281598721300,8.34772119140625,0.6666009426116943,1.0199604034423828,-2.326941967010498
1761316281617643500,8.3666435546875,1.208463430404663,1.3064398765563965,-2.7600255012512207
1761316281636566000,8.38556591796875,1.2412511110305786,1.3408913612365723,-2.64969539642334
1761316281655488300,8.40448828125,0.489597350358963,0.9086041450500488,-2.567046642303467
1761316281674410500,8.423410400390624,0.32126152515411377,0.2780628204345703,-2.0294899940490723
1761316281693333000,8.4423330078125,0.9255210161209106,-0.29002952575683594,-1.7390923500061035
1761316281712255200,8.461255126953125,1.0480244159698486,-0.2944784164428711,-2.2144594192504883
1761316281731177700,8.480177734375,1.690973162651062,-0.15183162689208984,-3.6472153663635254
1761316281750100000,8.499099853515625,1.7823009490966797,0.4963369369506836,-3.8195853233337402
1761316281769022500,8.5180224609375,2.219919443130493,0.4619588851928711,-4.150331020355225
1761316281787944700,8.53694482421875,3.2932679653167725,-0.5745096206665039,-4.387325763702393
1761316281806867000,8.555866943359375,2.249119520187378,-2.506014823913574,-2.7400732040405273
1761316281825789400,8.57478955078125,-0.8593529462814331,-4.137657165527344,-0.6757802963256836
1761316281844711700,8.593711669921875,-2.255070686340332,-4.999664306640625,0.44002294540405273
1761316281863634200,8.61263427734375,-1.756089687347412,-4.925230979919434,1.1491303443908691
1761316281882556400,8.631556396484376,0.12443387508392334,-3.348888874053955,1.6615352630615234
1761316281901479000,8.65047900390625,1.6489429473876953,-3.044741153717041,0.9874625205993652
1761316281920401200,8.669401123046875,1.0484802722930908,-2.791764259338379,-0.7076983451843262
1761316281939323600,8.68832373046875,0.03824639320373535,-1.6808991432189941,-1.3672595024108887
1761316281958246000,8.707245849609375,-2.2723097801208496,-0.2703094482421875,-1.1901569366455078
1761316281977168400,8.72616845703125,-3.531764507293701,0.4989748001098633,-0.4128990173339844
1761316281996090600,8.745090576171876,-3.8662025928497314,0.6734247207641602,0.7871460914611816
1761316282015012900,8.764012939453124,-3.5817508697509766,0.3657717704772949,2.0497069358825684
1761316282033935400,8.782935302734375,-2.5470337867736816,-0.8536052703857422,2.924785614013672
1761316282052857600,8.801857666015625,-1.7804145812988281,-1.1352105140686035,3.3214993476867676
1761316282071780000,8.820780029296875,-2.4678118228912354,-0.45604801177978516,3.3607139587402344
1761316282090702300,8.839702392578126,-3.064387321472168,0.0721287727355957,3.965334177017212
1761316282109624800,8.858624755859376,-3.397447109222412,0.5295634269714355,4.408450126647949
1761316282128547000,8.877547119140624,-3.2066428661346436,1.0163006782531738,4.727848052978516
1761316282147469300,8.89646923828125,-2.3938400745391846,0.8090977668762207,4.486824989318848
1761316282166391800,8.915391845703125,-1.621009111404419,0.7623963356018066,3.6709158420562744
1761316282185314000,8.93431396484375,-0.9871747493743896,1.0327305793762207,2.6978390216827393
1761316282204236500,8.953236572265626,-0.20276117324829102,1.4619383811950684,1.7907004356384277
1761316282223158800,8.97215869140625,0.8829860687255859,1.8337855339050293,0.7065448760986328
1761316282242081300,8.991081298828124,2.237849712371826,1.7357168197631836,-0.5133504867553711
1761316282261003500,9.01000341796875,3.3852148056030273,0.7765421867370605,-1.881910800933838
1761316282279925800,9.02892578125,4.155787467956543,-0.24964046478271484,-3.5753307342529297
1761316282298848300,9.04784814453125,3.694190502166748,-0.9317083358764648,-4.245645046234131
1761316282317770500,9.0667705078125,3.508892059326172,-0.6290245056152344,-3.461663246154785
1761316282336693000,9.08569287109375,3.0953803062438965,0.8697876930236816,-1.5033493041992188
1761316282355615200,9.104615234375,3.0286974906921387,2.426863193511963,0.8516769409179688
1761316282374537700,9.123537841796875,2.586214542388916,2.0494961738586426,1.7452282905578613
1761316282393460000,9.1424599609375,2.3879246711730957,-1.6703009605407715,-0.35138463973999023
1761316282412382200,9.16138232421875,3.0635342597961426,-7.159985542297363,-2.9352760314941406
1761316282431304700,9.1803046875,0.5643081665039062,-10.3508939743042,-3.1144094467163086
1761316282450227000,9.19922705078125,-3.887709379196167,-2.825047016143799,-1.8830852508544922
1761316282469149400,9.2181494140625,-5.274095058441162,1.903144359588623,4.574929714202881
1761316282488071700,9.23707177734375,-2.8041653633117676,2.228628158569336,7.2393341064453125
1761316282506994000,9.255993896484375,-4.855048656463623,1.3094887733459473,7.22481107711792
1761316282525916400,9.27491650390625,-7.412609100341797,-0.7601585388183594,3.3472814559936523
1761316282544838700,9.293838623046875,-4.811263084411621,-3.0965962409973145,0.9471688270568848
1761316282563761200,9.31276123046875,-2.7818217277526855,-4.034313678741455,-0.6042160987854004
1761316282582683400,9.331683349609374,-1.395641565322876,-3.2011280059814453,-0.08054780960083008
1761316282601606000,9.35060595703125,0.7907876968383789,-1.0064635276794434,0.5220236778259277
1761316282620528000,9.369528076171875,-0.8317290544509888,0.6174378395080566,-0.09352445602416992
1761316282639450600,9.38845068359375,-1.409548282623291,0.8162493705749512,-0.019344329833984375
1761316282658372900,9.407372802734375,-1.6864680051803589,0.5432796478271484,-0.3097958564758301
1761316282677295000,9.426295166015626,-1.379048228263855,0.3676276206970215,-0.0709381103515625
1761316282696217600,9.445217529296874,-0.9507179856300354,0.31442832946777344,-0.1891026496887207
1761316282715139800,9.464139892578125,-0.4004753828048706,0.3523383140563965,-0.6660652160644531
1761316282734062300,9.483062255859375,-0.1657637357711792,0.3783559799194336,-0.5564250946044922
1761316282752984600,9.501984619140625,-0.30463486909866333,0.5722255706787109,-0.16332674026489258
1761316282771906800,9.52090673828125,-0.05844759941101074,0.30495738983154297,-0.04125022888183594
1761316282790829300,9.539829345703126,0.046825528144836426,0.29850053787231445,-0.15241622924804688
1761316282809751600,9.55875146484375,-0.2337566614151001,0.5647716522216797,0.054558753967285156
1761316282828674000,9.577674072265625,-0.0961107611656189,0.5408024787902832,0.08063459396362305
1761316282847596300,9.59659619140625,0.47059839963912964,0.8873143196105957,-0.1254410743713379
1761316282866518800,9.615518798828125,0.7795844078063965,1.5711846351623535,-0.7410821914672852
1761316282885441000,9.63444091796875,1.0769647359848022,1.7836027145385742,-1.5222787857055664
1761316282904363300,9.65336328125,1.1174910068511963,1.9550442695617676,-2.441563129425049
1761316282923285800,9.67228564453125,0.8618287444114685,1.892479419708252,-2.744101047515869
1761316282942208000,9.6912080078125,1.1010093688964844,1.5343823432922363,-2.4393906593322754
1761316282961130500,9.710130615234375,1.397857904434204,1.0276947021484375,-1.9416847229003906
1761316282980052700,9.729052734375,1.3033591508865356,0.37546443939208984,-2.003754138946533
1761316282998975000,9.74797509765625,0.760248064994812,-0.32764148712158203,-2.200535297393799
1761316283017897500,9.7668974609375,0.3020762801170349,-0.8938093185424805,-2.4609971046447754
1761316283036819700,9.78581982421875,0.12966549396514893,-1.2933177947998047,-2.4331116676330566
1761316283055742200,9.8047421875,0.2628129720687866,-1.3983325958251953,-3.064023971557617
1761316283074664400,9.82366455078125,0.07437598705291748,-1.2261438369750977,-4.07118558883667
1761316283093586700,9.842586669921875,0.8780903816223145,-0.7335968017578125,-3.7003774642944336
1761316283112509200,9.86150927734375,0.9769326448440552,-1.239487648010254,-3.2979679107666016
1761316283131431400,9.880431396484376,1.1952221393585205,-1.3664484024047852,-2.187431812286377
1761316283150354000,9.89935400390625,2.3657243251800537,-1.284714698791504,-0.7186250686645508
1761316283169276200,9.918276123046875,1.9826765060424805,-1.5691537857055664,0.1688070297241211
1761316283188198700,9.93719873046875,-0.06943479180335999,-1.7777318954467773,-0.38480186462402344
1761316283207121000,9.956120849609375,-1.2725012302398682,-2.0499744415283203,0.043913841247558594
1761316283226043400,9.97504345703125,-1.6636264324188232,-2.516974449157715,0.7623372077941895
1761316283244965600,9.993965576171876,-1.1429311037063599,-2.136533260345459,1.6070199012756348
1761316283263888000,10.012887939453124,1.4168016910552979,-2.0627055168151855,1.0655245780944824
1761316283282810400,10.031810302734375,1.620377540588379,-2.3202009201049805,-0.01762676239013672
1761316283301732600,10.050732666015625,-0.5399682521820068,-1.7624578475952148,0.06905746459960938
1761316283320655000,10.069655029296875,-1.5326926708221436,-0.9564509391784668,0.5470519065856934
1761316283339577300,10.088577392578125,-2.330838918685913,-0.4939556121826172,1.1629376411437988
1761316283358499600,10.10749951171875,-2.709386110305786,-0.41261768341064453,1.8175983428955078
1761316283377422000,10.126422119140624,-1.8436988592147827,-0.6989431381225586,2.0199031829833984
1761316283396344300,10.14534423828125,-2.885180950164795,-1.0412259101867676,1.9183640480041504
1761316283415266800,10.164266845703125,-1.8517260551452637,-1.2523002624511719,2.4182639122009277
1761316283434189000,10.18318896484375,-1.7268617153167725,-0.7672953605651855,3.05598521232605
1761316283453111300,10.202111328125,-2.151278018951416,0.19780683517456055,3.047905445098877
1761316283472033800,10.22103369140625,-2.1472580432891846,0.9213542938232422,3.471810817718506
1761316283490956000,10.2399560546875,-2.359898567199707,1.3045601844787598,3.748568534851074
1761316283509878500,10.25887841796875,-2.629657745361328,0.8712186813354492,3.5058107376098633
1761316283528800800,10.27780078125,-2.234769344329834,0.7029252052307129,3.165724277496338
1761316283547723000,10.296722900390625,-1.5795893669128418,1.0245728492736816,2.856170177459717
1761316283566645500,10.3156455078125,-1.0898957252502441,1.6531000137329102,2.44754695892334
1761316283585567700,10.334567626953126,-0.3990492820739746,2.360074996948242,1.677131175994873
1761316283604490200,10.353490234375,0.5921058654785156,2.693204164505005,0.8426389694213867
1761316283623412500,10.37241259765625,1.5498085021972656,2.3330936431884766,-0.13683700561523438
1761316283642334700,10.391334716796875,2.5165796279907227,1.406517505645752,-1.6546969413757324
1761316283661257200,10.41025732421875,2.9123144149780273,0.315889835357666,-3.4055585861206055
1761316283680179500,10.429179443359375,3.820183277130127,-0.8149018287658691,-4.280750274658203
1761316283699102000,10.44810205078125,4.1596245765686035,-0.9085240364074707,-3.274561882019043
1761316283718024200,10.467024169921874,3.469972610473633,0.2545323371887207,-1.2875308990478516
1761316283736946400,10.485946533203125,2.5010271072387695,2.105848789215088,0.723538875579834
1761316283755869000,10.504868896484375,1.9371347427368164,3.7361583709716797,1.7207918167114258
1761316283774791200,10.523791259765625,1.0136399269104004,2.309265613555908,1.3997101783752441
1761316283793713700,10.542713623046875,0.8545818328857422,-1.0975632667541504,-0.2775154113769531
1761316283812636000,10.561635986328126,1.3744926452636719,-4.7133402824401855,-2.020200252532959
1761316283831558100,10.58055810546875,1.8781745433807373,-7.8334197998046875,-2.1786375045776367
1761316283850480600,10.599480712890625,-0.5442981719970703,-5.229485034942627,-0.9879927635192871
1761316283869403000,10.61840283203125,-1.7594833374023438,-1.0450468063354492,2.8553082942962646
1761316283888325000,10.6373251953125,-0.8831448554992676,-0.10669994354248047,6.542198657989502
1761316283907247600,10.65624755859375,-3.7015151977539062,0.8087601661682129,6.6204352378845215
1761316283926169900,10.675169921875,-6.858061790466309,0.10120773315429688,3.1065595149993896
1761316283945092400,10.69409228515625,-8.248801231384277,-1.7700810432434082,-1.007460594177246
1761316283964014600,10.7130146484375,-5.204004287719727,-1.4471793174743652,-2.237431526184082
1761316283982937000,10.73193701171875,-2.843571901321411,-0.3853163719177246,-0.7961711883544922
1761316284001859300,10.750859375,-1.060140609741211,-0.7362198829650879,0.439755916595459
1761316284020781600,10.769781494140625,0.9279659986495972,-2.1635284423828125,1.3080940246582031
1761316284039704000,10.7887041015625,0.4398001432418823,-2.462252616882324,1.0186738967895508
1761316284058626300,10.807626220703124,0.5395475625991821,-1.4205427169799805,0.7408466339111328
1761316284077548800,10.826548828125,-0.2537490129470825,-0.36345720291137695,0.7118306159973145
1761316284096471000,10.845470947265625,-1.057955265045166,0.37021684646606445,0.41358232498168945
1761316284115393300,10.864393310546875,-1.5467766523361206,1.05128812789917,0.47762441635131836
1761316284134315800,10.883315673828125,-1.8769969940185547,1.1192173957824707,0.2564573287963867
1761316284153238000,10.902238037109376,-1.3378944396972656,0.6661167144775391,-0.18665790557861328
1761316284172160500,10.921160400390624,-0.43446245789527893,0.1692337989807129,-0.5196652412414551
1761316284191082800,10.940082763671874,0.18733984231948853,0.16352128982543945,-0.5584812164306641
1761316284210005000,10.9590048828125,1.035394310951233,0.3978271484375,-0.41040468215942383
1761316284228927500,10.977927490234375,1.3951822519302368,0.586857795715332,-0.16761112213134766
1761316284247849700,10.996849609375,1.160120964050293,0.9983625411987305,-0.1995863914489746
1761316284266772000,11.01577197265625,1.085424780845642,1.4617385864257812,-0.27820253372192383
1761316284285694500,11.034694580078124,0.940575361251831,1.7917208671569824,-0.4073042869567871
1761316284304616700,11.05361669921875,0.8726667761802673,1.6514534950256348,-0.9841461181640625
1761316284323539200,11.072539306640625,0.7056112289428711,1.5190563201904297,-1.6602940559387207
1761316284342461400,11.09146142578125,0.4942845404148102,1.4465694427490234,-1.8805408477783203
1761316284361383700,11.1103837890625,0.47370246052742004,1.2677817344665527,-1.5217666625976562
1761316284380306200,11.12930615234375,0.5581717491149902,1.0253171920776367,-1.2922391891479492
1761316284399228400,11.148228515625,0.5542042851448059,0.8623995780944824,-1.5184006690979004
1761316284418150700,11.167150634765624,0.34380286931991577,0.6691913604736328,-1.8019394874572754
1761316284437073200,11.1860732421875,0.14096486568450928,0.26988697052001953,-1.9009490013122559
1761316284455995400,11.204995361328125,0.3375380039215088,-0.5228586196899414,-2.549196243286133
1761316284474918000,11.22391796875,0.8069682121276855,-0.8983497619628906,-3.4693007469177246
1761316284493840100,11.242840087890626,1.6957390308380127,-0.912877082824707,-3.3805861473083496
1761316284512762400,11.261762451171874,0.9888339638710022,-1.6444807052612305,-3.4508657455444336
1761316284531684900,11.280684814453124,1.310605764389038,-2.933743476867676,-3.553050994873047
1761316284550607000,11.299607177734375,2.146536111831665,-3.590121269226074,-2.2508506774902344
1761316284569529600,11.318529541015625,2.8651745319366455,-3.4693965911865234,0.6647224426269531
1761316284588451800,11.337451904296875,1.563642978668213,-3.1915664672851562,2.077415704727173
1761316284607374000,11.3563740234375,-0.10432213544845581,-2.1758575439453125,2.2550621032714844
1761316284626296600,11.375296630859374,-1.3705090284347534,-1.862532615661621,1.492006778717041
1761316284645218800,11.39421875,-0.6197171211242676,-1.3485674858093262,0.5719156265258789
1761316284664141000,11.41314111328125,-0.2397603988647461,-0.41704797744750977,-0.13403701782226562
1761316284683063600,11.4320634765625,-0.030702829360961914,-0.7399630546569824,-0.8274493217468262
1761316284701985800,11.45098583984375,-0.700415849685669,-1.4963693618774414,-0.4488563537597656
1761316284720908300,11.469908203125,-1.3068435192108154,-1.3764700889587402,-0.1734757423400879
1761316284739830500,11.48883056640625,-1.827714443206787,-0.9465394020080566,1.0165820121765137
1761316284758753000,11.5077529296875,-1.8647116422653198,-0.7260360717773438,1.5304055213928223
1761316284777675300,11.52667529296875,-1.9654228687286377,-0.5757980346679688,1.9545364379882812
1761316284796597500,11.545597412109375,-1.530307412147522,-0.7025923728942871,1.9786782264709473
1761316284815520000,11.56452001953125,-1.3981218338012695,-0.7190136909484863,2.1277976036071777
1761316284834442200,11.583442138671876,-1.1048252582550049,-0.3767728805541992,2.0117239952087402
1761316284853364500,11.602364501953126,-1.8024790287017822,0.11824512481689453,2.5128045082092285
1761316284872287000,11.621286865234374,-2.2081241607666016,0.544074535369873,2.8387036323547363
1761316284891209200,11.640209228515625,-2.458153009414673,0.8843975067138672,3.147810459136963
1761316284910131700,11.659131591796875,-2.3641138076782227,1.1696381568908691,3.2891812324523926
1761316284929054000,11.678053955078125,-1.9683723449707031,1.2257895469665527,3.069547176361084
1761316284947976200,11.69697607421875,-1.351656436920166,1.2514548301696777,2.6680679321289062
1761316284966898700,11.715898681640626,-1.0912163257598877,1.5799713134765625,2.295827627182007
1761316284985821000,11.734821044921874,-0.6114749908447266,2.021937370300293,1.8411531448364258
1761316285004743200,11.7537431640625,0.2022390365600586,2.12324857711792,1.189488410949707
1761316285023665700,11.772665771484375,1.8372933864593506,1.7926654815673828,-0.08008241653442383
1761316285042588000,11.791587890625,3.2549562454223633,1.309737205505371,-2.0762290954589844
1761316285061510400,11.810510498046876,4.226083755493164,0.8253021240234375,-3.923455238342285
1761316285080432600,11.8294326171875,4.484946250915527,0.11675453186035156,-4.83036994934082
1761316285099355000,11.84835498046875,3.884551525115967,-0.4176921844482422,-3.7258639335632324
1761316285118277400,11.86727734375,3.334442615509033,0.21036291122436523,-1.1572656631469727
1761316285137199600,11.88619970703125,2.9225170612335205,1.4520535469055176,0.6257662773132324
1761316285156121900,11.905121826171875,1.9862732887268066,0.5246524810791016,1.083536148071289
1761316285175044400,11.92404443359375,3.1054913997650146,-2.867711067199707,-1.8931536674499512
1761316285193966600,11.942966552734376,2.386300802230835,-8.557270050048828,-3.899496555328369
1761316285212888800,11.961888916015624,0.1867361068725586,-8.461929321289062,-2.2118916511535645
1761316285231811300,11.980811279296875,-2.4870190620422363,-1.1506500244140625,0.4181180000305176
1761316285250733600,11.999733642578125,-3.9956302642822266,3.9436192512512207,5.1568708419799805
1761316285269656000,12.018656005859375,-3.5768518447875977,4.242853164672852,7.181033134460449
1761316285288578300,12.037578369140626,-3.7806551456451416,1.8874783515930176,5.460598945617676
1761316285307500500,12.05650048828125,-5.113605976104736,-2.019253730773926,2.6641159057617188
1761316285326423000,12.075423095703124,-5.312999725341797,-4.5588154792785645,-0.32291412353515625
1761316285345345300,12.09434521484375,-2.288078784942627,-3.446122169494629,-0.3817281723022461
1761316285364267500,12.113267578125,-2.1785218715667725,-1.0751442909240723,-0.24641180038452148
1761316285383190000,12.13218994140625,-1.7445127964019775,0.1719961166381836,-0.6723289489746094
1761316285402112300,12.1511123046875,-0.6658447980880737,-0.09628152847290039,-0.5644741058349609
1761316285421034500,12.170034423828126,-0.30504560470581055,-0.5067167282104492,0.1060781478881836
1761316285439957000,12.18895703125,-0.5506107807159424,-0.34307098388671875,0.42815256118774414
1761316285458879200,12.207879150390625,-1.0324795246124268,-0.1123056411743164,0.4326019287109375
1761316285477801700,12.2268017578125,-1.3668662309646606,0.18468093872070312,0.678192138671875
1761316285496724000,12.245723876953125,-0.9320484399795532,0.500575065612793,0.5296669006347656
1761316285515646200,12.264646240234375,-0.7598435282707214,0.4440274238586426,0.7404232025146484
1761316285534568700,12.283568603515626,-0.32531362771987915,0.1285257339477539,0.6658668518066406
1761316285553491000,12.302490966796874,-0.04239374399185181,0.03849029541015625,0.3215041160583496
1761316285572413400,12.321413330078125,0.03177100419998169,0.059803009033203125,0.017104625701904297
1761316285591335700,12.340335693359375,0.11285901069641113,0.17636919021606445,-0.6784319877624512
1761316285610258000,12.3592578125,0.14760732650756836,0.5570106506347656,-0.8992977142333984
1761316285629180400,12.378180419921875,0.1117774248123169,0.976442813873291,-0.6936097145080566
1761316285648102700,12.3971025390625,0.30338555574417114,1.3084793090820312,-0.41019535064697266
1761316285667025000,12.41602490234375,0.35275354981422424,1.131627082824707,-0.6014509201049805
1761316285685947400,12.434947509765625,0.40439701080322266,1.106431484222412,-0.7282257080078125
1761316285704869600,12.45386962890625,0.49932563304901123,1.0531387329101562,-0.6276116371154785
1761316285723792000,12.4727919921875,0.8620204925537109,0.8829426765441895,-0.6770691871643066
1761316285742714400,12.49171435546875,1.1048531532287598,0.8620748519897461,-1.101975917816162
1761316285761636600,12.51063671875,1.0203323364257812,0.8376927375793457,-1.2180790901184082
1761316285780559000,12.52955908203125,1.00357985496521,0.8207812309265137,-1.1055455207824707
1761316285799481300,12.5484814453125,0.9325250387191772,0.7502832412719727,-1.339402675628662
1761316285818403600,12.567403564453125,0.6745549440383911,0.6462736129760742,-1.8974518775939941
1761316285837326000,12.586326171875,0.2823725938796997,0.4670066833496094,-2.2132773399353027
1761316285856248300,12.605248291015625,0.2354414016008377,0.5104999542236328,-2.242750644683838
1761316285875170600,12.624170654296876,0.26044461131095886,0.6145296096801758,-2.4482293128967285
1761316285894093000,12.643093017578124,0.8611841201782227,0.6215686798095703,-3.675380229949951
1761316285913015300,12.662015380859375,1.012412190437317,0.6867594718933105,-4.566967487335205
1761316285931937500,12.6809375,0.027821436524391174,0.6179232597351074,-4.6698317527771
1761316285950860000,12.699860107421875,0.021915197372436523,-0.3333730697631836,-4.7646379470825195
1761316285969782300,12.7187822265625,0.715679943561554,-1.9436769485473633,-3.557159423828125
1761316285988704500,12.73770458984375,1.1971632242202759,-3.7642650604248047,-1.4321107864379883
1761316286007627000,12.756626953125,1.9617812633514404,-4.634219169616699,1.9059796333312988
1761316286026549200,12.77554931640625,0.8280646800994873,-4.212057113647461,3.776273250579834
1761316286045471500,12.794471435546875,-1.4244781732559204,-3.127476692199707,3.5221898555755615
1761316286064394000,12.81339404296875,-1.812995433807373,-2.184584617614746,3.0582637786865234
1761316286083316200,12.832316162109375,-1.5293920040130615,-1.8187294006347656,1.3907060623168945
1761316286102238700,12.85123876953125,-1.3487868309020996,-1.1040759086608887,0.6903562545776367
1761316286121161000,12.870160888671874,-0.8785561323165894,-0.8847346305847168,-1.2556300163269043
1761316286140083200,12.889083251953124,-0.42551541328430176,-1.348273754119873,-0.9491157531738281
1761316286159005700,12.908005615234375,-0.9886683225631714,-1.555213451385498,0.4462885856628418
1761316286177928000,12.926927978515625,-1.7606431245803833,-1.464200496673584,1.6627941131591797
1761316286196850200,12.94585009765625,-2.363980293273926,-1.0800108909606934,2.4084792137145996
1761316286215772700,12.964772705078126,-2.6023778915405273,-0.36678266525268555,2.391129493713379
1761316286234695000,12.98369482421875,-2.6135237216949463,-0.10623693466186523,2.024775505065918
1761316286253617200,13.0026171875,-2.1584672927856445,-0.1490793228149414,2.257401466369629
1761316286272539600,13.02153955078125,-1.5094060897827148,0.03426980972290039,2.792374610900879
1761316286291462000,13.0404619140625,-1.3014163970947266,0.15008211135864258,3.1195785999298096
1761316286310384000,13.059384033203125,-1.2669596672058105,-0.06336832046508789,2.888457775115967
1761316286329306600,13.078306640625,-1.3737592697143555,-0.1838383674621582,2.342702627182007
1761316286348228900,13.097228759765626,-1.0816586017608643,-0.24292325973510742,2.051912784576416
1761316286367151400,13.1161513671875,-0.4844341278076172,-0.10374069213867188,1.6217007637023926
1761316286386073600,13.135073486328125,0.18872451782226562,-0.17019271850585938,0.84429931640625
1761316286404995800,13.153995849609375,0.6906640529632568,0.12016868591308594,0.12724637985229492
1761316286423918300,13.17291845703125,1.1694514751434326,0.6734194755554199,-0.6295909881591797
1761316286442840600,13.191840576171876,1.237260341644287,1.018692970275879,-1.1558656692504883
1761316286461762800,13.2107626953125,1.3885157108306885,1.3105087280273438,-0.9875569343566895
1761316286480685300,13.229685302734374,0.6998515129089355,1.508763313293457,-1.005361557006836
1761316286499607600,13.248607666015625,0.6920623779296875,1.637040615081787,-1.076054573059082
1761316286518529800,13.26752978515625,0.6157846450805664,1.3940796852111816,-0.908200740814209
1761316286537452300,13.286452392578125,0.9045360088348389,1.0839548110961914,-0.1270747184753418
1761316286556374500,13.30537451171875,0.8756372928619385,1.0535426139831543,0.7008390426635742
1761316286575296800,13.324296875,0.24544858932495117,1.2617096900939941,1.312267780303955
1761316286594219300,13.34321923828125,-0.09765410423278809,0.9334197044372559,1.607706069946289
1761316286613141500,13.3621416015625,0.18027544021606445,-0.9339542388916016,1.180295467376709
1761316286632063700,13.381063720703125,0.6456222534179688,-4.7739577293396,-0.8420181274414062
1761316286650986200,13.399986328125,2.539534091949463,-5.553345680236816,-1.3404808044433594
1761316286669908500,13.418908447265625,1.8752148151397705,-3.744142532348633,-2.670520305633545
1761316286688830700,13.437830810546876,-2.473446846008301,-1.1690711975097656,-2.2276883125305176
1761316286707753200,13.456753173828124,-4.173381805419922,0.8909316062927246,0.6147103309631348
1761316286736136700,13.48513671875,-4.195077896118164,0.8933820724487305,3.559255838394165
1761316286755059000,13.504058837890625,-3.714940071105957,0.3392143249511719,1.6418733596801758
1761316286773981400,13.5229814453125,-1.8291372060775757,-1.3129267692565918,-0.8530721664428711
1761316286792903700,13.541903564453126,-0.8607962131500244,-1.7984399795532227,-0.8733258247375488
1761316286811826000,13.560825927734374,-0.08868193626403809,-1.4698820114135742,-0.29297494888305664
1761316286830748400,13.57974853515625,-0.5938129425048828,-1.158930778503418,0.5711798667907715
1761316286849670700,13.598670654296875,-1.594403624534607,-0.6515645980834961,0.6247172355651855
1761316286868593000,13.617593017578125,-1.7450554370880127,-0.02536916732788086,-0.0004363059997558594
1761316286887515400,13.636515380859375,-1.8737915754318237,0.4223971366882324,-0.47000598907470703
1761316286906437600,13.655437744140626,-1.398108959197998,0.5058035850524902,-0.6302623748779297
1761316286925359900,13.67435986328125,-0.664198637008667,-0.22519493103027344,-0.23780012130737305
1761316286944282400,13.693282470703124,-0.5194902420043945,-1.1791677474975586,0.5544509887695312
1761316286963204600,13.71220458984375,-0.6434965133666992,-1.2960991859436035,0.7661728858947754
1761316286982126800,13.731126953125,-0.5570533275604248,-1.123075008392334,0.8483471870422363
1761316287001049300,13.75004931640625,-0.5429072380065918,-0.8046040534973145,0.21012353897094727
1761316287019971600,13.7689716796875,-0.2132272720336914,-0.3431859016418457,-0.18448495864868164
1761316287038893800,13.787893798828126,-0.29243898391723633,-0.05366325378417969,-0.3113555908203125
1761316287057816300,13.80681640625,-0.2704346179962158,-0.27600955963134766,-0.36780738830566406
1761316287076738600,13.825738525390625,-0.2469468116760254,-0.44916439056396484,-0.0896759033203125
1761316287095660800,13.844660888671875,-0.2469618320465088,-0.28728771209716797,0.1470341682434082
1761316287114583300,13.863583251953125,-0.2743663787841797,-0.22830820083618164,0.307706356048584
1761316287133505500,13.882505615234376,-0.14964818954467773,-0.36400890350341797,0.37602901458740234
1761316287152427800,13.901427734375,-0.03448486328125,-0.4236869812011719,0.41730546951293945
1761316287171350300,13.920350341796874,0.18064069747924805,-0.38693809509277344,0.3340024948120117
1761316287190272500,13.9392724609375,-0.018329143524169922,-0.21559667587280273,0.03414201736450195
1761316287209194800,13.95819482421875,-0.17029023170471191,-0.1494460105895996,-0.03053903579711914
1761316287228117200,13.9771171875,-0.22561168670654297,-0.15953540802001953,-0.026144027709960938
1761316287247039500,13.99603955078125,-0.10742044448852539,-0.003612995147705078,-0.07439804077148438
1761316287265962000,14.0149619140625,-0.04713129997253418,0.03831768035888672,0.004044532775878906
1761316287284884200,14.03388427734375,0.046217918395996094,-0.07956790924072266,0.03156089782714844
1761316287303806500,14.052806396484375,0.02034926414489746,-0.11821460723876953,-0.0433812141418457
1761316287322729000,14.07172900390625,-0.07463455200195312,-0.0958566665649414,0.006752967834472656
1761316287341651200,14.090651123046875,0.06992363929748535,-0.06373453140258789,0.11956214904785156
1761316287360573400,14.109573486328125,0.07660531997680664,-0.11002016067504883,0.09103107452392578
1761316287379496000,14.128495849609376,0.09086823463439941,-0.1412487030029297,0.08446788787841797
1761316287398418200,14.147418212890624,0.02870011329650879,-0.08125829696655273,0.0777440071105957
1761316287417340400,14.16634033203125,-0.017879724502563477,-0.007295131683349609,0.08281326293945312
1761316287436263000,14.185262939453125,0.05547189712524414,-0.03421306610107422,0.15190649032592773
1761316287455185200,14.20418505859375,0.08874988555908203,0.006413936614990234,0.12310457229614258
1761316287474107400,14.223107421875,-0.061788320541381836,0.0033693313598632812,0.1649308204650879
1761316287493030000,14.24202978515625,0.1344468593597412,-0.012968063354492188,0.11885499954223633
1761316287511952100,14.2609521484375,0.00012087821960449219,-0.03219413757324219,0.10013151168823242
1761316287530874600,14.27987451171875,0.27878689765930176,-0.022459030151367188,0.2424159049987793
1761316287549796900,14.298796875,0.44844770431518555,0.036310672760009766,0.06915855407714844
1761316287568719000,14.317718994140625,0.2140045166015625,0.15291404724121094,0.08227729797363281
