time,seconds_elapsed,z,y,x
1761316273499949300,0.24894921875,0.023823043331503868,0.021990500390529633,0.01710372418165207
1761316273518871800,0.267871826171875,0.024433890357613564,0.021379653364419937,0.023212196305394173
1761316273537794000,0.2867939453125,0.01832541823387146,0.01954711228609085,0.021990500390529633
1761316273556716500,0.305716552734375,0.011606098152697086,0.025655584409832954,0.022601349279284477
1761316273575638800,0.324638671875,0.011606098152697086,0.031153209507465363,0.024433890357613564
1761316273594561300,0.343561279296875,0.010995250195264816,0.03542914241552353,0.024433890357613564
1761316273613483500,0.3624833984375,0.008551862090826035,0.0390942245721817,0.022601349279284477
1761316273632406000,0.381406005859375,0.013438640162348747,0.04214845970273018,0.01710372418165207
1761316273651328300,0.400328369140625,0.01588202826678753,0.038483377546072006,0.008551862090826035
1761316273670250800,0.419250732421875,0.016492875292897224,0.0390942245721817,0.011606098152697086
1761316273689173000,0.438173095703125,0.01710372418165207,0.04703523963689804,0.01832541823387146
1761316273708095500,0.457095458984375,0.01954711228609085,0.051922015845775604,0.018936265259981155
1761316273727017700,0.476017822265625,0.020157959312200546,0.04581354558467865,0.011606098152697086
1761316273745940200,0.494940185546875,0.01588202826678753,0.04092676565051079,0.030542362481355667
1761316273764862500,0.513862548828125,0.004275931045413017,0.04581354558467865,0.014660334214568138
1761316273783785000,0.532784912109375,0.0006108472589403391,0.045202698558568954,0.004275931045413017
1761316273802707200,0.551707275390625,0.009773556143045425,0.04092676565051079,0.01588202826678753
1761316273821629700,0.570629638671875,0.009773556143045425,0.05008947476744652,0.02748812735080719
1761316273840552200,0.58955224609375,0.011606098152697086,0.05497625470161438,0.046424392610788345
1761316273859474400,0.608474365234375,0.006719320081174374,0.06291726976633072,0.054365407675504684
1761316273878396700,0.627396728515625,-0.01038440316915512,0.0647498071193695,0.04459185153245926
1761316273897319200,0.646319091796875,-0.028098974376916885,0.07207997888326645,0.05619794875383377
1761316273916241400,0.665241455078125,-0.02870982140302658,0.08918370306491852,0.0659715011715889
1761316273935164000,0.684163818359375,-0.02993151545524597,0.11117420345544815,0.07024743407964706
1761316273954086100,0.703086181640625,-0.030542362481355667,0.10995250940322876,0.07391251623630524
1761316273973008600,0.722008544921875,-0.016492875292897224,0.11361759155988693,0.08002099394798279
1761316273991931000,0.740930908203125,-0.01038440316915512,0.11300674080848694,0.08246438205242157
1761316274010853400,0.759853271484375,-0.00916270911693573,0.10873081535100937,0.09345962852239609
1761316274029775600,0.778775634765625,-0.011606098152697086,0.12216944992542267,0.08918370306491852
1761316274048698000,0.797697998046875,0.022601349279284477,0.1575985997915268,0.07085828483104706
1761316274067620400,0.816620361328125,0.038483377546072006,0.12155860662460327,0.017714571207761765
1761316274086542800,0.83554296875,-0.02993151545524597,0.12644538283348083,0.09345962852239609
1761316274105465000,0.854465087890625,-0.025655584409832954,0.12583453953266144,0.11117420345544815
1761316274124387600,0.8733876953125,-0.015271181240677834,0.11056335270404816,0.06963659077882767
1761316274143309800,0.892309814453125,-0.007330167107284069,0.08246438205242157,0.0525328628718853
1761316274162232300,0.911232421875,0.0030542362947016954,0.07207997888326645,0.0397050715982914
1761316274181154600,0.930154541015625,0.01588202826678753,0.0781884491443634,0.03542914241552353
1761316274200077000,0.9490771484375,0.017714571207761765,0.0787992998957634,0.043981000781059265
1761316274218999300,0.967999267578125,0.01710372418165207,0.07452336698770523,0.05375456064939499
1761316274237921800,0.986921875,0,0.030542362481355667,0.10384403169155121
1761316274256844000,1.005843994140625,-0.08796200156211853,-0.06841489672660828,0.18019993603229523
1761316274275766500,1.0247666015625,-0.17714570462703705,-0.11545012891292572,0.26632940769195557
1761316274294688800,1.043688720703125,0.10750912129878998,0.037261683493852615,0.09590301662683487
1761316274313611300,1.062611328125,0.09407047927379608,0.13621893525123596,-0.0910162404179573
1761316274332533500,1.081533447265625,0.07757759839296341,0.042759306728839874,-0.10078980028629303
1761316274351456000,1.1004560546875,0.06413896381855011,-0.1056765764951706,0.042759306728839874
1761316274370378200,1.119378173828125,0.08368607610464096,-0.09040539711713791,0.13805148005485535
1761316274389300700,1.13830078125,0.0922379344701767,-0.04214845970273018,0.1050657257437706
1761316274408223000,1.157222900390625,0.08735115826129913,0.05986303091049194,0.0916270911693573
1761316274427145500,1.1761455078125,0.15393351018428802,0.17409147322177887,0.04337015375494957
1761316274446067700,1.195067626953125,0.18630841374397278,0.22784602642059326,0.08857285231351852
1761316274464990200,1.213990234375,0.129499614238739,0.2651077210903168,0.10323318839073181
1761316274483912400,1.232912353515625,0.045202698558568954,0.237008735537529,0.13621893525123596
1761316274502835000,1.2518349609375,-0.0018325417768210173,0.25777754187583923,0.24250635504722595
1761316274521757200,1.270757080078125,-0.030542362481355667,0.3005368411540985,0.2229592502117157
1761316274540679700,1.2896796875,-0.04337015375494957,0.3286358118057251,0.15454435348510742
1761316274559602000,1.308601806640625,0.018936265259981155,0.29687178134918213,0.04947862774133682
1761316274578524400,1.3275244140625,0.053143709897994995,0.23090025782585144,0.03787253051996231
1761316274597446700,1.34644677734375,0.029320668429136276,0.1716480851173401,0.0787992998957634
1761316274616369200,1.365369140625,-0.010995250195264816,0.22967857122421265,0.13744063675403595
1761316274635291400,1.38429150390625,-0.10384403169155121,0.1954711228609085,0.11117420345544815
1761316274654214000,1.4032138671875,-0.16248537600040436,0.15087927877902985,0.1313321590423584
1761316274673136000,1.42213623046875,-0.025655584409832954,0.14171656966209412,0.06413896381855011
1761316274692058600,1.44105859375,0.03665083646774292,-0.042759306728839874,-0.02748812735080719
1761316274710980900,1.45998095703125,0.06780404597520828,0.005497625097632408,0.08124268800020218
1761316274729903400,1.4789033203125,0.062306419014930725,0.033596597611904144,0.11178504675626755
1761316274748825600,1.49782568359375,0.06169557198882103,0.11056335270404816,0.12400199472904205
1761316274767748000,1.516748046875,0.04153761267662048,0.12339114397764206,0.12461283802986145
1761316274786670300,1.53567041015625,0.04459185153245926,0.08124268800020218,0.08063183724880219
1761316274805592800,1.5545927734375,0.04703523963689804,0.029320668429136276,0.025655584409832954
1761316274824515000,1.57351513671875,0.03787253051996231,0.00916270911693573,0.012216945178806782
1761316274843437600,1.5924375,0.02993151545524597,-0.01038440316915512,0.016492875292897224
1761316274862359800,1.61135986328125,0.02626643143594265,-0.014660334214568138,0.006719320081174374
1761316274881282000,1.630281982421875,0.030542362481355667,-0.007941014133393764,0.00916270911693573
1761316274900204500,1.64920458984375,0.026877280324697495,-0.0006108472589403391,0.021990500390529633
1761316274919126800,1.668126708984375,0.02748812735080719,-0.021379653364419937,0.0012216945178806782
1761316274938049300,1.68704931640625,0.03420744836330414,-0.03237490355968475,-0.02076880633831024
1761316274956971800,1.7059716796875,0.0390942245721817,-0.04459185153245926,-0.037261683493852615
1761316274975894000,1.72489404296875,0.01832541823387146,-0.033596597611904144,-0.03787253051996231
1761316274994816500,1.74381640625,0.007941014133393764,-0.023212196305394173,-0.018936265259981155
1761316275013738800,1.76273876953125,0.011606098152697086,-0.015271181240677834,-0.018936265259981155
1761316275032661200,1.7816611328125,0.010995250195264816,-0.02076880633831024,-0.016492875292897224
1761316275051583500,1.80058349609375,0.014660334214568138,0.10873081535100937,0.012216945178806782
1761316275070505700,1.819505615234375,0.01954711228609085,-0.021990500390529633,-0.03665083646774292
1761316275089428200,1.83842822265625,0.007941014133393764,-0.05803048983216286,-0.08307522535324097
1761316275108350500,1.8573505859375,0.004886778071522713,-0.08796200156211853,-0.08551861345767975
1761316275127273000,1.87627294921875,-0.009773556143045425,-0.06841489672660828,-0.05131116881966591
1761316275146195200,1.8951953125,0.0018325417768210173,-0.0006108472589403391,-0.012827792204916477
1761316275165117700,1.91411767578125,0.006719320081174374,0.007941014133393764,-0.08063183724880219
1761316275184040000,1.9330400390625,0.012827792204916477,0.009773556143045425,-0.09345962852239609
1761316275202962400,1.95196240234375,0.023212196305394173,-0.007330167107284069,-0.10201149433851242
1761316275221884700,1.970884765625,0.012827792204916477,-0.022601349279284477,-0.13805148005485535
1761316275240807200,1.98980712890625,-0.030542362481355667,-0.07269082218408585,-0.18753011524677277
1761316275259729400,2.0087294921875,-0.06963659077882767,-0.11300674080848694,-0.22540263831615448
1761316275278652000,2.02765185546875,-0.06841489672660828,-0.13866232335567474,-0.2480039894580841
1761316275297574100,2.04657421875,-0.0787992998957634,-0.17225892841815948,-0.28037887811660767
1761316275316496600,2.06549658203125,-0.12705622613430023,-0.20035789906978607,-0.312142938375473
1761316275335419000,2.0844189453125,-0.07024743407964706,-0.20035789906978607,-0.3304683566093445
1761316275354341400,2.10334130859375,-0.008551862090826035,-0.23028941452503204,-0.3029802441596985
1761316275373263600,2.122263671875,-0.005497625097632408,-0.2632751762866974,-0.27060532569885254
1761316275392186000,2.14118603515625,-0.07696675509214401,-0.25777754187583923,-0.261442631483078
1761316275411108400,2.1601083984375,-0.1429382562637329,-0.3243598937988281,-0.2718270421028137
1761316275430030800,2.17903076171875,-0.19241689145565033,-0.28160059452056885,-0.3506263196468353
1761316275448953000,2.197953125,-0.2651077210903168,-0.36162158846855164,-0.4367557764053345
1761316275467875600,2.21687548828125,-0.314586341381073,-0.5094466209411621,-0.5375455617904663
1761316275486797800,2.2357978515625,-0.18081079423427582,-0.573585569858551,-0.6096255779266357
1761316275505720300,2.25472021484375,-0.06658235192298889,-0.47951510548591614,-0.554649293422699
1761316275524642600,2.273642578125,-0.047646086663007736,-0.3029802441596985,-0.4062134325504303
1761316275543565000,2.29256494140625,-0.05986303091049194,-0.09895725548267365,-0.2730487287044525
1761316275562487300,2.3114873046875,-0.021990500390529633,-0.09590301662683487,-0.24433889985084534
1761316275581409800,2.330409912109375,0.03237490355968475,-0.05925218388438225,-0.33352261781692505
1761316275600332000,2.34933203125,0.017714571207761765,-0.1319430023431778,-0.36101073026657104
1761316275619254500,2.368254638671875,0.04886778071522713,-0.0653606578707695,-0.3549022674560547
1761316275638176800,2.3871767578125,0.10750912129878998,0.00916270911693573,-0.4062134325504303
1761316275657099300,2.406099365234375,0.1453816443681717,0.0397050715982914,-0.41476529836654663
1761316275676021500,2.425021484375,0.11483928561210632,0.1557660549879074,-0.3665083646774292
1761316275694944000,2.443944091796875,0.05497625470161438,0.26694026589393616,-0.31886225938796997
1761316275713866200,2.4628662109375,-0.016492875292897224,0.29442837834358215,-0.3243598937988281
1761316275732788700,2.481788818359375,-0.008551862090826035,0.25533416867256165,-0.28160059452056885
1761316275751711000,2.5007109375,-0.04153761267662048,0.4037700295448303,-0.14721418917179108
1761316275770633500,2.519633544921875,-0.09040539711713791,0.48806697130203247,-0.061084724962711334
1761316275789555700,2.5385556640625,-0.08918370306491852,0.41048935055732727,-0.09284878522157669
1761316275808478200,2.557478271484375,-0.08796200156211853,0.3555130958557129,-0.1692046970129013
1761316275827400400,2.576400390625,-0.07513421028852463,0.24494975805282593,-0.24372805655002594
1761316275846323000,2.595322998046875,-0.08063183724880219,0.18081079423427582,-0.3005368411540985
1761316275865245200,2.6142451171875,-0.11972606182098389,0.11117420345544815,-0.3408527672290802
1761316275884167700,2.633167724609375,-0.14965757727622986,0.008551862090826035,-0.3793361485004425
1761316275903090000,2.65208984375,-0.129499614238739,-0.05803048983216286,-0.42453885078430176
1761316275922012400,2.671012451171875,-0.09651386737823486,-0.10689827054738998,-0.4715740978717804
1761316275940934700,2.6899345703125,-0.10140064358711243,-0.1056765764951706,-0.5112791657447815
1761316275959857000,2.70885693359375,-0.12339114397764206,-0.0916270911693573,-0.5320479869842529
1761316275978779400,2.727779296875,-0.19180603325366974,0.007330167107284069,-0.5509842038154602
1761316275997701600,2.74670166015625,-0.2864873707294464,0.07085828483104706,-0.577861487865448
1761316276016624000,2.7656240234375,-0.35856732726097107,-0.007941014133393764,-0.6352811455726624
1761316276035546400,2.78454638671875,-0.4202629029750824,0.036039989441633224,-0.660936713218689
1761316276054468900,2.80346875,-0.4599680006504059,0.006719320081174374,-0.6444438695907593
1761316276073391400,2.822391357421875,-0.5008947253227234,0.029320668429136276,-0.6273401379585266
1761316276092313600,2.841313720703125,-0.4605788290500641,0.14843589067459106,-0.5424323678016663
1761316276111236000,2.860236083984375,-0.418430358171463,0.22967857122421265,-0.4043808877468109
1761316276130158300,2.879158447265625,-0.43614494800567627,0.15149012207984924,-0.30786702036857605
1761316276149080800,2.898080810546875,-0.288930743932724,0.1319430023431778,-0.20585553348064423
1761316276168003000,2.917003173828125,-0.15943112969398499,0.27060532569885254,-0.06841489672660828
1761316276186925600,2.935925537109375,-0.13744063675403595,0.5118899941444397,0.12033691257238388
1761316276205847800,2.954847900390625,-0.16248537600040436,0.679872989654541,0.25655585527420044
1761316276224770300,2.973770263671875,-0.17409147322177887,0.7018635272979736,0.2724378705024719
1761316276243692500,2.992692626953125,-0.1563768982887268,0.605960488319397,0.2779355049133301
1761316276262614800,3.01161474609375,-0.08185353130102158,0.5088357925415039,0.3530697226524353
1761316276281537300,3.030537353515625,0.14171656966209412,0.4581354558467865,0.3897205591201782
1761316276300459500,3.04945947265625,0.4563029110431671,0.24250635504722595,0.46485477685928345
1761316276319382000,3.068382080078125,0.7281299233436584,-0.17470231652259827,0.6682668924331665
1761316276338304300,3.08730419921875,0.7977665066719055,-0.48806697130203247,0.7837170362472534
1761316276357226800,3.106226806640625,0.833195686340332,-0.578472375869751,1.0622633695602417
1761316276376149000,3.12514892578125,0.8680139780044556,-0.6768187880516052,1.4490060806274414
1761316276395071500,3.144071533203125,0.8350282311439514,-0.684148907661438,1.926688551902771
1761316276413993700,3.16299365234375,0.7782194018363953,-0.3439069986343384,2.4556822776794434
1761316276432916200,3.181916259765625,0.7806627750396729,0.0653606578707695,2.5595264434814453
1761316276451838500,3.20083837890625,0.9046648144721985,0.35856732726097107,2.19179630279541
1761316276470761000,3.219760986328125,0.9541434049606323,0.16004198789596558,1.7629815340042114
1761316276489683200,3.23868310546875,0.9486457705497742,-0.2113531529903412,1.4630554914474487
1761316276508605700,3.257605712890625,0.8472451567649841,-0.4318690001964569,1.1948171854019165
1761316276527528000,3.27652783203125,0.8044858574867249,-0.9455915689468384,0.6853706240653992
1761316276546450400,3.295450439453125,0.8741224408149719,-1.4141877889633179,0.25716668367385864
1761316276565372700,3.31437255859375,0.9101623892784119,-1.6799063682556152,-0.004275931045413017
1761316276584295200,3.333295166015625,0.8625163435935974,-1.464888095855713,-0.011606098152697086
1761316276603217400,3.352217529296875,0.7983773946762085,-1.2174185514450073,0.09834641218185425
1761316276622140000,3.371139892578125,0.7519529461860657,-0.9914051294326782,0.0781884491443634
1761316276641062100,3.390062255859375,0.735460102558136,-0.9932376146316528,-0.04703523963689804
1761316276659984600,3.408984619140625,0.6743753552436829,-1.3163758516311646,-0.26632940769195557
1761316276678907000,3.427906982421875,0.6493306159973145,-1.5583477020263672,-0.49295374751091003
1761316276697829400,3.446829345703125,0.5375455617904663,-1.3964731693267822,-0.7128587365150452
1761316276716751600,3.465751708984375,0.2596100866794586,-0.9462023973464966,-0.7751652002334595
1761316276735674000,3.484674072265625,-0.07574506103992462,-0.499673068523407,-0.6517740488052368
1761316276754596400,3.503596435546875,-0.2748812735080719,-0.10995250940322876,-0.5564818382263184
1761316276773518800,3.522518798828125,-0.37261682748794556,0.12583453953266144,-0.49112120270729065
1761316276792441000,3.541441162109375,-0.4074351191520691,0.36223241686820984,-0.4294256269931793
1761316276811363600,3.560363525390625,-0.393385648727417,0.5473191738128662,-0.4422534108161926
1761316276830285800,3.579285888671875,-0.42331716418266296,0.6688777208328247,-0.49356457591056824
1761316276849208300,3.598208251953125,-0.5088357925415039,0.7159129977226257,-0.5595360994338989
1761316276868130600,3.617130615234375,-0.4862344264984131,0.5900784730911255,-0.601073682308197
1761316276887053000,3.636052978515625,-0.22540263831615448,0.16309621930122375,-0.6707102656364441
1761316276905975300,3.654975341796875,0.16309621930122375,-0.29503923654556274,-0.7678350210189819
1761316276924897800,3.673897705078125,0.5234960913658142,-0.7403468489646912,-0.8808417320251465
1761316276943820000,3.692820068359375,0.7024743556976318,-1.073258638381958,-0.8014315962791443
1761316276962742500,3.711742431640625,0.735460102558136,-0.9852966070175171,-0.5070032477378845
1761316276981664800,3.730664794921875,0.7574505805969238,-0.7928797602653503,-0.3799470067024231
1761316277000587300,3.749587158203125,0.7525638341903687,-0.7507312893867493,-0.6212316751480103
1761316277019509500,3.768509521484375,0.6762079000473022,-0.6377245187759399,-1.0262234210968018
1761316277038432000,3.787431884765625,0.5326588153839111,-0.3365768492221832,-1.4587795734405518
1761316277057354200,3.806354248046875,0.26999449729919434,0.4159869849681854,-1.6023286581039429
1761316277076276700,3.82527685546875,-0.07146912813186646,0.6389462351799011,-1.0512681007385254
1761316277095199000,3.844198974609375,-0.20646637678146362,-0.017714571207761765,-0.17653486132621765
1761316277114121500,3.86312158203125,-0.11361759155988693,0.10140064358711243,0.20585553348064423
1761316277133043700,3.882043701171875,-0.3903313875198364,0.6035171151161194,-0.10201149433851242
1761316277151966200,3.90096630859375,-0.8722898960113525,1.1984822750091553,-0.17714570462703705
1761316277170888400,3.919888427734375,-1.4538928270339966,1.6939557790756226,-0.28221142292022705
1761316277189811000,3.93881103515625,-0.9791881442070007,1.3334795236587524,-0.3567348122596741
1761316277208733200,3.957733154296875,-0.12705622613430023,0.4862344264984131,-0.5473191738128662
1761316277227655700,3.97665576171875,0.2486148327589035,0.8283088803291321,-0.7128587365150452
1761316277246578000,3.995577880859375,0.09407047927379608,1.5876684188842773,-0.36284327507019043
1761316277265500400,4.01450048828125,-0.258999228477478,1.1740484237670898,-0.1850867122411728
1761316277284422700,4.033422607421875,-0.3151971995830536,0.49356457591056824,-0.45385950803756714
1761316277303345200,4.05234521484375,-0.3139754831790924,0.5705313682556152,-0.45447036623954773
1761316277322267400,4.071267333984375,-0.42331716418266296,0.7427902817726135,-0.14843589067459106
1761316277341190000,4.09018994140625,-0.5338805317878723,0.7568397521972656,-0.007330167107284069
1761316277360112000,4.109112060546875,-0.5473191738128662,0.5937435626983643,-0.15271180868148804
1761316277379034600,4.12803466796875,-0.49356457591056824,0.5772506594657898,-0.342074453830719
1761316277397956900,4.146956787109375,-0.448361873626709,0.6786513328552246,-0.4086568057537079
1761316277416879400,4.16587939453125,-0.4874561131000519,0.8405258059501648,-0.3390202224254608
1761316277435801600,4.184801513671875,-0.5283828973770142,0.9382613897323608,-0.21807247400283813
1761316277454724000,4.20372412109375,-0.5833591222763062,0.7525638341903687,-0.1704263836145401
1761316277473646300,4.222646240234375,-0.5955760478973389,0.577861487865448,-0.2113531529903412
1761316277492568800,4.24156884765625,-0.518609344959259,0.5430431962013245,-0.2480039894580841
1761316277511491000,4.260490966796875,-0.39888325333595276,0.6285618543624878,-0.2522799074649811
1761316277530413600,4.27941357421875,-0.31031039357185364,0.6872031688690186,-0.20524467527866364
1761316277549335800,4.298335693359375,-0.27121618390083313,0.624896764755249,-0.12827792763710022
1761316277568258300,4.31725830078125,-0.23884128034114838,0.5809157490730286,-0.07085828483104706
1761316277587180500,4.3361806640625,-0.2583884000778198,0.5497625470161438,0.05070032179355621
1761316277606103000,4.35510302734375,-0.2999260127544403,0.6420004963874817,0.1301104724407196
1761316277625025300,4.374025390625,-0.26694026589393616,0.9370396733283997,0.12278030067682266
1761316277643947800,4.39294775390625,-0.22784602642059326,1.1630531549453735,0.1563768982887268
1761316277662870000,4.4118701171875,-0.23212195932865143,1.23940908908844,0.27854636311531067
1761316277681792500,4.43079248046875,-0.19241689145565033,1.1551121473312378,0.5949652194976807
1761316277700714800,4.44971484375,-0.010995250195264816,1.0592091083526611,0.9321529269218445
1761316277719637200,4.46863720703125,0.312142938375473,0.8478559851646423,0.911384105682373
1761316277738559500,4.4875595703125,0.629172682762146,0.024433890357613564,0.9883508682250977
1761316277757482000,4.50648193359375,0.7330167293548584,-0.5589252710342407,1.1312891244888306
1761316277776404200,4.525404296875,0.8270871639251709,-0.675597071647644,1.5742297172546387
1761316277795326700,4.54432666015625,0.8008207678794861,-0.6713211536407471,2.13620924949646
1761316277814249000,4.5632490234375,1.1178505420684814,-0.41110020875930786,2.185076951980591
1761316277833171500,4.58217138671875,1.530248761177063,0.23945212364196777,1.9938818216323853
1761316277852093700,4.60109375,1.6475313901901245,0.7275190949440002,1.9437923431396484
1761316277871016200,4.62001611328125,1.3066022396087646,0.7812736630439758,2.101390838623047
1761316277889938400,4.6389384765625,1.1099094152450562,0.4172086715698242,1.8613280057907104
1761316277908861000,4.65786083984375,1.1563338041305542,-0.5967977643013,1.1618314981460571
1761316277927783200,4.676783203125,1.1777135133743286,-1.389753818511963,0.8545753359794617
1761316277946705700,4.69570556640625,1.1123528480529785,-1.654861569404602,0.739736020565033
1761316277965628000,4.7146279296875,1.0048437118530273,-1.6469205617904663,0.6688777208328247
1761316277984550400,4.73355029296875,0.8979454636573792,-1.5052039623260498,0.6029062271118164
1761316278003472600,4.75247265625,0.888171911239624,-1.483824372291565,0.5772506594657898
1761316278022395100,4.77139501953125,0.9498674869537354,-1.778863549232483,0.5418215394020081
1761316278041317400,4.7903173828125,0.9730796813964844,-2.1820228099823,0.21868331730365753
1761316278060239600,4.809239501953125,0.9193251132965088,-2.324350118637085,-0.3500154912471771
1761316278079162000,4.828162109375,0.6835380792617798,-2.2296688556671143,-0.7458444833755493
1761316278098084400,4.84708447265625,0.34879377484321594,-1.8008540868759155,-0.7482879161834717
1761316278117006800,4.8660068359375,0.03787253051996231,-1.1416735649108887,-0.5949652194976807
1761316278135929000,4.88492919921875,-0.15454435348510742,-0.49173203110694885,-0.46546560525894165
1761316278154851600,4.9038515625,-0.2522799074649811,-0.23028941452503204,-0.4074351191520691
1761316278173773800,4.92277392578125,-0.2980934679508209,-0.09529217332601547,-0.43981003761291504
1761316278192696300,4.9416962890625,-0.33596599102020264,0.12461283802986145,-0.5644228458404541
1761316278211618600,4.96061865234375,-0.38788801431655884,0.43981003761291504,-0.6823163628578186
1761316278230541000,4.979541015625,-0.4556920528411865,0.6297835111618042,-0.7843278646469116
1761316278249463300,4.99846337890625,-0.45141613483428955,0.395218163728714,-0.833195686340332
1761316278268385800,5.0173857421875,-0.2608317732810974,-0.10628741979598999,-0.762948215007782
1761316278287308000,5.03630810546875,0.06413896381855011,-0.4831801950931549,-0.8014315962791443
1761316278306230500,5.05523046875,0.3946073353290558,-0.8362498879432678,-0.7434011101722717
1761316278325152800,5.07415283203125,0.47707170248031616,-0.6206207871437073,-0.4569137394428253
1761316278344075300,5.0930751953125,0.4703523814678192,-0.19363857805728912,-0.16187451779842377
1761316278362997500,5.11199755859375,0.46302223205566406,0.10323318839073181,-0.12522368133068085
1761316278381920000,5.130919921875,0.40132665634155273,0.24678228795528412,-0.40987852215766907
1761316278400842200,5.14984228515625,0.33596599102020264,0.503948986530304,-0.5253286361694336
1761316278419764700,5.1687646484375,0.2376195788383484,0.7067502737045288,-0.18814095854759216
1761316278438687000,5.18768701171875,-0.06047387793660164,0.8008207678794861,0.18691925704479218
1761316278457609500,5.206609375,-0.13988402485847473,1.13800847530365,0.19241689145565033
1761316278476531700,5.22553173828125,-0.4953971207141876,1.0983033180236816,-0.06780404597520828
1761316278495454200,5.2444541015625,-1.1312891244888306,1.1880979537963867,-0.03176405653357506
1761316278514376400,5.26337646484375,-1.3304253816604614,1.465498924255371,-0.27121618390083313
1761316278533299000,5.282298828125,-0.781884491443634,1.4074684381484985,-0.5613686442375183
1761316278552221200,5.30122119140625,-0.08246438205242157,0.9138274788856506,-0.7941014170646667
1761316278571143700,5.320143798828125,0.2651077210903168,0.8765658140182495,-0.7421793937683105
1761316278590066000,5.33906591796875,0.10201149433851242,1.0518789291381836,-0.5980194807052612
1761316278608988400,5.357988525390625,-0.20280128717422485,0.791047215461731,-0.5741963982582092
1761316278627910700,5.37691064453125,-0.35856732726097107,0.41476529836654663,-0.6749862432479858
1761316278646833200,5.395833251953125,-0.4477510452270508,0.31825143098831177,-0.6536065936088562
1761316278665755400,5.41475537109375,-0.5809157490730286,0.28404396772384644,-0.5913001298904419
1761316278684678000,5.433677978515625,-0.6682668924331665,0.4960079789161682,-0.5289937257766724
1761316278703600000,5.45260009765625,-0.6615476012229919,0.5796940326690674,-0.5644228458404541
1761316278722522600,5.471522705078125,-0.6646018028259277,0.601073682308197,-0.6603258848190308
1761316278741444900,5.49044482421875,-0.6639909744262695,0.6688777208328247,-0.7116370797157288
1761316278760367400,5.509367431640625,-0.6468872427940369,0.5760289430618286,-0.7207997441291809
1761316278779289600,5.52828955078125,-0.6804838180541992,0.44958359003067017,-0.6878139972686768
1761316278798212000,5.547212158203125,-0.7256865501403809,0.4953971207141876,-0.6236750483512878
1761316278817134300,5.56613427734375,-0.7977665066719055,0.4819584786891937,-0.6035171151161194
1761316278836056600,5.585056640625,-0.8667922616004944,0.4819584786891937,-0.6633801460266113
1761316278854979000,5.60397900390625,-0.8472451567649841,0.37506023049354553,-0.7098045349121094
1761316278873901600,5.622901611328125,-0.731184184551239,0.21196399629116058,-0.6823163628578186
1761316278892823800,5.64182373046875,-0.5577035546302795,0.11911521852016449,-0.610236406326294
1761316278911746300,5.660746337890625,-0.3567348122596741,0.1973036676645279,-0.518609344959259
1761316278930668500,5.67966845703125,-0.22479179501533508,0.3775036036968231,-0.3396310806274414
1761316278949591000,5.698591064453125,-0.21501824259757996,0.648108959197998,-0.08246438205242157
1761316278968513300,5.71751318359375,-0.2644968628883362,0.8887827396392822,0.16309621930122375
1761316278987435800,5.736435791015625,-0.3017585575580597,1.0262234210968018,0.31825143098831177
1761316279006358000,5.75535791015625,-0.261442631483078,0.9804098606109619,0.42698222398757935
1761316279025280300,5.7742802734375,-0.1557660549879074,0.888171911239624,0.5858024954795837
1761316279044202800,5.79320263671875,0.11422843486070633,0.841747522354126,0.7177455425262451
1761316279063125000,5.812125,0.5680879354476929,0.5729747414588928,0.7379034757614136
1761316279082047500,5.831047607421875,0.9058864712715149,-0.2363978922367096,1.060430884361267
1761316279100969700,5.8499697265625,1.1538904905319214,-0.9370396733283997,1.4227396249771118
1761316279119892200,5.868892333984375,1.2797249555587769,-1.2827792167663574,1.7306066751480103
1761316279138814500,5.887814453125,1.3518813848495483,-0.9956810474395752,1.7709225416183472
1761316279157737000,5.906737060546875,1.2736165523529053,-0.29687178134918213,1.8515543937683105
1761316279176659200,5.9256591796875,1.1667182445526123,0.5106683373451233,2.0513014793395996
1761316279195581700,5.944581787109375,1.1777135133743286,1.041494607925415,2.223560333251953
1761316279214504000,5.96350390625,1.0304993391036987,0.9852966070175171,2.122159719467163
1761316279233426400,5.982426513671875,0.9462023973464966,0.37689274549484253,1.8472784757614136
1761316279252348700,6.0013486328125,1.0085088014602661,-0.5167768001556396,1.4282371997833252
1761316279271271200,6.020271240234375,1.0897514820098877,-0.9541434049606323,1.0579874515533447
1761316279290193400,6.039193359375,1.0396620035171509,-1.2039799690246582,0.7977665066719055
1761316279309116000,6.058115966796875,0.999346137046814,-1.4111335277557373,0.582748293876648
1761316279328038100,6.0770380859375,0.9260444641113281,-1.4887111186981201,0.34757208824157715
1761316279346960600,6.095960693359375,0.873511552810669,-1.6475313901901245,0.1557660549879074
1761316279365883000,6.1148828125,0.8985562920570374,-1.9865516424179077,0.1325538605451584
1761316279384805400,6.133805419921875,0.9852966070175171,-2.344508171081543,0.054365407675504684
1761316279403727600,6.1527275390625,0.841747522354126,-2.095282554626465,-0.21807247400283813
1761316279422649900,6.17164990234375,0.4220954477787018,-1.7025076150894165,-0.5876350402832031
1761316279441572400,6.190572265625,0.042759306728839874,-1.4942086935043335,-0.8356390595436096
1761316279460494800,6.209494873046875,-0.13438639044761658,-1.0531007051467896,-0.8380824327468872
1761316279479417000,6.2284169921875,-0.16187451779842377,-0.4813476502895355,-0.6407787799835205
1761316279498339600,6.247339599609375,-0.09956810623407364,-0.10140064358711243,-0.4453076422214508
1761316279517261800,6.26626171875,-0.09773556143045425,0.11606097966432571,-0.34635040163993835
1761316279536184300,6.285184326171875,-0.2107423096895218,0.25289076566696167,-0.4446968138217926
1761316279555106600,6.3041064453125,-0.3536805510520935,0.25472331047058105,-0.6719319820404053
1761316279574028800,6.32302880859375,-0.46729815006256104,0.22906772792339325,-0.9003888368606567
1761316279592951300,6.341951416015625,-0.38727715611457825,0.02870982140302658,-1.0995250940322876
1761316279611873500,6.36087353515625,-0.07452336698770523,-0.37383851408958435,-1.2546802759170532
1761316279630796000,6.379796142578125,0.265718549489975,-0.9358180165290833,-1.2565127611160278
1761316279649718300,6.39871826171875,0.5131117105484009,-1.3891429901123047,-1.0708152055740356
1761316279668640800,6.417640869140625,0.6426113247871399,-1.3439403772354126,-0.8490777015686035
1761316279687563000,6.43656298828125,0.7183563709259033,-0.6933116316795349,-0.5344913601875305
1761316279706485500,6.455485595703125,0.6988092660903931,-0.03542914241552353,-0.2626643180847168
1761316279725407700,6.47440771484375,0.5167768001556396,0.3268032968044281,-0.22784602642059326
1761316279744330200,6.493330322265625,0.3549022674560547,0.6004628539085388,-0.2883199155330658
1761316279763252500,6.51225244140625,0.2870981991291046,0.5125008225440979,0.055587101727724075
1761316279782175000,6.531175048828125,0.11117420345544815,0.27121618390083313,0.49051034450531006
1761316279801097200,6.55009716796875,0.13744063675403595,0.45447036623954773,0.5632011890411377
1761316279820019700,6.569019775390625,-0.5619794726371765,0.8832851648330688,0.0397050715982914
1761316279838942000,6.58794189453125,-1.1966497898101807,1.909584879875183,-0.469741553068161
1761316279857864200,6.6068642578125,-1.317597508430481,2.5888469219207764,-0.8050966858863831
1761316279876786700,6.62578662109375,-0.8722898960113525,2.0329761505126953,-0.9266552925109863
1761316279895709000,6.644708984375,-0.23151111602783203,0.4618005156517029,-1.0720369815826416
1761316279914631400,6.66363134765625,0.04153761267662048,-0.1325538605451584,-1.0683718919754028
1761316279933553700,6.6825537109375,-0.07513421028852463,0.5405998229980469,-0.5558710098266602
1761316279952476200,6.70147607421875,-0.3811686933040619,0.8203678727149963,-0.14843589067459106
1761316279971398400,6.7203984375,-0.5332696437835693,1.0280559062957764,-0.2357870489358902
1761316279990321000,6.73932080078125,-0.554649293422699,1.1306782960891724,-0.1704263836145401
1761316280009243100,6.7582431640625,-0.6120689511299133,0.9529217481613159,-0.04092676565051079
1761316280028165600,6.77716552734375,-0.6548282504081726,0.869846522808075,-0.04031591862440109
1761316280047087900,6.796087890625,-0.6511631608009338,0.6450546979904175,-0.20341213047504425
1761316280066010400,6.81501025390625,-0.6175665855407715,0.22540263831615448,-0.5344913601875305
1761316280084932600,6.8339326171875,-0.5845808386802673,0.27976804971694946,-0.7495095729827881
1761316280103855000,6.852855224609375,-0.5919110178947449,0.7226322889328003,-0.6603258848190308
1761316280122777300,6.87177734375,-0.6145123243331909,0.9455915689468384,-0.37200596928596497
1761316280141699800,6.890699951171875,-0.6554391384124756,1.0243908166885376,-0.1820324808359146
1761316280160622000,6.9096220703125,-0.7568397521972656,0.9608627557754517,-0.18997350335121155
1761316280179544600,6.928544677734375,-0.8405258059501648,0.735460102558136,-0.2858765125274658
1761316280198466800,6.947466796875,-0.8484668135643005,0.6597150564193726,-0.41048935055732727
1761316280217389300,6.966389404296875,-0.7947123050689697,0.5833591222763062,-0.4343124032020569
1761316280236311600,6.9853115234375,-0.7226322889328003,0.39643988013267517,-0.3958290219306946
1761316280255233800,7.00423388671875,-0.5851916670799255,0.30664533376693726,-0.42331716418266296
1761316280274156300,7.02315625,-0.42698222398757935,0.33413344621658325,-0.40132665634155273
1761316280293078500,7.04207861328125,-0.3408527672290802,0.3823903799057007,-0.21990501880645752
1761316280312001000,7.0610009765625,-0.3035911023616791,0.4343124032020569,-0.03542914241552353
1761316280330923300,7.07992333984375,-0.2767138183116913,0.5821374654769897,0.06352811306715012
1761316280349845800,7.098845703125,-0.29381752014160156,0.8557969927787781,0.16615045070648193
1761316280368768000,7.11776806640625,-0.24006296694278717,0.9504783153533936,0.38422292470932007
1761316280387690500,7.1366904296875,0.10017894953489304,0.9071081876754761,0.5393781065940857
1761316280406612700,7.15561279296875,0.582748293876648,0.3805578351020813,0.7806627750396729
1761316280425535200,7.17453515625,1.073258638381958,-0.469741553068161,0.9926267862319946
1761316280444457500,7.19345751953125,1.5210859775543213,-1.1777135133743286,1.1025793552398682
1761316280463379700,7.212379638671875,1.650585651397705,-1.0011786222457886,1.3169866800308228
1761316280482302200,7.23130224609375,1.3182083368301392,-0.34940463304519653,1.7580947875976562
1761316280501224400,7.250224365234375,0.9724688529968262,0.10140064358711243,2.098336696624756
1761316280520147000,7.26914697265625,0.999346137046814,0.337798535823822,2.240664005279541
1761316280539069200,7.288069091796875,1.086086392402649,0.5027272701263428,2.173470973968506
1761316280557991700,7.30699169921875,1.0750911235809326,0.3823903799057007,2.1062777042388916
1761316280576914000,7.325913818359375,1.0958600044250488,-0.09529217332601547,1.8149036169052124
1761316280595836400,7.34483642578125,1.1221264600753784,-0.6914790868759155,1.3041589260101318
1761316280614758700,7.363758544921875,1.1502254009246826,-1.3842562437057495,0.9260444641113281
1761316280633681200,7.38268115234375,1.0011786222457886,-1.4496169090270996,0.660936713218689
1761316280652603400,7.401603271484375,0.9529217481613159,-1.4166311025619507,0.474017471075058
1761316280671526000,7.42052587890625,0.9510892033576965,-1.572397232055664,0.31886225938796997
1761316280690448100,7.4394482421875,1.0323318243026733,-1.8271205425262451,0.18691925704479218
1761316280709370600,7.45837060546875,1.0616525411605835,-2.1465935707092285,0.007941014133393764
1761316280728292900,7.47729296875,0.8887827396392822,-2.105056047439575,-0.12522368133068085
1761316280747215400,7.49621533203125,0.546097457408905,-1.8136818408966064,-0.33535513281822205
1761316280766137600,7.5151376953125,0.2107423096895218,-1.6811280250549316,-0.5674771070480347
1761316280785059800,7.534059814453125,0.004886778071522713,-1.3757044076919556,-0.6945333480834961
1761316280803982300,7.552982421875,-0.09407047927379608,-0.8588512539863586,-0.6994200944900513
1761316280822904600,7.571904541015625,-0.09834641218185425,-0.42637139558792114,-0.6035171151161194
1761316280841827000,7.5908271484375,-0.14049486815929413,-0.06902574002742767,-0.5192201733589172
1761316280860749300,7.609749267578125,-0.23028941452503204,0.1692046970129013,-0.5497625470161438
1761316280879671800,7.628671875,-0.2901524603366852,0.3115321099758148,-0.648108959197998
1761316280898594000,7.647593994140625,-0.258999228477478,0.4178195297718048,-0.7421793937683105
1761316280917516500,7.6665166015625,-0.18875180184841156,0.2107423096895218,-0.7812736630439758
1761316280936438800,7.685438720703125,-0.06841489672660828,-0.28037887811660767,-0.7134696245193481
1761316280955361000,7.704361083984375,0.25533416867256165,-0.8411366939544678,-0.6181774139404297
1761316280974283500,7.723283447265625,0.656660795211792,-1.3940298557281494,-0.5833591222763062
1761316280993205800,7.742205810546875,0.8515210747718811,-1.0421054363250732,-0.38666632771492004
1761316281012128300,7.761128173828125,0.8118160367012024,-0.22967857122421265,-0.04703523963689804
1761316281031050500,7.780050537109375,0.6688777208328247,0.2864873707294464,0.16676130890846252
1761316281049973000,7.798972900390625,0.40132665634155273,0.37567105889320374,-0.1050657257437706
1761316281068895200,7.817895263671875,0.130721315741539,0.6719319820404053,-0.5583143830299377
1761316281087817700,7.836817626953125,-0.08979454636573792,0.6719319820404053,-0.4068242609500885
1761316281106740000,7.855739990234375,-0.53143709897995,0.29687178134918213,0.3029802441596985
1761316281125662500,7.874662353515625,-0.2987042963504791,0.14782503247261047,0.6114581227302551
1761316281144584700,7.893584716796875,-0.37322768568992615,0.3390202224254608,0.258999228477478
1761316281163507000,7.9125068359375,-0.9003888368606567,1.0005677938461304,0.1557660549879074
1761316281182429400,7.931429443359375,-1.2803359031677246,1.9523441791534424,-0.18936264514923096
1761316281201351700,7.9503515625,-1.068982720375061,3.276050090789795,-0.9865183234214783
1761316281220274200,7.969274169921875,-0.4282039403915405,2.802032709121704,-1.4789376258850098
1761316281239196400,7.988196533203125,0.14721418917179108,0.7623373866081238,-0.9266552925109863
1761316281258119000,8.007118896484375,0.1850867122411728,0.37078428268432617,-0.3243598937988281
1761316281277041200,8.026041259765625,-0.11911521852016449,0.4966188073158264,0.02504473738372326
1761316281295963600,8.044963623046876,-0.4349232614040375,0.8399149775505066,0.028098974376916885
1761316281314886000,8.063885986328126,-0.4434750974178314,1.151447057723999,-0.2516690790653229
1761316281333808400,8.082808349609374,-0.42453885078430176,0.971247136592865,-0.3310792148113251
1761316281352730600,8.101730712890625,-0.47585001587867737,0.8124268651008606,-0.2718270421028137
1761316281371652900,8.12065283203125,-0.5424323678016663,0.6047387719154358,-0.24189551174640656
1761316281390575400,8.139575439453125,-0.5405998229980469,0.416597843170166,-0.30481278896331787
1761316281409497600,8.15849755859375,-0.5809157490730286,0.3921639323234558,-0.4471401870250702
1761316281428420000,8.177420166015626,-0.5986303091049194,0.4831801950931549,-0.5118899941444397
1761316281447342300,8.19634228515625,-0.6426113247871399,0.6737645268440247,-0.4819584786891937
1761316281466264800,8.215264892578125,-0.70308518409729,0.8246437907218933,-0.418430358171463
1761316281485187000,8.23418701171875,-0.7892146706581116,0.966971218585968,-0.3640649616718292
1761316281504109600,8.253109619140625,-0.896723747253418,0.8344173431396484,-0.3915531039237976
1761316281523031800,8.27203173828125,-0.9859074950218201,0.5894675850868225,-0.5015056133270264
1761316281541954000,8.2909541015625,-1.0030112266540527,0.3665083646774292,-0.6163448691368103
1761316281560876500,8.30987646484375,-0.9443698525428772,0.24372805655002594,-0.6682668924331665
1761316281579798800,8.328798828125,-0.8454126119613647,0.2632751762866974,-0.6413896083831787
1761316281598721300,8.34772119140625,-0.731184184551239,0.38666632771492004,-0.5589252710342407
1761316281617643500,8.3666435546875,-0.5344913601875305,0.4367557764053345,-0.46241137385368347
1761316281636566000,8.38556591796875,-0.3390202224254608,0.3011476993560791,-0.29381752014160156
1761316281655488300,8.40448828125,-0.21623992919921875,0.2779355049133301,-0.12094775587320328
1761316281674410500,8.423410400390624,-0.16676130890846252,0.5143333673477173,0.01710372418165207
1761316281693333000,8.4423330078125,-0.13682979345321655,0.767224133014679,0.24189551174640656
1761316281712255200,8.461255126953125,-0.03298575058579445,0.8991671800613403,0.4581354558467865
1761316281731177700,8.480177734375,0.26632940769195557,0.763559103012085,0.6358919739723206
1761316281750100000,8.499099853515625,0.726908266544342,0.4294256269931793,0.8869501948356628
1761316281769022500,8.5180224609375,1.1447277069091797,-0.14171656966209412,1.1404517889022827
1761316281787944700,8.53694482421875,1.4337348937988281,-0.7977665066719055,1.5968310832977295
1761316281806867000,8.555866943359375,1.5290271043777466,-1.0335536003112793,1.9969360828399658
1761316281825789400,8.57478955078125,1.3469945192337036,-0.9743013978004456,2.086730480194092
1761316281844711700,8.593711669921875,1.235133171081543,-0.7452336549758911,1.9315754175186157
1761316281863634200,8.61263427734375,1.2442958354949951,-0.2877090573310852,1.7953563928604126
1761316281882556400,8.631556396484376,1.2595670223236084,0.37200596928596497,1.9865516424179077
1761316281901479000,8.65047900390625,1.184432864189148,0.503948986530304,2.266319751739502
1761316281920401200,8.669401123046875,1.155722975730896,0.016492875292897224,1.774587631225586
1761316281939323600,8.68832373046875,1.1948171854019165,-0.9297095537185669,1.1435060501098633
1761316281958246000,8.707245849609375,1.2803359031677246,-1.6817388534545898,0.7550072073936462
1761316281977168400,8.72616845703125,1.2827792167663574,-2.0195374488830566,0.39643988013267517
1761316281996090600,8.745090576171876,1.2516260147094727,-1.8827075958251953,0.1325538605451584
1761316282015012900,8.764012939453124,1.1850436925888062,-1.7678682804107666,-0.11606097966432571
1761316282033935400,8.782935302734375,1.1532796621322632,-2.275482416152954,-0.24311721324920654
1761316282052857600,8.801857666015625,1.032942771911621,-2.5247080326080322,-0.19058434665203094
1761316282071780000,8.820780029296875,0.8448017835617065,-2.353670835494995,-0.3762819170951843
1761316282090702300,8.839702392578126,0.6181774139404297,-2.0714592933654785,-0.7250757217407227
1761316282109624800,8.858624755859376,0.34757208824157715,-1.8985896110534668,-0.999346137046814
1761316282128547000,8.877547119140624,0.05986303091049194,-1.5094798803329468,-1.0421054363250732
1761316282147469300,8.89646923828125,-0.14171656966209412,-0.896723747253418,-0.8997780084609985
1761316282166391800,8.915391845703125,-0.24556060135364532,-0.4703523814678192,-0.7201889157295227
1761316282185314000,8.93431396484375,-0.2767138183116913,-0.18875180184841156,-0.6432221531867981
1761316282204236500,8.953236572265626,-0.27915719151496887,0.08490777015686035,-0.6358919739723206
1761316282223158800,8.97215869140625,-0.24311721324920654,0.2748812735080719,-0.6193991303443909
1761316282242081300,8.991081298828124,-0.16065283119678497,0.28343313932418823,-0.5766398310661316
1761316282261003500,9.01000341796875,-0.07635590434074402,0.00916270911693573,-0.5112791657447815
1761316282279925800,9.02892578125,0.061084724962711334,-0.38544461131095886,-0.4349232614040375
1761316282298848300,9.04784814453125,0.33230090141296387,-0.7562289237976074,-0.47585001587867737
1761316282317770500,9.0667705078125,0.5650337338447571,-0.8783983588218689,-0.4556920528411865
1761316282336693000,9.08569287109375,0.6157340407371521,-0.6132906675338745,-0.2779355049133301
1761316282355615200,9.104615234375,0.5338805317878723,-0.18814095854759216,-0.1453816443681717
1761316282374537700,9.123537841796875,0.4300364851951599,0.17225892841815948,-0.25350162386894226
1761316282393460000,9.1424599609375,0.21623992919921875,0.43614494800567627,-0.4703523814678192
1761316282412382200,9.16138232421875,0.12522368133068085,0.6163448691368103,-0.42881476879119873
1761316282431304700,9.1803046875,-0.17409147322177887,0.6444438695907593,-0.08735115826129913
1761316282450227000,9.19922705078125,-0.06352811306715012,0.5100574493408203,0.12461283802986145
1761316282469149400,9.2181494140625,-0.11056335270404816,0.7238540053367615,-0.18142163753509521
1761316282488071700,9.23707177734375,-0.624896764755249,1.1642749309539795,-0.25594499707221985
1761316282506994000,9.255993896484375,-1.4404542446136475,2.1606431007385254,-0.1429382562637329
1761316282525916400,9.27491650390625,-1.7061727046966553,3.930267572402954,-0.43858832120895386
1761316282544838700,9.293838623046875,-1.2998830080032349,4.125204086303711,-0.4037700295448303
1761316282563761200,9.31276123046875,-0.342074453830719,2.194239616394043,0.09773556143045425
1761316282582683400,9.331683349609374,0.054365407675504684,1.1264023780822754,0.4227063059806824
1761316282601606000,9.35060595703125,-0.24678228795528412,0.8307522535324097,0.5326588153839111
1761316282620528000,9.369528076171875,-0.5405998229980469,0.9333745837211609,0.038483377546072006
1761316282639450600,9.38845068359375,-0.5638120174407959,0.6322268843650818,-0.43797749280929565
1761316282658372900,9.407372802734375,-0.41537612676620483,0.3042019307613373,-0.5699204802513123
1761316282677295000,9.426295166015626,-0.3762819170951843,0.15210096538066864,-0.5222744345664978
1761316282696217600,9.445217529296874,-0.4337015450000763,0.04886778071522713,-0.4831801950931549
1761316282715139800,9.464139892578125,-0.42331716418266296,0.015271181240677834,-0.4966188073158264
1761316282734062300,9.483062255859375,-0.4428642690181732,0.20280128717422485,-0.5601469278335571
1761316282752984600,9.501984619140625,-0.5021164417266846,0.2901524603366852,-0.6633801460266113
1761316282771906800,9.52090673828125,-0.5967977643013,0.2522799074649811,-0.6780404448509216
1761316282790829300,9.539829345703126,-0.6591041684150696,0.36162158846855164,-0.6487197875976562
1761316282809751600,9.55875146484375,-0.7043069005012512,0.37383851408958435,-0.6487197875976562
1761316282828674000,9.577674072265625,-0.7934905886650085,0.43736663460731506,-0.7036960124969482
1761316282847596300,9.59659619140625,-0.8783983588218689,0.4990622103214264,-0.7788302302360535
1761316282866518800,9.615518798828125,-0.9425373077392578,0.4605788290500641,-0.8435800671577454
1761316282885441000,9.63444091796875,-0.9547542929649353,0.4282039403915405,-0.883895993232727
1761316282904363300,9.65336328125,-0.8948912620544434,0.3536805510520935,-0.8264763355255127
1761316282923285800,9.67228564453125,-0.7886037826538086,0.28404396772384644,-0.7898254990577698
1761316282942208000,9.6912080078125,-0.6310052275657654,0.2498365342617035,-0.8032641410827637
1761316282961130500,9.710130615234375,-0.446529358625412,0.11483928561210632,-0.7574505805969238
1761316282980052700,9.729052734375,-0.33718767762184143,-0.061084724962711334,-0.5900784730911255
1761316282998975000,9.74797509765625,-0.25411245226860046,-0.014049487188458443,-0.3762819170951843
1761316283017897500,9.7668974609375,-0.20341213047504425,0.2498365342617035,-0.12033691257238388
1761316283036819700,9.78581982421875,-0.1985253542661667,0.569309651851654,0.15149012207984924
1761316283055742200,9.8047421875,-0.16004198789596558,0.7385143637657166,0.3695625960826874
1761316283074664400,9.82366455078125,0.1447708010673523,0.7598940134048462,0.3249707520008087
1761316283093586700,9.842586669921875,0.5027272701263428,0.3127537965774536,0.2095206081867218
1761316283112509200,9.86150927734375,0.7892146706581116,-0.261442631483078,0.3640649616718292
1761316283131431400,9.880431396484376,1.0811996459960938,-0.47646087408065796,0.6957550048828125
1761316283150354000,9.89935400390625,1.2888877391815186,-0.4569137394428253,1.2247487306594849
1761316283169276200,9.918276123046875,1.4031925201416016,-0.6432221531867981,1.74709951877594
1761316283188198700,9.93719873046875,1.4404542446136475,-0.29503923654556274,2.104445219039917
1761316283207121000,9.956120849609375,1.336610198020935,0.14782503247261047,2.2040133476257324
1761316283226043400,9.97504345703125,1.1227372884750366,0.006108472589403391,2.0073204040527344
1761316283244965600,9.993965576171876,0.9724688529968262,-0.3836120665073395,1.5901117324829102
1761316283263888000,10.012887939453124,1.012784719467163,-0.42453885078430176,1.2894985675811768
1761316283282810400,10.031810302734375,1.1453386545181274,-0.7470661997795105,1.2326897382736206
1761316283301732600,10.050732666015625,1.1447277069091797,-0.9596410393714905,1.226581335067749
1761316283320655000,10.069655029296875,1.073258638381958,-0.8912261724472046,1.159998893737793
1761316283339577300,10.088577392578125,0.994459331035614,-1.1373976469039917,0.9828532338142395
1761316283358499600,10.10749951171875,0.9834640622138977,-1.2998830080032349,0.707361102104187
1761316283377422000,10.126422119140624,1.0897514820098877,-1.2876659631729126,0.5900784730911255
1761316283396344300,10.14534423828125,1.2375766038894653,-1.6035504341125488,0.4092676639556885
1761316283415266800,10.164266845703125,1.2827792167663574,-1.9602851867675781,0.25533416867256165
1761316283434189000,10.18318896484375,1.105022668838501,-1.9761672019958496,0.1960819661617279
1761316283453111300,10.202111328125,0.7934905886650085,-1.9211909770965576,-0.03237490355968475
1761316283472033800,10.22103369140625,0.41537612676620483,-1.6988425254821777,-0.25533416867256165
1761316283490956000,10.2399560546875,0.06169557198882103,-1.452060341835022,-0.40071579813957214
1761316283509878500,10.25887841796875,-0.13621893525123596,-1.0995250940322876,-0.47768256068229675
1761316283528800800,10.27780078125,-0.2229592502117157,-0.7256865501403809,-0.5094466209411621
1761316283547723000,10.296722900390625,-0.23823043704032898,-0.37322768568992615,-0.4990622103214264
1761316283566645500,10.3156455078125,-0.28404396772384644,-0.12461283802986145,-0.5454866290092468
1761316283585567700,10.334567626953126,-0.33230090141296387,0.05741964280605316,-0.6377245187759399
1761316283604490200,10.353490234375,-0.342074453830719,0.291374146938324,-0.7024743556976318
1761316283623412500,10.37241259765625,-0.3365768492221832,0.3408527672290802,-0.7769976854324341
1761316283642334700,10.391334716796875,-0.24006296694278717,0.08551861345767975,-0.7800519466400146
1761316283661257200,10.41025732421875,-0.06169557198882103,-0.3115321099758148,-0.7702783942222595
1761316283680179500,10.429179443359375,0.20219044387340546,-0.6804838180541992,-0.8252546191215515
1761316283699102000,10.44810205078125,0.45508119463920593,-0.8619054555892944,-0.767224133014679
1761316283718024200,10.467024169921874,0.546097457408905,-0.4837910234928131,-0.5204418897628784
1761316283736946400,10.485946533203125,0.5161659121513367,0.129499614238739,-0.25716668367385864
1761316283755869000,10.504868896484375,0.4581354558467865,0.47768256068229675,-0.20646637678146362
1761316283774791200,10.523791259765625,0.23945212364196777,0.6578825116157532,-0.5558710098266602
1761316283793713700,10.542713623046875,-0.15271180868148804,0.9058864712715149,-0.9736905097961426
1761316283812636000,10.561635986328126,-0.21990501880645752,0.971247136592865,-0.9352071285247803
1761316283831558100,10.58055810546875,-0.2767138183116913,0.4563029110431671,-0.4300364851951599
1761316283850480600,10.599480712890625,-0.4324798583984375,0.1716480851173401,0.10140064358711243
1761316283869403000,10.61840283203125,-0.4159869849681854,0.19363857805728912,0.3665083646774292
1761316283888325000,10.6373251953125,-0.7409577369689941,0.5405998229980469,0.5479300022125244
1761316283907247600,10.65624755859375,-1.142895221710205,1.5699537992477417,0.38605546951293945
1761316283926169900,10.675169921875,-1.2565127611160278,2.258378744125366,-0.20280128717422485
1761316283945092400,10.69409228515625,-0.624285876750946,1.9816648960113525,-0.8179244995117188
1761316283964014600,10.7130146484375,0.4092676639556885,1.1435060501098633,-0.8509102463722229
1761316283982937000,10.73193701171875,0.605960488319397,0.7488987445831299,-0.22723518311977386
1761316284001859300,10.750859375,0.28160059452056885,1.1190721988677979,0.21379654109477997
1761316284020781600,10.769781494140625,-0.0787992998957634,1.2143644094467163,0.3286358118057251
1761316284039704000,10.7887041015625,-0.26877278089523315,1.0671501159667969,-0.11911521852016449
1761316284058626300,10.807626220703124,-0.3310792148113251,0.5656445622444153,-0.527161180973053
1761316284077548800,10.826548828125,-0.43736663460731506,0.06169557198882103,-0.5570927262306213
1761316284096471000,10.845470947265625,-0.49112120270729065,-0.14721418917179108,-0.5344913601875305
1761316284115393300,10.864393310546875,-0.4703523814678192,0.03787253051996231,-0.573585569858551
1761316284134315800,10.883315673828125,-0.41110020875930786,0.16065283119678497,-0.6279509663581848
1761316284153238000,10.902238037109376,-0.37139514088630676,0.3029802441596985,-0.6627692580223083
1761316284172160500,10.921160400390624,-0.41293275356292725,0.6200099587440491,-0.5815265774726868
1761316284191082800,10.940082763671874,-0.4703523814678192,0.8600729703903198,-0.5051707029342651
1761316284210005000,10.9590048828125,-0.5332696437835693,0.8942803740501404,-0.46302223205566406
1761316284228927500,10.977927490234375,-0.6120689511299133,0.6261184215545654,-0.4434750974178314
1761316284247849700,10.996849609375,-0.6865923404693604,0.3799470067024231,-0.4752391576766968
1761316284266772000,11.01577197265625,-0.7391251921653748,0.3255815804004669,-0.499673068523407
1761316284285694500,11.034694580078124,-0.754396378993988,0.38788801431655884,-0.4746283292770386
1761316284304616700,11.05361669921875,-0.7372926473617554,0.4159869849681854,-0.45508119463920593
1761316284323539200,11.072539306640625,-0.7116370797157288,0.3158080279827118,-0.43797749280929565
1761316284342461400,11.09146142578125,-0.6432221531867981,0.29748260974884033,-0.4874561131000519
1761316284361383700,11.1103837890625,-0.5216635465621948,0.18569757044315338,-0.5497625470161438
1761316284380306200,11.12930615234375,-0.45141613483428955,0.14049486815929413,-0.49173203110694885
1761316284399228400,11.148228515625,-0.4349232614040375,0.2339545041322708,-0.34940463304519653
1761316284418150700,11.167150634765624,-0.43919917941093445,0.37261682748794556,-0.23212195932865143
1761316284437073200,11.1860732421875,-0.4355340898036957,0.47646087408065796,-0.1820324808359146
1761316284455995400,11.204995361328125,-0.33169007301330566,0.5241069197654724,-0.10811996459960938
1761316284474918000,11.22391796875,-0.03176405653357506,0.6456655263900757,-0.04581354558467865
1761316284493840100,11.242840087890626,0.40254834294319153,0.2895416021347046,0.09468132257461548
1761316284512762400,11.261762451171874,0.7391251921653748,-0.2980934679508209,0.34940463304519653
1761316284531684900,11.280684814453124,0.9077190160751343,-0.6371136903762817,0.7091936469078064
1761316284550607000,11.299607177734375,1.041494607925415,-0.5008947253227234,1.197871446609497
1761316284569529600,11.318529541015625,1.035996913909912,-0.20341213047504425,1.8106275796890259
1761316284588451800,11.337451904296875,0.9236010313034058,0.19363857805728912,2.3597793579101562
1761316284607374000,11.3563740234375,0.896723747253418,0.4062134325504303,2.613891839981079
1761316284626296600,11.375296630859374,1.0512681007385254,0.6187883019447327,2.455071449279785
1761316284645218800,11.39421875,1.0989142656326294,0.5986303091049194,2.1325440406799316
1761316284664141000,11.41314111328125,0.9846857786178589,-0.09345962852239609,1.8185685873031616
1761316284683063600,11.4320634765625,0.8704573512077332,-0.5766398310661316,1.4990955591201782
1761316284701985800,11.45098583984375,0.8551861643791199,-0.7348492741584778,1.3163758516311646
1761316284720908300,11.469908203125,0.8515210747718811,-0.9639169573783875,1.1520578861236572
1761316284739830500,11.48883056640625,0.8063184022903442,-1.2186403274536133,0.9749122262001038
1761316284758753000,11.5077529296875,0.7617265582084656,-1.0445488691329956,0.8405258059501648
1761316284777675300,11.52667529296875,0.7806627750396729,-0.9339854717254639,0.8008207678794861
1761316284796597500,11.545597412109375,0.837471604347229,-1.0024003982543945,0.7653915882110596
1761316284815520000,11.56452001953125,0.8405258059501648,-1.2314680814743042,0.6175665855407715
1761316284834442200,11.583442138671876,0.7482879161834717,-1.38731050491333,0.36223241686820984
1761316284853364500,11.602364501953126,0.5381564497947693,-1.410522699356079,0.054365407675504684
1761316284872287000,11.621286865234374,0.21318569779396057,-1.2797249555587769,-0.17897824943065643
1761316284891209200,11.640209228515625,-0.06780404597520828,-1.2430741786956787,-0.3573456406593323
1761316284910131700,11.659131591796875,-0.25533416867256165,-1.0854755640029907,-0.49112120270729065
1761316284929054000,11.678053955078125,-0.32069480419158936,-0.7446228265762329,-0.5198310017585754
1761316284947976200,11.69697607421875,-0.3573456406593323,-0.3304683566093445,-0.4569137394428253
1761316284966898700,11.715898681640626,-0.4062134325504303,-0.005497625097632408,-0.420873761177063
1761316284985821000,11.734821044921874,-0.4477510452270508,0.1820324808359146,-0.5002838969230652
1761316285004743200,11.7537431640625,-0.47768256068229675,0.2742704153060913,-0.633448600769043
1761316285023665700,11.772665771484375,-0.4556920528411865,0.3029802441596985,-0.7128587365150452
1761316285042588000,11.791587890625,-0.2919849753379822,-0.013438640162348747,-0.7715001106262207
1761316285061510400,11.810510498046876,-0.008551862090826035,-0.4049917459487915,-0.8209787011146545
1761316285080432600,11.8294326171875,0.32069480419158936,-0.8551861643791199,-0.8197570443153381
1761316285099355000,11.84835498046875,0.5937435626983643,-1.058598279953003,-0.7653915882110596
1761316285118277400,11.86727734375,0.7024743556976318,-0.555260181427002,-0.4856235682964325
1761316285137199600,11.88619970703125,0.6890357136726379,0.09834641218185425,-0.13927318155765533
1761316285156121900,11.905121826171875,0.5534276366233826,0.3035911023616791,-0.004275931045413017
1761316285175044400,11.92404443359375,0.5161659121513367,0.2223484069108963,-0.11667182296514511
1761316285193966600,11.942966552734376,0.5344913601875305,0.1301104724407196,-0.13927318155765533
1761316285212888800,11.961888916015624,0.12766708433628082,0.043981000781059265,0.01954711228609085
1761316285231811300,11.980811279296875,0.14904673397541046,-0.1435490995645523,0.17775654792785645
1761316285250733600,11.999733642578125,0.029320668429136276,0.5809157490730286,0.0006108472589403391
1761316285269656000,12.018656005859375,-0.546097457408905,1.469774842262268,-0.1325538605451584
1761316285288578300,12.037578369140626,-1.3200409412384033,2.029310941696167,-0.1569877415895462
1761316285307500500,12.05650048828125,-1.63592529296875,2.703075408935547,-0.3035911023616791
1761316285326423000,12.075423095703124,-1.1642749309539795,1.6927341222763062,-0.5448757410049438
1761316285345345300,12.09434521484375,-0.10689827054738998,0.4721849262714386,-0.46302223205566406
1761316285364267500,12.113267578125,0.1429382562637329,0.48928865790367126,-0.3518480062484741
1761316285383190000,12.13218994140625,-0.14904673397541046,0.8912261724472046,-0.4337015450000763
1761316285402112300,12.1511123046875,-0.35978904366493225,0.9101623892784119,-0.49417543411254883
1761316285421034500,12.170034423828126,-0.3054236173629761,0.38849884271621704,-0.5216635465621948
1761316285439957000,12.18895703125,-0.288930743932724,-0.09773556143045425,-0.5650337338447571
1761316285458879200,12.207879150390625,-0.3127537965774536,-0.16187451779842377,-0.652384877204895
1761316285477801700,12.2268017578125,-0.3176405727863312,-0.008551862090826035,-0.6884248852729797
1761316285496724000,12.245723876953125,-0.3170297145843506,0.129499614238739,-0.6578825116157532
1761316285515646200,12.264646240234375,-0.31825143098831177,0.06841489672660828,-0.6511631608009338
1761316285534568700,12.283568603515626,-0.3665083646774292,0.2089097648859024,-0.624896764755249
1761316285553491000,12.302490966796874,-0.40132665634155273,0.25350162386894226,-0.5717530250549316
1761316285572413400,12.321413330078125,-0.45202696323394775,0.27976804971694946,-0.5094466209411621
1761316285591335700,12.340335693359375,-0.48806697130203247,0.3384093940258026,-0.46668729186058044
1761316285610258000,12.3592578125,-0.503948986530304,0.37383851408958435,-0.45263782143592834
1761316285629180400,12.378180419921875,-0.518609344959259,0.4049917459487915,-0.48073679208755493
1761316285648102700,12.3971025390625,-0.5424323678016663,0.3151971995830536,-0.5644228458404541
1761316285667025000,12.41602490234375,-0.5796940326690674,0.291374146938324,-0.6493306159973145
1761316285685947400,12.434947509765625,-0.6108472347259521,0.2754921019077301,-0.6945333480834961
1761316285704869600,12.45386962890625,-0.6426113247871399,0.29626092314720154,-0.6927008032798767
1761316285723792000,12.4727919921875,-0.633448600769043,0.3170297145843506,-0.6389462351799011
1761316285742714400,12.49171435546875,-0.578472375869751,0.2101314514875412,-0.527161180973053
1761316285761636600,12.51063671875,-0.46241137385368347,0.18753011524677277,-0.38544461131095886
1761316285780559000,12.52955908203125,-0.3023693859577179,0.3561239540576935,-0.21501824259757996
1761316285799481300,12.5484814453125,-0.1588202863931656,0.4947862923145294,0.007941014133393764
1761316285818403600,12.567403564453125,-0.06963659077882767,0.5949652194976807,0.23028941452503204
1761316285837326000,12.586326171875,-0.030542362481355667,0.6639909744262695,0.3390202224254608
1761316285856248300,12.605248291015625,-0.02993151545524597,0.6939224600791931,0.37078428268432617
1761316285875170600,12.624170654296876,0.0012216945178806782,0.6432221531867981,0.41171106696128845
1761316285894093000,12.643093017578124,0.18691925704479218,0.5137225389480591,0.4324798583984375
1761316285913015300,12.662015380859375,0.5106683373451233,0.16187451779842377,0.41171106696128845
1761316285931937500,12.6809375,0.8637380003929138,-0.448361873626709,0.3274141252040863
1761316285950860000,12.699860107421875,1.1215155124664307,-1.0616525411605835,0.21318569779396057
1761316285969782300,12.7187822265625,1.1306782960891724,-1.5870575904846191,0.36162158846855164
1761316285988704500,12.73770458984375,1.0836430788040161,-1.5284161567687988,0.6474980711936951
1761316286007627000,12.756626953125,0.8710681796073914,-1.1318999528884888,1.1795459985733032
1761316286026549200,12.77554931640625,0.6169557571411133,-0.726908266544342,1.7550405263900757
1761316286045471500,12.794471435546875,0.7342383861541748,-0.10323318839073181,2.0830655097961426
1761316286064394000,12.81339404296875,1.0146173238754272,0.31092125177383423,2.1545345783233643
1761316286083316200,12.832316162109375,1.1581664085388184,0.22784602642059326,2.1062777042388916
1761316286102238700,12.85123876953125,1.0042328834533691,-0.32252734899520874,1.7923022508621216
1761316286121161000,12.870160888671874,0.7690566778182983,-0.517998456954956,1.2723948955535889
1761316286140083200,12.889083251953124,0.739736020565033,-0.8002098798751831,0.837471604347229
1761316286159005700,12.908005615234375,0.781884491443634,-1.1349542140960693,0.652384877204895
1761316286177928000,12.926927978515625,0.6872031688690186,-1.2840009927749634,0.5088357925415039
1761316286196850200,12.94585009765625,0.5613686442375183,-1.2601778507232666,0.37078428268432617
1761316286215772700,12.964772705078126,0.5051707029342651,-1.0781453847885132,0.3029802441596985
1761316286234695000,12.98369482421875,0.5351021885871887,-0.8869501948356628,0.24006296694278717
1761316286253617200,13.0026171875,0.46851983666419983,-0.8380824327468872,0.13316470384597778
1761316286272539600,13.02153955078125,0.25594499707221985,-0.7568397521972656,0.054365407675504684
1761316286291462000,13.0404619140625,-0.020157959312200546,-0.7617265582084656,-0.10262233763933182
1761316286310384000,13.059384033203125,-0.16859383881092072,-0.8985562920570374,-0.32252734899520874
1761316286329306600,13.078306640625,-0.2113531529903412,-0.9498674869537354,-0.5070032477378845
1761316286348228900,13.097228759765626,-0.2480039894580841,-0.7696675658226013,-0.5595360994338989
1761316286367151400,13.1161513671875,-0.2901524603366852,-0.49051034450531006,-0.4703523814678192
1761316286386073600,13.135073486328125,-0.2522799074649811,-0.20280128717422485,-0.3268032968044281
1761316286404995800,13.153995849609375,-0.15026842057704926,0.04581354558467865,-0.22601348161697388
1761316286423918300,13.17291845703125,-0.10140064358711243,0.18936264514923096,-0.22051586210727692
1761316286442840600,13.191840576171876,-0.09590301662683487,0.13988402485847473,-0.3432961702346802
1761316286461762800,13.2107626953125,-0.06169557198882103,-0.11361759155988693,-0.5723638534545898
1761316286480685300,13.229685302734374,-0.020157959312200546,-0.47768256068229675,-0.7928797602653503
1761316286499607600,13.248607666015625,0.0653606578707695,-0.8008207678794861,-0.9132166504859924
1761316286518529800,13.26752978515625,0.2235700935125351,-0.8276980519294739,-0.9419264793395996
1761316286537452300,13.286452392578125,0.3536805510520935,-0.6829272508621216,-0.8435800671577454
1761316286556374500,13.30537451171875,0.41476529836654663,-0.4172086715698242,-0.6310052275657654
1761316286575296800,13.324296875,0.4318690001964569,-0.08735115826129913,-0.41415444016456604
1761316286594219300,13.34321923828125,0.4459185004234314,0.08429691940546036,-0.27060532569885254
1761316286613141500,13.3621416015625,0.4886777997016907,0.0018325417768210173,-0.22540263831615448
1761316286632063700,13.381063720703125,0.550373375415802,-0.24556060135364532,-0.3512371778488159
1761316286650986200,13.399986328125,0.446529358625412,-0.660936713218689,-0.14171656966209412
1761316286669908500,13.418908447265625,0.4178195297718048,-0.7537854909896851,0.4074351191520691
1761316286688830700,13.437830810546876,0.4471401870250702,-0.5308262705802917,0.5302154421806335
1761316286707753200,13.456753173828124,0.42453885078430176,-0.12583453953266144,0.004275931045413017
1761316286726675500,13.475675537109375,0.10017894953489304,-0.2351761907339096,-0.49234288930892944
1761316286745597700,13.49459765625,-0.0922379344701767,-0.2516690790653229,-0.8582404255867004
1761316286764520200,13.513520263671875,0.2241809368133545,-0.07574506103992462,-0.8637380003929138
1761316286783442400,13.5324423828125,0.4324798583984375,-0.2901524603366852,-0.4691306948661804
1761316286802365000,13.551364990234376,0.2602209448814392,-0.469741553068161,-0.21440738439559937
1761316286830748400,13.57974853515625,0.10017894953489304,-0.6694886088371277,-0.46546560525894165
1761316286849670700,13.598670654296875,0.05497625470161438,-0.6743753552436829,-0.4844018816947937
1761316286868593000,13.617593017578125,0.07391251623630524,-0.5717530250549316,-0.25472331047058105
1761316286887515400,13.636515380859375,0.16370706260204315,-0.5283828973770142,-0.13560809195041656
1761316286906437600,13.655437744140626,0.2632751762866974,-0.5173876285552979,-0.2522799074649811
1761316286925359900,13.67435986328125,0.2852656841278076,-0.4324798583984375,-0.4190412163734436
1761316286944282400,13.693282470703124,0.24128466844558716,-0.342074453830719,-0.45263782143592834
1761316286963204600,13.71220458984375,0.21196399629116058,-0.23212195932865143,-0.28404396772384644
1761316286982126800,13.731126953125,0.17653486132621765,-0.1459924876689911,-0.026877280324697495
1761316287001049300,13.75004931640625,0.17225892841815948,-0.08674030750989914,0.07452336698770523
1761316287019971600,13.7689716796875,0.16859383881092072,-0.02748812735080719,0.014049487188458443
1761316287038893800,13.787893798828126,0.11239589750766754,-0.05986303091049194,-0.08429691940546036
1761316287057816300,13.80681640625,0.07330167293548584,-0.1844758689403534,-0.1178935244679451
1761316287076738600,13.825738525390625,0.042759306728839874,-0.2345653474330902,-0.14171656966209412
1761316287095660800,13.844660888671875,0.014660334214568138,-0.2229592502117157,-0.16248537600040436
1761316287114583300,13.863583251953125,0.012216945178806782,-0.182643324136734,-0.1453816443681717
1761316287133505500,13.882505615234376,0.021990500390529633,-0.14110571146011353,-0.10140064358711243
1761316287152427800,13.901427734375,0.024433890357613564,-0.08551861345767975,-0.05925218388438225
1761316287171350300,13.920350341796874,0.006719320081174374,-0.03665083646774292,-0.013438640162348747
1761316287190272500,13.9392724609375,0.0030542362947016954,0.018936265259981155,0.007941014133393764
1761316287209194800,13.95819482421875,-0.0018325417768210173,0.04153761267662048,-0.006719320081174374
1761316287228117200,13.9771171875,-0.015271181240677834,0.02870982140302658,-0.01832541823387146
1761316287247039500,13.99603955078125,0,0.055587101727724075,-0.013438640162348747
1761316287265962000,14.0149619140625,0.0036650835536420345,0.05864133685827255,-0.020157959312200546
1761316287284884200,14.03388427734375,-0.00916270911693573,0.037261683493852615,-0.0390942245721817
1761316287303806500,14.052806396484375,-0.017714571207761765,0.023823043331503868,-0.05497625470161438
1761316287322729000,14.07172900390625,-0.020157959312200546,0.006719320081174374,-0.06719319522380829
1761316287341651200,14.090651123046875,-0.017714571207761765,-0.012827792204916477,-0.06780404597520828
1761316287360573400,14.109573486328125,-0.016492875292897224,0.00916270911693573,-0.05619794875383377
1761316287379496000,14.128495849609376,-0.02076880633831024,0.03298575058579445,-0.046424392610788345
1761316287398418200,14.147418212890624,-0.026877280324697495,0.05619794875383377,-0.02870982140302658
1761316287417340400,14.16634033203125,-0.023823043331503868,0.07085828483104706,-0.042759306728839874
1761316287436263000,14.185262939453125,-0.012216945178806782,0.04031591862440109,-0.053143709897994995
1761316287455185200,14.20418505859375,-0.0036650835536420345,0.02870982140302658,-0.038483377546072006
1761316287474107400,14.223107421875,-0.0036650835536420345,0.0390942245721817,-0.01038440316915512
1761316287493030000,14.24202978515625,-0.0024433890357613564,0.05131116881966591,0.0390942245721817
1761316287511952100,14.2609521484375,-0.005497625097632408,0.030542362481355667,0.1569877415895462
1761316287530874600,14.27987451171875,0.02076880633831024,0.006108472589403391,-0.04459185153245926
1761316287549796900,14.298796875,0.04031591862440109,-0.0653606578707695,-0.17836740612983704
1761316287568719000,14.317718994140625,0.07085828483104706,-0.0787992998957634,-0.05925218388438225
