time,seconds_elapsed,z,y,x
1761401197933112000,0.123112060546875,-0.45310497283935547,-0.0943450927734375,-0.9727565050125122
1761401197953277000,0.14327685546875,-0.37690162658691406,-0.3249422311782837,-0.7366355657577515
1761401197973431300,0.163431396484375,0.164825439453125,-0.879964292049408,-0.5317647457122803
1761401197993597700,0.18359765625,0.592524528503418,-1.3631449937820435,0.3913761377334595
1761401198013769700,0.203769775390625,0.7463960647583008,-1.6751898527145386,0.6271751523017883
1761401198033935000,0.22393505859375,1.0244922637939453,-1.5365192890167236,-0.677072286605835
1761401198054097000,0.244096923828125,0.2542390823364258,-0.9500271081924438,-0.37194737792015076
1761401198074253000,0.264253173828125,0.3843870162963867,-0.4204886257648468,-0.5629039406776428
1761401198094423800,0.284423828125,0.12474822998046875,-0.21328666806221008,-0.13123750686645508
1761401198114596600,0.3045966796875,-0.10150909423828125,-1.00322687625885,-0.32825642824172974
1761401198134755800,0.324755859375,-0.2377023696899414,0.7912517189979553,-0.13067889213562012
1761401198154928000,0.34492822265625,-0.974757194519043,1.305680274963379,-0.46568137407302856
1761401198175069700,0.365069580078125,-1.215653419494629,-0.24294936656951904,0.07026714086532593
1761401198195244300,0.385244384765625,0.08354663848876953,-1.8045227527618408,0.7982058525085449
1761401198215392800,0.405392822265625,0.3095283508300781,-1.0617687702178955,0.9767447710037231
1761401198235559000,0.425558837890625,-0.4068431854248047,-0.03391122817993164,1.710265040397644
1761401198255727600,0.4457275390625,-4.635262966156006,-1.146355152130127,0.8408731818199158
1761401198275891700,0.4658916015625,-7.250751495361328,-4.95734977722168,0.7201695442199707
1761401198296053500,0.486053466796875,-5.084714889526367,-7.0765767097473145,2.9367995262145996
1761401198316208600,0.506208740234375,-1.4024248123168945,-9.689865112304688,3.1913645267486572
1761401198336389000,0.52638916015625,3.0792627334594727,-8.54930305480957,1.3228811025619507
1761401198356523500,0.5465234375,5.892274856567383,-6.894743919372559,-0.0688231885433197
1761401198376688600,0.566688720703125,6.9344987869262695,-6.207272529602051,0.316593199968338
1761401198396861400,0.586861328125,7.625632286071777,-5.998208045959473,0.1318894624710083
1761401198417000200,0.607000244140625,8.691532135009766,-6.778264999389648,-0.6965284943580627
1761401198437187600,0.6271875,9.166557312011719,-7.969692230224609,-1.1498829126358032
1761401198457346300,0.64734619140625,8.833735466003418,-8.753643035888672,-0.7859060764312744
1761401198477486300,0.667486328125,8.190139770507812,-8.268142700195312,-0.44240230321884155
1761401198497674000,0.687674072265625,7.995112895965576,-7.193347930908203,-0.2035212218761444
1761401198517833200,0.707833251953125,8.579255104064941,-6.551115989685059,-0.906734824180603
1761401198537982000,0.72798193359375,8.995159149169922,-6.011275291442871,-0.5505998134613037
1761401198558159400,0.748159423828125,7.523815631866455,-3.7769832611083984,0.03063756227493286
1761401198578319400,0.7683193359375,6.342296123504639,-1.8881521224975586,0.23538905382156372
1761401198598486500,0.788486572265625,4.971800804138184,0.16787147521972656,-0.6012470722198486
1761401198618633000,0.808633056640625,1.7858924865722656,0.8946399688720703,-1.5796008110046387
1761401198638805500,0.828805419921875,-0.8941383361816406,0.43184566497802734,-3.0545334815979004
1761401198658952200,0.8489521484375,-3.5314438343048096,1.2510757446289062,-3.289055824279785
1761401198679118600,0.86911865234375,-6.1692399978637695,1.9791412353515625,-3.1323838233947754
1761401198699293400,0.88929345703125,-8.38529109954834,1.5298871994018555,-2.6468868255615234
1761401198719442400,0.9094423828125,-10.557319641113281,0.8777499198913574,-3.4559106826782227
1761401198739604500,0.9296044921875,-11.041637420654297,-1.0039513111114502,-4.6643829345703125
1761401198759770600,0.9497705078125,-11.521183967590332,-2.284332752227783,-4.766916275024414
1761401198779941600,0.969941650390625,-11.989023208618164,-3.2474353313446045,-4.1484246253967285
1761401198800105200,0.990105224609375,-12.083136558532715,-3.695194721221924,-3.6987318992614746
1761401198820265000,1.010264892578125,-12.593832969665527,-3.5046515464782715,-2.8206353187561035
1761401198840401400,1.0304013671875,-14.097957611083984,-2.2063276767730713,-1.9973859786987305
1761401198860579000,1.0505791015625,-16.094036102294922,-1.4486002922058105,-1.3273279666900635
1761401198880751600,1.070751708984375,-16.162193298339844,-2.5659148693084717,-2.4702048301696777
1761401198900909300,1.090909423828125,-14.480419158935547,-2.96647310256958,-2.2675108909606934
1761401198921073000,1.111072998046875,-11.713325500488281,-4.315729141235352,-2.538485050201416
1761401198941213200,1.131213134765625,-9.342927932739258,-5.441380977630615,-3.0838537216186523
1761401198961395500,1.1513955078125,-6.945018291473389,-6.242395877838135,-3.4360768795013428
1761401198981535700,1.17153564453125,-5.199315071105957,-7.471188068389893,-4.26389217376709
1761401199001698300,1.1916982421875,-3.7117996215820312,-8.93372917175293,-4.98574161529541
1761401199021885200,1.21188525390625,-2.431401252746582,-9.66241455078125,-5.1833295822143555
1761401199042047000,1.232046875,-0.8011178970336914,-10.683463096618652,-5.571036338806152
1761401199062183700,1.25218359375,1.4108409881591797,-12.295344352722168,-5.433856010437012
1761401199082370800,1.272370849609375,4.046466827392578,-14.139111518859863,-5.642971038818359
1761401199102532600,1.29253271484375,5.9798479080200195,-15.947101593017578,-4.68221378326416
1761401199122664000,1.312663818359375,8.113565444946289,-17.601070404052734,-3.5885214805603027
1761401199142856700,1.332856689453125,10.970488548278809,-18.336410522460938,-2.573756694793701
1761401199162987500,1.352987548828125,14.195241928100586,-18.404170989990234,-1.440346360206604
1761401199183157000,1.373156982421875,17.557926177978516,-18.326332092285156,0.04394567012786865
1761401199203317200,1.393317138671875,20.053943634033203,-16.947555541992188,2.085435390472412
1761401199223459800,1.4134599609375,16.56983757019043,-12.584989547729492,4.383617401123047
1761401199243666700,1.433666748046875,10.762947082519531,-10.736272811889648,5.076015949249268
1761401199263829200,1.453829345703125,6.923460960388184,-11.112055778503418,3.483311891555786
1761401199283986700,1.473986572265625,3.7647600173950195,-11.587061882019043,2.1339738368988037
1761401199304142800,1.494142822265625,0.5490117073059082,-10.787059783935547,1.4878698587417603
1761401199324289300,1.514289306640625,-1.88262939453125,-8.183876037597656,1.205254077911377
1761401199344476400,1.534476318359375,-3.365525007247925,-4.406557083129883,0.4798583388328552
1761401199364632300,1.55463232421875,-3.879910469055176,-1.7866873741149902,-0.7438325881958008
1761401199384801000,1.574801025390625,-4.422513484954834,-0.8552169799804688,-2.540009021759033
1761401199404962300,1.59496240234375,-5.355315208435059,-1.657167911529541,-3.868194818496704
1761401199425103600,1.615103515625,-6.429714202880859,-2.3354625701904297,-4.780202388763428
1761401199445260500,1.635260498046875,-7.741998195648193,-2.909247398376465,-5.366269111633301
1761401199465448200,1.6554482421875,-8.677498817443848,-3.353666067123413,-5.261289119720459
1761401199485589500,1.675589599609375,-9.515419006347656,-3.31392765045166,-5.329281806945801
1761401199505747200,1.695747314453125,-10.177565574645996,-3.863570213317871,-5.475545883178711
1761401199525934600,1.7159345703125,-10.626116752624512,-4.292300224304199,-5.484129905700684
1761401199546070500,1.736070556640625,-10.860716819763184,-4.584676742553711,-5.178846836090088
1761401199566254000,1.756254150390625,-10.94841194152832,-4.819110870361328,-4.3378424644470215
1761401199586420700,1.776420654296875,-11.131482124328613,-4.984860420227051,-3.340056896209717
1761401199606582000,1.79658203125,-11.246965408325195,-5.2089996337890625,-2.252561330795288
1761401199626733600,1.816733642578125,-11.440001487731934,-5.3647027015686035,-1.1621184349060059
1761401199646906000,1.836906005859375,-11.539196014404297,-5.094053268432617,-0.8727207183837891
1761401199667068400,1.857068359375,-11.394838333129883,-4.898183345794678,-1.0508546829223633
1761401199687209500,1.87720947265625,-10.471414566040039,-5.238443374633789,-1.5967713594436646
1761401199707367200,1.8973671875,-9.244624137878418,-5.992086887359619,-2.530179500579834
1761401199727528400,1.917528564453125,-8.240266799926758,-6.538205146789551,-3.246973752975464
1761401199747689500,1.937689453125,-7.102777481079102,-7.209629058837891,-4.086764335632324
1761401199767879000,1.95787890625,-5.716259479522705,-8.644035339355469,-5.484580993652344
1761401199788038000,1.978037841796875,-4.064552307128906,-10.69286823272705,-6.272124290466309
1761401199808178000,1.998177978515625,-1.8384742736816406,-12.924236297607422,-6.398978233337402
1761401199828341800,2.018341796875,0.6064872741699219,-15.229199409484863,-6.5042195320129395
1761401199848526800,2.03852685546875,3.6968331336975098,-19.026493072509766,-5.845348358154297
1761401199868687600,2.0586875,7.911744117736816,-23.30078125,-5.182584762573242
1761401199888850700,2.0788505859375,16.235767364501953,-24.876224517822266,-4.093696594238281
1761401199909011700,2.09901171875,21.821643829345703,-21.698570251464844,-1.600433111190796
1761401199929174000,2.119174072265625,19.83306312561035,-15.597832679748535,2.6446914672851562
1761401199949336600,2.139336669921875,17.369487762451172,-12.45393180847168,5.077427864074707
1761401199969498000,2.159498046875,14.479442596435547,-13.101600646972656,5.010153770446777
1761401199989655800,2.17965576171875,9.01274299621582,-13.567403793334961,4.009850025177002
1761401200009795800,2.1997958984375,3.3598406314849854,-14.059747695922852,2.610323905944824
1761401200029958700,2.219958740234375,-0.7773916721343994,-12.722555160522461,0.6704210042953491
1761401200050113300,2.24011328125,-3.269382953643799,-10.722826957702637,-1.0632553100585938
1761401200070271000,2.26027099609375,-4.784156322479248,-8.626976013183594,-2.3851914405822754
1761401200090436600,2.2804365234375,-5.695525646209717,-6.29014778137207,-3.1088027954101562
1761401200110606800,2.30060693359375,-5.792626857757568,-4.076303958892822,-3.687753677368164
1761401200130794000,2.3207939453125,-5.177964210510254,-1.5049471855163574,-3.1851093769073486
1761401200150955300,2.340955322265625,-4.323025226593018,0.6211252212524414,-2.0419559478759766
1761401200171092000,2.361092041015625,-3.260659694671631,2.3888368606567383,-1.382981538772583
1761401200191279400,2.381279296875,-2.4201910495758057,4.082993507385254,-1.1274456977844238
1761401200211462700,2.401462646484375,-2.2624006271362305,5.404962062835693,-0.9141063690185547
1761401200231604200,2.421604248046875,-2.546504020690918,6.179995059967041,-1.0979557037353516
1761401200251765200,2.44176513671875,-2.999108076095581,6.463885307312012,-2.6318435668945312
1761401200271927600,2.461927490234375,-4.199854373931885,6.061503887176514,-4.373322010040283
1761401200292089000,2.482089111328125,-5.5286970138549805,5.739314556121826,-5.366616725921631
1761401200312226300,2.502226318359375,-6.617929458618164,5.230501651763916,-5.865911483764648
1761401200332413700,2.52241357421875,-7.595381736755371,3.913501739501953,-5.966878414154053
1761401200352575200,2.5425751953125,-8.825090408325195,2.6833536624908447,-5.382713794708252
1761401200372733000,2.56273291015625,-10.016796112060547,1.5303062200546265,-4.733888149261475
1761401200392899000,2.582899169921875,-11.007552146911621,-0.12315821647644043,-3.9667868614196777
1761401200413036000,2.6030361328125,-12.007047653198242,-2.2762229442596436,-3.645519733428955
1761401200433223200,2.62322314453125,-13.310726165771484,-4.1989006996154785,-3.552457809448242
1761401200453384700,2.643384765625,-14.565088272094727,-5.483458995819092,-3.593878746032715
1761401200473521700,2.663521728515625,-16.28896141052246,-6.595084190368652,-4.192662239074707
1761401200493709000,2.683708984375,-16.871376037597656,-7.8062286376953125,-3.7662904262542725
1761401200513868500,2.70386865234375,-16.248390197753906,-7.462330341339111,-4.531098365783691
1761401200534033000,2.724032958984375,-12.860249519348145,-9.479687690734863,-6.510919570922852
1761401200554194700,2.744194580078125,-7.434814929962158,-13.075684547424316,-9.015052795410156
1761401200574345000,2.764344970703125,-1.1730833053588867,-18.904088973999023,-9.29718017578125
1761401200594506200,2.78450634765625,6.156595230102539,-25.878555297851562,-7.280485153198242
1761401200614668300,2.804668212890625,16.987668991088867,-29.255552291870117,-3.476982355117798
1761401200634840600,2.824840576171875,27.0798397064209,-26.886476516723633,-1.4581758975982666
1761401200655004700,2.845004638671875,24.401954650878906,-18.303836822509766,-1.3174768686294556
1761401200675154200,2.865154296875,23.484060287475586,-17.15537452697754,-0.04548680782318115
1761401200695314200,2.885314208984375,25.13253402709961,-18.008098602294922,2.5536322593688965
1761401200715466000,2.905466064453125,21.99564552307129,-17.497068405151367,5.315085411071777
1761401200735651300,2.9256513671875,16.202606201171875,-17.270315170288086,5.952159881591797
1761401200755812900,2.945812744140625,11.154827117919922,-16.477703094482422,4.073996067047119
1761401200775964200,2.965964111328125,7.144440174102783,-15.170207977294922,2.0509512424468994
1761401200796126000,2.9861259765625,3.28718638420105,-13.21733283996582,0.8431127071380615
1761401200816275500,3.006275390625,-0.2579641342163086,-10.546781539916992,-0.26242291927337646
1761401200836457700,3.026457763671875,-2.819657802581787,-7.0609025955200195,-1.1439846754074097
1761401200856625000,3.046625,-4.3979716300964355,-3.7648143768310547,-1.1674869060516357
1761401200876784600,3.06678466796875,-5.34407901763916,-0.7827939987182617,-1.5368582010269165
1761401200896936700,3.086936767578125,-5.5530242919921875,1.3244237899780273,-1.8335078954696655
1761401200917111000,3.107111083984375,-4.934246063232422,2.4516983032226562,-2.043151378631592
1761401200937264600,3.1272646484375,-4.521378517150879,3.419968605041504,-2.276923179626465
1761401200957434600,3.1474345703125,-4.455101013183594,4.88883113861084,-2.939523458480835
1761401200977607200,3.167607177734375,-4.456960201263428,5.691447734832764,-3.9375903606414795
1761401200997759200,3.18775927734375,-4.6163649559021,6.1333699226379395,-4.52724552154541
1761401201017920300,3.207920166015625,-4.897733211517334,6.065634250640869,-4.718111991882324
1761401201038082800,3.228082763671875,-5.103697299957275,5.966300964355469,-5.576879024505615
1761401201058218000,3.248218017578125,-5.801501274108887,5.746884822845459,-6.853348255157471
1761401201078380500,3.268380615234375,-6.400334358215332,5.460659980773926,-7.598029613494873
1761401201098548000,3.2885478515625,-6.88162088394165,5.646049499511719,-7.417978286743164
1761401201118730500,3.30873046875,-7.316547393798828,6.249268531799316,-6.498356819152832
1761401201138890200,3.32889013671875,-7.70871114730835,6.634467601776123,-5.588244438171387
1761401201159042600,3.34904248046875,-7.905126571655273,6.45111608505249,-5.459683895111084
1761401201179203600,3.36920361328125,-7.807570934295654,5.712557315826416,-5.6118268966674805
1761401201199369700,3.38936962890625,-7.732041358947754,4.797646522521973,-5.326744079589844
1761401201219540500,3.40954052734375,-7.629414081573486,3.5703470706939697,-5.21445369720459
1761401201239702000,3.429701904296875,-7.782413005828857,1.4607709646224976,-5.728639125823975
1761401201259863800,3.44986376953125,-7.8492021560668945,-1.3255507946014404,-6.129654407501221
1761401201280013300,3.470013427734375,-8.096366882324219,-3.9555435180664062,-7.70599889755249
1761401201300189700,3.490189697265625,-8.343619346618652,-6.928623199462891,-9.896268844604492
1761401201320350500,3.5103505859375,-7.50686502456665,-9.036691665649414,-10.470638275146484
1761401201340512500,3.530512451171875,-3.6141223907470703,-12.308487892150879,-9.959127426147461
1761401201360672300,3.55067236328125,2.7973828315734863,-17.965309143066406,-6.643085479736328
1761401201380823300,3.5708232421875,9.38902759552002,-22.9023380279541,-2.8990049362182617
1761401201400983000,3.590983154296875,17.53032112121582,-24.583065032958984,0.11122727394104004
1761401201421160200,3.61116015625,24.287195205688477,-23.207477569580078,0.6883103847503662
1761401201441311000,3.63131103515625,24.135189056396484,-18.13563346862793,1.0991888046264648
1761401201461479700,3.651479736328125,20.184396743774414,-15.691373825073242,3.2736990451812744
1761401201481639700,3.6716396484375,17.8232364654541,-15.890008926391602,4.047249794006348
1761401201501807900,3.691807861328125,14.735082626342773,-15.167375564575195,3.246948719024658
1761401201521951700,3.71195166015625,11.178755760192871,-14.18069839477539,2.2550671100616455
1761401201542141400,3.732141357421875,7.885029315948486,-13.223470687866211,1.2661069631576538
1761401201562279700,3.75227978515625,4.865574836730957,-11.653307914733887,0.3992079496383667
1761401201582455600,3.77245556640625,2.73433256149292,-10.146283149719238,-0.15612734854221344
1761401201602606600,3.792606689453125,1.1755740642547607,-8.096246719360352,-0.594886064529419
1761401201622779400,3.812779296875,-0.42751455307006836,-5.073546409606934,-0.8831945657730103
1761401201642930200,3.83293017578125,-1.7424101829528809,-2.276858329772949,-1.1139780282974243
1761401201663091500,3.853091552734375,-2.742920398712158,0.29407596588134766,-1.0254032611846924
1761401201683265300,3.873265380859375,-3.1358087062835693,2.015578269958496,-0.5399329662322998
1761401201703427600,3.893427490234375,-3.441251277923584,2.3297858238220215,0.40657639503479004
1761401201723587600,3.913587646484375,-4.490840435028076,1.866600513458252,1.58015775680542
1761401201743729200,3.933729248046875,-5.7870259284973145,1.5194568634033203,0.8077526092529297
1761401201763904000,3.953904052734375,-6.5855631828308105,1.0522880554199219,-1.6975018978118896
1761401201784061000,3.97406103515625,-6.756242752075195,1.2165355682373047,-5.524701118469238
1761401201804224500,3.994224609375,-6.932461261749268,0.48805713653564453,-8.732854843139648
1761401201824399400,4.0143994140625,-7.389776229858398,0.12757134437561035,-11.149968147277832
1761401201844565500,4.0345654296875,-7.605442047119141,0.3862043619155884,-12.171669006347656
1761401201864723200,4.05472314453125,-7.538418769836426,0.4174538850784302,-12.25636100769043
1761401201884885000,4.074885009765625,-7.6014885902404785,0.4421890676021576,-11.676044464111328
1761401201905043200,4.095043212890625,-7.569322109222412,0.7091069221496582,-11.157089233398438
1761401201925193500,4.115193359375,-7.773169040679932,0.9269222617149353,-10.643128395080566
1761401201945356800,4.135356689453125,-8.062806129455566,1.0007375478744507,-10.011852264404297
1761401201965531100,4.15553125,-8.17837905883789,0.5360382199287415,-9.373152732849121
1761401201985682400,4.175682373046875,-8.422195434570312,-0.009757757186889648,-9.079875946044922
1761401202005857300,4.195857177734375,-8.58635139465332,-0.20114538073539734,-8.519371032714844
1761401202026013700,4.216013671875,-8.663875579833984,-0.4489316940307617,-7.996367454528809
1761401202046179300,4.236179443359375,-8.252998352050781,-1.0691910982131958,-7.561144828796387
1761401202066331000,4.256330810546875,-7.55057430267334,-2.4382948875427246,-7.279372692108154
1761401202086492400,4.276492431640625,-7.530728816986084,-3.850520133972168,-8.159296035766602
1761401202106654700,4.29665478515625,-6.691141128540039,-5.4265971183776855,-8.302546501159668
1761401202126818800,4.31681884765625,-4.425359725952148,-9.01212215423584,-8.078828811645508
1761401202146991000,4.3369912109375,-0.5796389579772949,-14.195799827575684,-7.235085964202881
1761401202167153000,4.35715283203125,4.735869884490967,-22.037473678588867,-7.06193733215332
1761401202187314400,4.377314453125,11.700756072998047,-25.00942611694336,-5.752012252807617
1761401202207477000,4.39747705078125,18.225378036499023,-24.9754638671875,-2.4030277729034424
1761401202227624200,4.417624267578125,22.297935485839844,-23.779911041259766,0.1355135440826416
1761401202247787500,4.43778759765625,21.97308921813965,-21.848814010620117,0.5596731901168823
1761401202267972000,4.45797216796875,21.24365234375,-19.93951416015625,1.9403307437896729
1761401202288122600,4.47812255859375,21.508359909057617,-17.178037643432617,4.228760719299316
1761401202308286700,4.49828662109375,19.527067184448242,-15.960163116455078,6.759563446044922
1761401202328444200,4.518444091796875,14.900012969970703,-15.6332426071167,5.133182048797607
1761401202348610800,4.53861083984375,9.663534164428711,-15.268577575683594,2.2407407760620117
1761401202368762600,4.5587626953125,5.168787956237793,-13.61164379119873,0.21280986070632935
1761401202388921900,4.578921875,2.772984743118286,-11.150076866149902,-1.4258244037628174
1761401202409085000,4.5990849609375,2.138190507888794,-8.797924041748047,-2.1799156665802
1761401202429258800,4.6192587890625,1.1268730163574219,-6.187400817871094,-2.881740093231201
1761401202449424600,4.639424560546875,-0.08391714096069336,-3.7358264923095703,-3.106893539428711
1761401202469583000,4.6595830078125,-1.1857185363769531,-0.8086719512939453,-1.8569998741149902
1761401202489744100,4.679744140625,-2.7839484214782715,-0.5487480163574219,-2.382693290710449
1761401202509880600,4.699880615234375,-4.583192825317383,-2.334296226501465,-3.641230821609497
1761401202530068200,4.720068115234375,-6.2829670906066895,-2.6697936058044434,-4.685420036315918
1761401202550226400,4.740226318359375,-7.649872303009033,-2.073672294616699,-5.886037826538086
1761401202570392300,4.760392333984375,-8.452909469604492,-1.6102440357208252,-6.910172462463379
1761401202590554000,4.78055419921875,-8.848776817321777,-1.2814967632293701,-7.44818115234375
1761401202610691000,4.800691162109375,-8.987907409667969,-1.0858244895935059,-7.946568965911865
1761401202630879200,4.820879150390625,-9.150882720947266,-0.8775811195373535,-8.361079216003418
1761401202651040000,4.8410400390625,-9.270519256591797,-0.8507928848266602,-8.60291576385498
1761401202671201800,4.861201904296875,-9.454727172851562,-0.584121823310852,-8.415515899658203
1761401202691364000,4.881364013671875,-9.715229034423828,-0.06692886352539062,-8.068045616149902
1761401202711526400,4.9015263671875,-9.894750595092773,0.39922964572906494,-7.512294769287109
1761401202731688700,4.921688720703125,-10.093757629394531,0.6392835378646851,-6.843163967132568
1761401202751849700,4.941849609375,-10.03344440460205,0.8535758256912231,-6.62677526473999
1761401202772012000,4.962011962890625,-9.808076858520508,0.8374383449554443,-6.702702045440674
1761401202792174600,4.982174560546875,-9.339188575744629,0.6319489479064941,-6.792552947998047
1761401202812336400,5.00233642578125,-8.85824966430664,0.2500114440917969,-7.441183090209961
1761401202832498000,5.022497802734375,-8.668883323669434,-0.4188041090965271,-8.0220308303833
1761401202852659700,5.04265966796875,-8.186653137207031,-0.6457637548446655,-8.25658893585205
1761401202872817400,5.0628173828125,-7.732098579406738,-0.8266668319702148,-8.176057815551758
1761401202892983800,5.08298388671875,-7.665090560913086,-1.1281460523605347,-7.911672115325928
1761401202913120500,5.10312060546875,-7.904402732849121,-1.3747217655181885,-7.1622090339660645
1761401202933295400,5.12329541015625,-8.266407012939453,-1.8794835805892944,-5.065352439880371
1761401202953460500,5.14346044921875,-9.283474922180176,-3.8330774307250977,-1.9469614028930664
1761401202973631500,5.163631591796875,-10.129678726196289,-8.04826831817627,-0.5665731430053711
1761401202993793500,5.18379345703125,-10.393232345581055,-15.031664848327637,-2.9869301319122314
1761401203013930200,5.20393017578125,-7.625856399536133,-25.314571380615234,-11.644107818603516
1761401203034104600,5.2241044921875,2.507824420928955,-39.4329948425293,-14.925640106201172
1761401203054279400,5.244279541015625,18.26119613647461,-51.36979293823242,-0.48316824436187744
1761401203074441200,5.264441162109375,31.21274185180664,-51.52011489868164,9.27609634399414
1761401203094590700,5.2845908203125,44.24149703979492,-40.511138916015625,13.309433937072754
1761401203114754000,5.304754150390625,43.653724670410156,-26.367300033569336,11.834246635437012
1761401203134906600,5.32490673828125,29.96930694580078,-17.52425765991211,16.723159790039062
1761401203155089200,5.345089111328125,21.149131774902344,-18.062301635742188,14.445511817932129
1761401203175251200,5.365251220703125,12.450311660766602,-19.34526252746582,8.893903732299805
1761401203195411200,5.3854111328125,4.938742160797119,-18.744930267333984,6.727816581726074
1761401203215551000,5.405551025390625,-0.7407989501953125,-16.42167854309082,4.14595365524292
1761401203235727000,5.42572705078125,-3.8252267837524414,-12.892278671264648,1.0621603727340698
1761401203255884500,5.445884521484375,-4.698902130126953,-9.783896446228027,-2.0171968936920166
1761401203276061000,5.46606103515625,-4.889339447021484,-5.538990020751953,-2.2780003547668457
1761401203296223000,5.486222900390625,-2.8873469829559326,-2.1346654891967773,-2.033112049102783
1761401203316359000,5.50635888671875,-0.4262053966522217,-1.2828178405761719,-1.2180975675582886
1761401203336546800,5.526546875,0.7356796264648438,0.33081722259521484,-0.907118558883667
1761401203356697900,5.54669775390625,1.1249561309814453,1.3629741668701172,-1.6926206350326538
1761401203376869000,5.566869140625,-0.27407407760620117,2.028916358947754,-2.9397335052490234
1761401203397016600,5.5870166015625,-2.035956621170044,2.7216625213623047,-4.160144329071045
1761401203417174300,5.60717431640625,-2.956354856491089,2.835176467895508,-5.080899238586426
1761401203437343700,5.62734375,-4.194021701812744,3.5679662227630615,-5.471033573150635
1761401203457519400,5.647519287109375,-4.957401752471924,2.2377166748046875,-3.3817405700683594
1761401203477672400,5.66767236328125,-5.523614883422852,4.011775970458984,-4.152944087982178
1761401203497843000,5.687843017578125,-6.147028923034668,4.479063510894775,-5.005565166473389
1761401203517979400,5.7079794921875,-6.679304122924805,3.8769304752349854,-4.388972759246826
1761401203538155000,5.728155029296875,-7.631677150726318,4.105442523956299,-4.164389610290527
1761401203558319600,5.748319580078125,-7.662731170654297,4.7118964195251465,-5.250962734222412
1761401203578477800,5.768477783203125,-7.183915615081787,5.381948947906494,-4.943159103393555
1761401203598653000,5.78865283203125,-6.460499286651611,5.946555137634277,-4.519552230834961
1761401203618814500,5.808814453125,-5.281794548034668,8.10119342803955,-4.468031883239746
1761401203638974500,5.828974365234375,-4.344152450561523,8.267290115356445,-3.45603609085083
1761401203659126300,5.849126220703125,-4.543896198272705,7.1684889793396,-2.177748680114746
1761401203679290400,5.869290283203125,-4.780371189117432,6.937108516693115,-2.2277097702026367
1761401203699460600,5.889460693359375,-5.019829750061035,6.312101364135742,-3.3619651794433594
1761401203719624200,5.909624267578125,-5.883021354675293,5.26968240737915,-3.9024453163146973
1761401203739773700,5.929773681640625,-8.22673225402832,4.585131645202637,-5.102710723876953
1761401203759946500,5.949946533203125,-9.156537055969238,2.7843544483184814,-6.803408622741699
1761401203780086800,5.970086669921875,-10.35330867767334,2.394390344619751,-6.082099914550781
1761401203800273200,5.990273193359375,-11.584650039672852,2.6362428665161133,-3.6864452362060547
1761401203820423000,6.0104228515625,-9.606500625610352,-0.5725171566009521,-4.355695724487305
1761401203840594200,6.03059423828125,-9.472246170043945,-5.433629989624023,-7.123517990112305
1761401203860747800,6.050747802734375,-11.276668548583984,-9.879819869995117,-11.813959121704102
1761401203880920600,6.070920654296875,-13.993701934814453,-16.335712432861328,-16.310626983642578
1761401203901062100,6.091062255859375,-11.961522102355957,-22.36823844909668,-17.196041107177734
1761401203921231400,6.1112314453125,2.488483428955078,-36.132530212402344,-11.052101135253906
1761401203941395200,6.131395263671875,21.633865356445312,-44.58987045288086,-0.07027900218963623
1761401203961564200,6.151564208984375,38.87120056152344,-37.704490661621094,7.948250770568848
1761401203981730000,6.17172998046875,46.331520080566406,-25.98502540588379,8.46817684173584
1761401204001879000,6.191879150390625,41.54033660888672,-18.97886085510254,6.432645320892334
1761401204022057000,6.212056884765625,34.11374282836914,-18.543888092041016,3.732874870300293
1761401204042216200,6.23221630859375,24.407649993896484,-19.095016479492188,3.570065498352051
1761401204062377700,6.252377685546875,15.320234298706055,-18.708297729492188,4.382845878601074
1761401204082538200,6.272538330078125,8.493412017822266,-17.562976837158203,3.8524467945098877
1761401204102689000,6.29268896484375,3.584296941757202,-14.137784957885742,3.1193981170654297
1761401204122838500,6.312838623046875,0.2647414207458496,-9.437573432922363,2.9483251571655273
1761401204143001000,6.3330009765625,-1.5708041191101074,-5.413623809814453,2.974322557449341
1761401204163171300,6.35317138671875,-2.497767686843872,-2.6804280281066895,3.005585193634033
1761401204183349800,6.373349853515625,-3.2251720428466797,-1.250558853149414,2.237438440322876
1761401204203511600,6.393511474609375,-4.008509159088135,-0.8986706733703613,0.4986687898635864
1761401204223665000,6.413664794921875,-4.5721611976623535,-0.2714352607727051,-1.535138726234436
1761401204243823600,6.43382373046875,-4.788251876831055,0.17789220809936523,-3.4457595348358154
1761401204263985200,6.453985107421875,-4.8790283203125,1.1670784950256348,-4.370594501495361
1761401204284157400,6.474157470703125,-4.80819034576416,1.7975459098815918,-4.642787933349609
1761401204304321300,6.4943212890625,-4.9725189208984375,3.2403972148895264,-4.009259223937988
1761401204324478200,6.514478271484375,-5.245250225067139,4.836010456085205,-3.196615695953369
1761401204344623600,6.53462353515625,-5.378573417663574,5.5122761726379395,-2.7343406677246094
1761401204364808000,6.554807861328125,-5.638119220733643,5.596518039703369,-2.3992414474487305
1761401204384969500,6.574969482421875,-6.1123833656311035,5.51883602142334,-2.2120399475097656
1761401204405129000,6.59512890625,-6.7429304122924805,5.458975791931152,-2.354341506958008
1761401204425287700,6.61528759765625,-7.2065043449401855,5.091133117675781,-2.9540674686431885
1761401204445429500,6.635429443359375,-7.60843563079834,4.657516002655029,-3.6510653495788574
1761401204465591800,6.655591796875,-7.942071914672852,4.2974700927734375,-4.27656888961792
1761401204485779500,6.675779541015625,-8.356189727783203,3.742840051651001,-4.716041564941406
1761401204505941000,6.69594091796875,-8.916072845458984,3.417423725128174,-4.8770833015441895
1761401204526090500,6.716090576171875,-9.142742156982422,2.5825650691986084,-4.777642250061035
1761401204546252300,6.736252197265625,-9.654038429260254,2.0306291580200195,-3.8251850605010986
1761401204566410800,6.75641064453125,-10.22520923614502,1.3318092823028564,-2.673215389251709
1761401204586589200,6.776589111328125,-10.496779441833496,0.42176926136016846,-1.5518474578857422
1761401204606748700,6.796748779296875,-10.86957836151123,-0.4699568748474121,-0.30046796798706055
1761401204626913000,6.8169130859375,-11.159433364868164,-1.824365258216858,1.3859000205993652
1761401204647076600,6.83707666015625,-11.34716796875,-3.6299047470092773,3.6033544540405273
1761401204667248400,6.857248291015625,-12.215717315673828,-6.943141937255859,4.934004783630371
1761401204687398700,6.877398681640625,-14.792814254760742,-13.395219802856445,0.9918016791343689
1761401204707528000,6.89752783203125,-18.049198150634766,-17.34252166748047,-12.5609769821167
1761401204727723000,6.917722900390625,-13.82798957824707,-23.799251556396484,-24.36066436767578
1761401204747884800,6.937884765625,2.0208826065063477,-43.05477523803711,-17.007923126220703
1761401204768050700,6.95805078125,20.020095825195312,-55.237335205078125,2.317934513092041
1761401204788194300,6.9781943359375,42.3257942199707,-47.505470275878906,16.113462448120117
1761401204808358100,6.998358154296875,52.00434875488281,-25.868221282958984,11.478060722351074
1761401204828533000,7.018532958984375,39.691471099853516,-15.608436584472656,1.0976016521453857
1761401204848692200,7.038692138671875,32.31850051879883,-13.838759422302246,-2.4058589935302734
1761401204868856800,7.05885693359375,23.241365432739258,-15.849573135375977,2.5133543014526367
1761401204889005600,7.079005615234375,11.689345359802246,-18.236574172973633,4.704559326171875
1761401204909155000,7.099155029296875,3.5841405391693115,-18.131912231445312,2.400538921356201
1761401204929342700,7.1193427734375,-0.9036135673522949,-15.905022621154785,-1.2983213663101196
1761401204949480000,7.13947998046875,-2.520059585571289,-12.120895385742188,-2.8224008083343506
1761401204969647400,7.1596474609375,-2.671881675720215,-7.463024139404297,-2.5042548179626465
1761401204989828000,7.179828125,-2.1329360008239746,-4.106365203857422,-0.4248797297477722
1761401205009979000,7.199978759765625,-1.930950403213501,-1.9114294052124023,1.4970951080322266
1761401205030139100,7.22013916015625,-2.1915125846862793,-0.2907581329345703,2.3110108375549316
1761401205050310100,7.24031005859375,-3.141483783721924,0.47954559326171875,2.0286030769348145
1761401205070476500,7.2604765625,-4.953827857971191,1.4338140487670898,1.0595645904541016
1761401205090625300,7.280625244140625,-6.454839706420898,2.215035915374756,0.01204228401184082
1761401205110796300,7.30079638671875,-7.391594886779785,3.002495288848877,-0.6579161286354065
1761401205130962200,7.320962158203125,-7.589920520782471,3.660038948059082,-1.5369632244110107
1761401205151098400,7.341098388671875,-7.38264274597168,3.7202229499816895,-2.3286025524139404
1761401205171281700,7.36128173828125,-7.145016193389893,3.7550406455993652,-3.2856414318084717
1761401205191447600,7.381447509765625,-6.944452285766602,4.402640342712402,-4.309375286102295
1761401205211609900,7.40160986328125,-6.563595771789551,4.78299617767334,-4.684521675109863
1761401205231772000,7.42177197265625,-5.940392971038818,5.149533271789551,-4.442282199859619
1761401205251934000,7.441933837890625,-5.346913814544678,5.870597839355469,-3.85600209236145
1761401205272089600,7.462089599609375,-4.557881832122803,6.289358139038086,-3.5194387435913086
1761401205292241700,7.48224169921875,-3.5815000534057617,6.7656683921813965,-3.521955966949463
1761401205312419600,7.502419677734375,-2.6732330322265625,7.534571647644043,-3.3166823387145996
1761401205332568600,7.522568603515625,-1.7940454483032227,8.194128036499023,-2.958801746368408
1761401205352742000,7.542741943359375,-1.1449439525604248,8.683399200439453,-2.494870901107788
1761401205372905200,7.5629052734375,-0.6139416694641113,8.686986923217773,-2.3538551330566406
1761401205393065700,7.583065673828125,-1.6974306106567383,9.118284225463867,-2.5548102855682373
1761401205413217000,7.603217041015625,-3.1046805381774902,9.38976001739502,-2.240910291671753
1761401205433389600,7.6233896484375,-4.4563212394714355,9.110368728637695,-2.1872804164886475
1761401205453553200,7.64355322265625,-5.767892837524414,8.172703742980957,-2.610884428024292
1761401205473712000,7.663712158203125,-6.811276435852051,6.344625473022461,-2.681994915008545
1761401205493875500,7.68387548828125,-7.594261646270752,2.620920181274414,-2.7287368774414062
1761401205514037200,7.704037353515625,-8.485421180725098,-3.574469566345215,-3.820871353149414
1761401205534188300,7.724188232421875,-9.76761245727539,-11.841968536376953,-8.407081604003906
1761401205554363000,7.74436279296875,-13.14631462097168,-15.169292449951172,-13.846162796020508
1761401205574525000,7.76452490234375,-11.89504623413086,-16.502294540405273,-14.16383171081543
1761401205594689300,7.784689208984375,1.6463570594787598,-27.930604934692383,-9.17863655090332
1761401205614849000,7.80484912109375,18.430391311645508,-37.85712432861328,-4.19413423538208
1761401205635010800,7.8250107421875,37.132938385009766,-39.01266860961914,-4.119560241699219
1761401205655168300,7.845168212890625,43.66867446899414,-24.186351776123047,0.8575739860534668
1761401205675321900,7.86532177734375,33.26295852661133,-10.443315505981445,7.8744096755981445
1761401205695495200,7.8854951171875,27.910648345947266,-11.549964904785156,4.647351264953613
1761401205715654000,7.90565380859375,20.8839168548584,-15.991738319396973,1.997704267501831
1761401205735820800,7.92582080078125,12.37586784362793,-18.345504760742188,2.3083109855651855
1761401205755980500,7.94598046875,6.810847282409668,-18.443683624267578,1.1822865009307861
1761401205776144400,7.966144287109375,3.248229503631592,-15.631632804870605,-0.4045747220516205
1761401205796279300,7.986279296875,1.1563115119934082,-11.622106552124023,-2.106564521789551
1761401205816456400,8.00645654296875,0.22326898574829102,-7.457389831542969,-2.997283697128296
1761401205836630300,8.02663037109375,0.315457820892334,-4.180553436279297,-2.222108840942383
1761401205856772400,8.0467724609375,0.39246082305908203,-2.1529412269592285,-1.486352801322937
1761401205876955000,8.066954833984376,-0.3843255043029785,-1.3113274574279785,-1.4013421535491943
1761401205897104000,8.087103759765625,-2.56524658203125,-0.6603388786315918,-1.3727412223815918
1761401205917278200,8.1072783203125,-5.285429954528809,-0.37138891220092773,-1.3580145835876465
1761401205937438000,8.12743798828125,-7.240276336669922,-0.9573478698730469,-1.9597097635269165
1761401205957590000,8.147590087890626,-8.746622085571289,-1.7533082962036133,-1.881961703300476
1761401205977739300,8.1677392578125,-10.144160270690918,-2.143585205078125,-1.3047926425933838
1761401205997926100,8.187926025390626,-10.397392272949219,-1.1737093925476074,-1.8044878244400024
1761401206018076000,8.208075927734376,-9.861517906188965,-0.9372366070747375,-2.4773757457733154
1761401206038225000,8.228224853515625,-9.239029884338379,-1.230056643486023,-2.033865451812744
1761401206058408000,8.248407958984375,-9.201013565063477,-1.1371707916259766,-2.88925838470459
1761401206078562300,8.268562255859376,-9.544841766357422,-1.273667335510254,-4.175439834594727
1761401206098735600,8.288735595703125,-9.72471809387207,-1.643248438835144,-3.4223251342773438
1761401206118896000,8.308896240234375,-9.864115715026855,-2.187932014465332,-1.3093833923339844
1761401206139060000,8.32906005859375,-10.314906120300293,-2.2210206985473633,1.195148229598999
1761401206159197000,8.349197021484375,-12.390039443969727,-1.1487078666687012,3.3734474182128906
1761401206179370800,8.369370849609375,-15.09672737121582,-0.12625646591186523,3.089165687561035
1761401206199531500,8.389531494140625,-12.237503051757812,-3.383319616317749,1.3952069282531738
1761401206219708000,8.4097080078125,-10.33847427368164,-5.438050746917725,0.05534791946411133
1761401206239852800,8.429852783203126,-10.522656440734863,-5.807544231414795,-0.3917351961135864
1761401206260029400,8.450029541015626,-10.377727508544922,-6.274509906768799,-0.5924326181411743
1761401206280193800,8.47019384765625,-10.165876388549805,-6.799208641052246,-0.6063971519470215
1761401206300355300,8.490355224609376,-10.296855926513672,-7.000317096710205,-1.3778349161148071
1761401206320489500,8.510489501953124,-10.361405372619629,-7.067687511444092,-2.5205628871917725
1761401206340683300,8.530683349609374,-9.914468765258789,-7.152091979980469,-4.5323591232299805
1761401206360819000,8.55081884765625,-7.693855285644531,-8.092506408691406,-7.002184867858887
1761401206381012700,8.5710126953125,-2.409417152404785,-9.735188484191895,-9.57530403137207
1761401206401143000,8.59114306640625,5.6057844161987305,-12.346841812133789,-11.579349517822266
1761401206421309200,8.61130908203125,11.09973430633545,-10.252141952514648,-9.312583923339844
1761401206441476400,8.631476318359375,16.729171752929688,-7.9260945320129395,-6.189805030822754
1761401206461639000,8.651638916015624,22.47307586669922,-9.06662368774414,-5.681125164031982
1761401206481800700,8.67180078125,25.511823654174805,-11.422259330749512,-5.6679463386535645
1761401206501975000,8.69197509765625,28.377676010131836,-15.403970718383789,-6.68126106262207
1761401206522124800,8.712124755859374,29.942232131958008,-17.110347747802734,-6.031628131866455
1761401206542286600,8.73228662109375,23.556499481201172,-12.001936912536621,-0.6712751388549805
1761401206562461000,8.7524609375,17.974706649780273,-11.045766830444336,-0.0174560546875
1761401206582621200,8.77262109375,13.714653968811035,-11.913132667541504,-1.8782758712768555
1761401206602772000,8.79277197265625,9.990978240966797,-12.150238990783691,-3.389422655105591
1761401206622946800,8.81294677734375,7.38475227355957,-10.585363388061523,-3.4403491020202637
1761401206643106800,8.83310693359375,4.463834285736084,-7.2983078956604,-2.180086374282837
1761401206663259400,8.85325927734375,3.0555877685546875,-4.581830978393555,-1.586207389831543
1761401206683420000,8.873419921875,2.0395851135253906,-2.4448089599609375,-1.3949010372161865
1761401206703595300,8.89359521484375,1.3698511123657227,-1.3712430000305176,-1.1155050992965698
1761401206723746000,8.91374609375,0.8029928207397461,-0.6415524482727051,-1.2603260278701782
1761401206743885300,8.93388525390625,-0.2800631523132324,0.43968629837036133,-1.1936860084533691
1761401206764083000,8.9540830078125,-1.4316930770874023,1.0935215950012207,-1.6574679613113403
1761401206784232200,8.974232177734375,-2.5476675033569336,1.3306994438171387,-2.162569999694824
1761401206804404700,8.99440478515625,-4.282904624938965,1.3893141746520996,-2.6289515495300293
1761401206824558600,9.01455859375,-5.891227722167969,1.6634504795074463,-3.727126359939575
1761401206844727000,9.03472705078125,-7.6474761962890625,0.8188571929931641,-4.8154144287109375
1761401206864878800,9.05487890625,-9.554569244384766,-0.677189826965332,-4.246133804321289
1761401206885053000,9.075052978515625,-10.188053131103516,0.11897706985473633,-2.6498873233795166
1761401206905218300,9.09521826171875,-9.918622970581055,1.9029040336608887,-1.5214176177978516
1761401206925373000,9.115373046875,-9.320356369018555,2.819688081741333,-1.0894445180892944
1761401206945520400,9.135520263671875,-8.766996383666992,2.8891448974609375,-1.9959216117858887
1761401206965697300,9.155697265625,-7.8573384284973145,2.48771333694458,-3.415123224258423
1761401206985843000,9.175843017578124,-6.987443923950195,2.7160134315490723,-4.214132785797119
1761401207006024000,9.19602392578125,-6.224798679351807,3.358410596847534,-4.295206069946289
1761401207026184400,9.216184326171875,-5.654960632324219,2.8887572288513184,-4.388934135437012
1761401207046336000,9.2363359375,-5.488285064697266,2.0656144618988037,-4.804718971252441
1761401207066497300,9.256497314453124,-4.548253059387207,2.4196808338165283,-4.002227306365967
1761401207086670300,9.27667041015625,-3.9214982986450195,3.42712664604187,-2.3353562355041504
1761401207106830800,9.296830810546876,-3.2075042724609375,4.798818588256836,-0.4519779682159424
1761401207126996500,9.31699658203125,-0.5329642295837402,4.928386688232422,1.6497918367385864
1761401207147170300,9.33717041015625,-0.6883044242858887,4.340075492858887,5.0867156982421875
1761401207167294500,9.35729443359375,-4.425051689147949,5.6896185874938965,9.04050350189209
1761401207187456500,9.37745654296875,-8.563178062438965,5.375513076782227,9.071337699890137
1761401207207618000,9.3976181640625,-10.121216773986816,2.878405809402466,6.6598896980285645
1761401207227806000,9.417805908203125,-11.057909965515137,-1.3443752527236938,2.9955196380615234
1761401207247967500,9.437967529296875,-11.079265594482422,-7.277698040008545,-1.6909728050231934
1761401207268138500,9.458138427734376,-12.293033599853516,-15.323432922363281,-6.877581596374512
1761401207288278800,9.47827880859375,-17.604557037353516,-17.517414093017578,-13.752753257751465
1761401207308453000,9.498453125,-20.20431900024414,-14.712597846984863,-21.901857376098633
1761401207328603000,9.518602783203125,-5.528792381286621,-27.273906707763672,-20.45747184753418
1761401207348769300,9.538769287109375,18.042692184448242,-40.535709381103516,-5.891241073608398
1761401207368926700,9.5589267578125,33.63004684448242,-36.63145446777344,4.250984191894531
1761401207389110300,9.5791103515625,50.239524841308594,-26.963764190673828,-0.06891262531280518
1761401207409248800,9.599248779296875,41.23748779296875,-13.067005157470703,1.0720183849334717
1761401207429425700,9.61942578125,34.291893005371094,-14.188014030456543,-2.5239076614379883
1761401207449583400,9.639583251953125,22.745145797729492,-16.437641143798828,0.7810099124908447
1761401207469738500,9.659738525390624,13.244181632995605,-16.354379653930664,3.7012290954589844
1761401207489898800,9.679898681640625,6.455697059631348,-13.885215759277344,2.473109722137451
1761401207510060800,9.700060791015625,2.0227932929992676,-10.803646087646484,-0.8572862148284912
1761401207530235000,9.72023486328125,-0.2022838592529297,-7.502843856811523,-3.0628480911254883
1761401207550371300,9.740371337890625,-0.42883920669555664,-4.603267192840576,-2.8918142318725586
1761401207570559000,9.76055908203125,-0.024963855743408203,-2.496194839477539,-2.358106851577759
1761401207590721000,9.780720947265625,0.17327594757080078,-0.9365811347961426,-2.2994441986083984
1761401207610857500,9.800857421875,0.16997098922729492,-0.038666725158691406,-2.810626268386841
1761401207631046000,9.8210458984375,-0.26688671112060547,1.0249619483947754,-2.983079671859741
1761401207651207000,9.84120703125,-0.19439125061035156,2.293351173400879,-3.117154121398926
1761401207671364900,9.86136474609375,-0.5644016265869141,4.577722549438477,-1.6177741289138794
1761401207691531000,9.881531005859374,-0.44275999069213867,4.392027854919434,-0.893979012966156
1761401207711692500,9.901692626953125,-0.5860910415649414,3.525974750518799,-1.138400912284851
1761401207731850500,9.9218505859375,-1.1535959243774414,4.474845886230469,-2.7385215759277344
1761401207752016600,9.9420166015625,-1.7256755828857422,4.418683052062988,-3.5345706939697266
1761401207772178700,9.9621787109375,-2.0884413719177246,4.201526165008545,-3.285439968109131
1761401207792340500,9.982340576171875,-2.977271318435669,5.3943023681640625,-1.2142024040222168
1761401207812502300,10.002502197265626,-3.461911916732788,5.7326507568359375,-0.16938447952270508
1761401207832638700,10.022638671875,-3.6995906829833984,5.761523246765137,-0.16747546195983887
1761401207852826000,10.042826171875,-4.177603721618652,5.465221405029297,-0.7468464374542236
1761401207872989000,10.062989013671874,-4.808911323547363,5.564236640930176,-1.5040743350982666
1761401207893150500,10.083150390625,-5.337277889251709,5.767406940460205,-2.240886688232422
1761401207913312800,10.103312744140625,-6.064947128295898,5.519642353057861,-2.7422444820404053
1761401207933448400,10.123448486328124,-6.73582649230957,5.09514856338501,-3.2209818363189697
1761401207953635800,10.1436357421875,-7.307524681091309,4.093873977661133,-3.7058348655700684
1761401207973798000,10.1637978515625,-7.904430389404297,2.8448476791381836,-3.7215795516967773
1761401207993956000,10.1839560546875,-9.046338081359863,1.836733341217041,-4.3385844230651855
1761401208014122500,10.20412255859375,-10.203228950500488,0.3853764533996582,-3.9873411655426025
1761401208034283800,10.22428369140625,-11.999565124511719,-2.118607759475708,-2.289496421813965
1761401208054420700,10.244420654296874,-13.894525527954102,-3.4688329696655273,-0.046958208084106445
1761401208074607900,10.26460791015625,-15.373851776123047,-1.944744348526001,-1.4941813945770264
1761401208094769400,10.284769287109375,-15.12092399597168,-4.165326118469238,-5.22607421875
1761401208114932200,10.30493212890625,-14.817025184631348,-9.211423873901367,-9.710965156555176
1761401208135094300,10.32509423828125,-12.795368194580078,-13.41627025604248,-14.135796546936035
1761401208155255800,10.345255859375,-6.949343204498291,-20.177265167236328,-16.470243453979492
1761401208175417600,10.36541748046875,1.9149279594421387,-29.546308517456055,-16.55885124206543
1761401208195554300,10.38555419921875,14.273736000061035,-35.92020797729492,-10.151869773864746
1761401208215716400,10.40571630859375,26.56734275817871,-33.34166717529297,-3.8243958950042725
1761401208235903700,10.42590380859375,40.845821380615234,-28.037906646728516,-2.305361747741699
1761401208256065300,10.446065185546875,38.5277099609375,-17.78803825378418,3.5016210079193115
1761401208276226600,10.4662265625,30.300687789916992,-16.98113250732422,3.686715602874756
1761401208296390100,10.48639013671875,20.426183700561523,-20.176374435424805,1.5754234790802002
1761401208316552000,10.506552001953125,10.383209228515625,-21.22732162475586,1.2499767541885376
1761401208336713200,10.526713134765625,3.857343912124634,-17.412353515625,0.22864580154418945
1761401208356875300,10.546875244140624,0.688737154006958,-13.46493148803711,-1.249725103378296
1761401208377036800,10.567036865234375,-0.7480759620666504,-9.618943214416504,-2.10890793800354
1761401208397174300,10.58717431640625,-0.47086310386657715,-5.912565231323242,-1.6160526275634766
1761401208417361000,10.60736083984375,-0.14148664474487305,-3.3906679153442383,-0.614159107208252
1761401208437523000,10.62752294921875,-0.6857218742370605,-1.2451763153076172,0.7429952025413513
1761401208457665300,10.647665283203125,-1.3052330017089844,0.1018533706665039,0.909949541091919
1761401208477847000,10.667846923828124,-1.6856517791748047,1.0591983795166016,0.1595352739095688
1761401208498007800,10.6880078125,-1.9282574653625488,1.4687795639038086,-0.9247890114784241
1761401208518169900,10.708169921875,-2.4154958724975586,2.186445713043213,-1.83402419090271
1761401208538308000,10.72830810546875,-2.823835849761963,2.8199172019958496,-2.8546230792999268
1761401208558491400,10.748491455078126,-2.9807114601135254,2.920598030090332,-4.01556396484375
1761401208578656500,10.768656494140625,-3.345348358154297,2.971766471862793,-4.5960259437561035
1761401208598818600,10.788818603515624,-4.014409065246582,3.397826671600342,-4.6838884353637695
1761401208618980900,10.80898095703125,-4.581470489501953,3.8955869674682617,-4.685068130493164
1761401208639142700,10.829142578125,-5.0399274826049805,4.20510196685791,-4.427652835845947
1761401208659295000,10.849294921875,-5.4130401611328125,4.639778137207031,-4.449869632720947
1761401208679454200,10.8694541015625,-5.748964786529541,4.974643707275391,-4.566291809082031
1761401208699628500,10.889628662109375,-6.059030532836914,5.157373905181885,-4.461097240447998
1761401208719753700,10.909753662109376,-6.449487686157227,5.10230827331543,-4.409735679626465
1761401208739927300,10.92992724609375,-6.831668376922607,4.777195453643799,-4.630843162536621
1761401208760088800,10.9500888671875,-7.283090114593506,4.190832614898682,-4.985089302062988
1761401208780264700,10.9702646484375,-7.7043986320495605,3.333331346511841,-5.400237083435059
1761401208800439000,10.99043896484375,-8.21162223815918,2.2108211517333984,-5.450440883636475
1761401208820576000,11.010575927734376,-8.834856986999512,1.1110725402832031,-5.18660306930542
1761401208840762600,11.0307626953125,-9.60473346710205,0.07053720951080322,-4.916039943695068
1761401208860918500,11.05091845703125,-10.244222640991211,-0.8820596933364868,-4.780977249145508
1761401208881095700,11.071095703125,-10.823603630065918,-2.2778141498565674,-4.992590427398682
1761401208901248800,11.091248779296874,-11.560588836669922,-3.887256145477295,-6.003915309906006
1761401208921410000,11.11141015625,-11.839799880981445,-4.190381050109863,-8.045604705810547
1761401208941572600,11.131572509765626,-11.716547012329102,-4.162635803222656,-9.430204391479492
1761401208961734000,11.15173388671875,-9.253511428833008,-7.165678024291992,-9.763873100280762
1761401208981894700,11.171894775390625,-2.4588279724121094,-13.33829116821289,-9.584898948669434
1761401209002032600,11.19203271484375,6.555755138397217,-19.003904342651367,-8.553631782531738
1761401209022192600,11.212192626953126,17.040699005126953,-21.737749099731445,-6.649711608886719
1761401209042382600,11.232382568359375,23.219341278076172,-16.985382080078125,-3.378913402557373
1761401209062559200,11.252559326171875,23.37380599975586,-12.32868766784668,-0.4290231466293335
1761401209082702000,11.2727021484375,24.162059783935547,-12.687923431396484,-1.5856884717941284
1761401209102867000,11.292866943359375,21.28179168701172,-14.135554313659668,-2.851923704147339
1761401209123029500,11.313029541015625,17.651866912841797,-14.782634735107422,-3.2169055938720703
1761401209143187200,11.333187255859375,16.678699493408203,-14.982714653015137,-2.504368782043457
1761401209163354400,11.353354248046875,16.324745178222656,-13.54471206665039,0.5745884776115417
1761401209183515400,11.373515380859375,14.597805976867676,-11.726790428161621,2.5356802940368652
1761401209203672800,11.3936728515625,12.174829483032227,-10.160331726074219,2.3279409408569336
1761401209223814400,11.413814453125,9.205963134765625,-8.983784675598145,-0.2869578003883362
1761401209244001000,11.4340009765625,6.202097415924072,-7.093992233276367,-2.2699062824249268
1761401209264163000,11.4541630859375,3.6780667304992676,-5.608962059020996,-3.4776670932769775
1761401209284326000,11.474325927734375,1.2531261444091797,-4.110630035400391,-3.7436299324035645
1761401209304487200,11.494487060546875,-1.1992402076721191,-2.6717581748962402,-3.897845983505249
1761401209324649000,11.51464892578125,-2.609034538269043,-1.1651854515075684,-3.7036054134368896
1761401209344811000,11.53481103515625,-4.122642517089844,-0.25341081619262695,-4.2449541091918945
1761401209364973600,11.5549736328125,-5.2617011070251465,0.8080730438232422,-4.947116851806641
1761401209385134800,11.575134765625,-6.101198673248291,1.434554100036621,-5.7831292152404785
1761401209405297400,11.59529736328125,-7.006175994873047,1.645193099975586,-6.648697376251221
1761401209425433600,11.61543359375,-7.7194085121154785,1.9384305477142334,-7.345775604248047
1761401209445621000,11.63562109375,-8.31090259552002,2.396989583969116,-7.892871856689453
1761401209465783300,11.655783203125,-8.622797012329102,2.96046781539917,-8.160287857055664
1761401209485944600,11.675944580078125,-8.735536575317383,3.7351179122924805,-8.043590545654297
1761401209506106600,11.696106689453124,-8.45522689819336,4.537826061248779,-7.289825439453125
1761401209526253000,11.716253173828125,-8.051435470581055,5.0835371017456055,-6.157344818115234
1761401209546405400,11.7364052734375,-7.608096122741699,5.095823287963867,-4.986660003662109
1761401209566593300,11.75659326171875,-7.240325927734375,4.584650039672852,-4.118931770324707
1761401209586755000,11.776755126953125,-7.109452724456787,3.6938998699188232,-3.420942783355713
1761401209606916900,11.796916748046876,-7.364695072174072,2.85001540184021,-2.546395778656006
1761401209627052800,11.817052734375,-7.9513468742370605,2.0738377571105957,-1.5791141986846924
1761401209647215000,11.837215087890625,-8.662498474121094,0.9841665625572205,-0.739788293838501
1761401209667402800,11.85740283203125,-9.537343978881836,-0.4360666871070862,-0.08452248573303223
1761401209687564300,11.877564208984374,-10.310684204101562,-1.8789381980895996,0.7310576438903809
1761401209707726600,11.8977265625,-10.967206954956055,-3.744105339050293,1.52626633644104
1761401209727898000,11.917898193359376,-11.533073425292969,-5.766768455505371,2.167416572570801
1761401209748042800,11.938042724609375,-12.179669380187988,-7.621273994445801,2.4630000591278076
1761401209768210700,11.958210693359375,-13.447538375854492,-8.0458402633667,-0.21308696269989014
1761401209788374300,11.978374267578126,-15.420904159545898,-6.689206600189209,-5.5336503982543945
1761401209808511000,11.998510986328125,-14.788443565368652,-9.380378723144531,-10.588964462280273
1761401209828698600,12.01869873046875,-5.617616653442383,-19.341318130493164,-12.771257400512695
1761401209848860400,12.0388603515625,5.980572700500488,-30.69873046875,-10.506997108459473
1761401209869036800,12.059036865234376,19.81260108947754,-38.900245666503906,-6.942999839782715
1761401209889158100,12.079158203125,37.32341384887695,-34.15299987792969,-1.9037175178527832
1761401209909342200,12.09934228515625,37.9400520324707,-16.697959899902344,4.656258583068848
1761401209929463600,12.119463623046874,33.48161697387695,-11.59758472442627,1.6122761964797974
1761401209949671000,12.1396708984375,27.928911209106445,-13.232458114624023,-3.396770477294922
1761401209969822000,12.159822021484375,20.43170928955078,-14.08199691772461,-2.1847920417785645
1761401209989970700,12.179970703125,14.350605010986328,-12.666481971740723,1.0022462606430054
1761401210010130700,12.200130615234375,10.097043991088867,-10.547880172729492,0.43418240547180176
1761401210030317300,12.2203173828125,7.330506324768066,-9.159011840820312,-1.7927865982055664
1761401210050454000,12.2404541015625,4.611423969268799,-7.67458438873291,-1.9052374362945557
1761401210070642400,12.260642333984375,2.256563425064087,-5.326815605163574,-1.3867383003234863
1761401210090804000,12.280803955078126,0.7771542072296143,-2.918898582458496,-1.2720563411712646
1761401210110941000,12.30094091796875,0.050457000732421875,-1.4462270736694336,-1.4301565885543823
1761401210131127000,12.321126953125,-0.7015407085418701,-0.7692165374755859,-0.7346484661102295
1761401210151289000,12.3412890625,-1.6486706733703613,-0.32705116271972656,-0.3393239676952362
1761401210171425800,12.36142578125,-2.388942003250122,0.648857593536377,-0.570578932762146
1761401210191613400,12.381613525390625,-2.839167833328247,2.307525157928467,-0.8186984062194824
1761401210211752000,12.401751953125,-3.1262669563293457,3.5462727546691895,-0.7078304290771484
1761401210231911700,12.42191162109375,-3.2580182552337646,4.534870624542236,-0.8204379081726074
1761401210252073500,12.442073486328125,-3.048811435699463,5.638943672180176,-1.3028123378753662
1761401210272235800,12.46223583984375,-2.8306965827941895,6.7301106452941895,-1.8508127927780151
1761401210292419800,12.482419921875,-2.771036386489868,7.4055495262146,-2.5717921257019043
1761401210312585200,12.502585205078125,-2.6722960472106934,7.78157901763916,-2.91886305809021
1761401210332721700,12.5227216796875,-2.747452735900879,8.032421112060547,-2.7854766845703125
1761401210352887800,12.5428876953125,-3.1940674781799316,8.074897766113281,-2.6510791778564453
1761401210373064200,12.563064208984375,-3.915727138519287,7.5857648849487305,-2.6919374465942383
1761401210393232600,12.583232666015626,-4.5240583419799805,7.470988750457764,-3.41286039352417
1761401210413394400,12.60339453125,-4.804288864135742,7.178019046783447,-4.3832855224609375
1761401210433531400,12.623531494140625,-5.004465579986572,6.095645427703857,-4.562965393066406
1761401210453718500,12.643718505859376,-5.766120910644531,4.072265625,-4.87851619720459
1761401210473881300,12.66388134765625,-6.593753337860107,1.7064788341522217,-6.020799160003662
1761401210494016800,12.684016845703125,-8.20842170715332,-1.2489395141601562,-7.704485893249512
1761401210514195200,12.7041953125,-11.130575180053711,-3.541775941848755,-9.28021240234375
1761401210534367200,12.7243671875,-14.97929573059082,-4.144752502441406,-9.565683364868164
1761401210554487300,12.7444873046875,-17.413028717041016,-1.4056646823883057,-7.503324508666992
1761401210574691300,12.76469140625,-13.005985260009766,-3.064624071121216,-7.167797088623047
1761401210594827000,12.784826904296875,-4.264031410217285,-10.430896759033203,-9.175043106079102
1761401210614988800,12.80498876953125,5.413626194000244,-18.398178100585938,-9.632560729980469
1761401210635176700,12.8251767578125,15.912108421325684,-20.54680633544922,-6.356123447418213
1761401210655338000,12.845337890625,18.979429244995117,-18.785907745361328,-0.7073188424110413
1761401210675476000,12.86547607421875,19.36966896057129,-16.963136672973633,4.760490417480469
1761401210695662800,12.885662841796876,20.76558494567871,-14.295424461364746,5.961850166320801
1761401210715824400,12.905824462890624,20.4195556640625,-14.63784122467041,2.5936951637268066
1761401210735990000,12.925989990234376,16.998178482055664,-15.029520988464355,2.529266357421875
1761401210756117200,12.9461171875,13.620790481567383,-14.799837112426758,5.8657026290893555
1761401210776309800,12.966309814453124,10.430758476257324,-14.995322227478027,6.361399173736572
1761401210796450300,12.9864501953125,7.496972560882568,-14.774752616882324,5.0907464027404785
1761401210816634400,13.00663427734375,5.415705680847168,-13.106938362121582,2.1834726333618164
1761401210836795400,13.02679541015625,4.190145015716553,-10.843897819519043,0.5097627639770508
1761401210856932400,13.046932373046875,4.109239101409912,-8.956563949584961,-0.44871044158935547
1761401210877101300,13.067101318359375,3.3710527420043945,-7.322567939758301,0.06783461570739746
1761401210897281300,13.08728125,1.9188612699508667,-4.723830223083496,0.40221214294433594
1761401210917423400,13.10742333984375,1.1399195194244385,-2.037590980529785,0.21145111322402954
1761401210937605400,13.12760546875,0.9237878322601318,0.11083793640136719,-0.2860616445541382
1761401210957767200,13.14776708984375,0.41701531410217285,1.4246530532836914,-1.8927026987075806
1761401210977929200,13.16792919921875,-0.15169167518615723,2.997683048248291,-3.322348117828369
1761401210998087200,13.188087158203125,-0.333797812461853,4.855884075164795,-3.5672404766082764
1761401211018253000,13.208253173828124,-0.14466285705566406,5.843655586242676,-3.2893941402435303
1761401211038415000,13.2284150390625,-0.10205888748168945,6.348247528076172,-3.0990004539489746
1761401211058573000,13.248572998046875,-0.11832809448242188,7.288425445556641,-2.7918806076049805
1761401211078739500,13.268739501953124,-0.014624714851379395,8.025883674621582,-2.7456963062286377
1761401211098901200,13.2889013671875,-0.03138017654418945,8.607748985290527,-2.84560227394104
1761401211119059000,13.309058837890625,-0.04618477821350098,9.044832229614258,-3.453368902206421
1761401211139224800,13.329224853515624,-0.46723079681396484,9.14883804321289,-4.305548191070557
1761401211159386600,13.34938671875,-1.1759456396102905,8.995766639709473,-5.1383771896362305
1761401211179548700,13.369548583984376,-2.0544772148132324,9.281078338623047,-6.312896728515625
1761401211199710700,13.389710693359374,-3.148400068283081,9.212043762207031,-7.475368022918701
1761401211219872500,13.40987255859375,-4.254384994506836,8.8143892288208,-8.03274154663086
1761401211240009500,13.430009521484376,-5.2268877029418945,8.03587818145752,-7.379124641418457
1761401211260202200,13.4502021484375,-6.252450942993164,7.255331039428711,-5.905215263366699
1761401211280359000,13.47035888671875,-7.664242267608643,6.751914978027344,-5.8276214599609375
1761401211300519400,13.49051953125,-8.691364288330078,6.193360805511475,-6.9024224281311035
1761401211320679700,13.5106796875,-9.515071868896484,5.702099800109863,-7.781375885009766
1761401211340823600,13.530823486328124,-9.608293533325195,4.741879940032959,-7.81929874420166
1761401211360985000,13.550985107421875,-8.975037574768066,3.5622220039367676,-8.607063293457031
1761401211381164000,13.5711640625,-7.502017974853516,1.2422466278076172,-10.140894889831543
1761401211401330200,13.591330078125,-5.862690448760986,-1.1660385131835938,-8.950199127197266
1761401211421492000,13.611491943359376,-2.3609700202941895,-5.433737277984619,-7.620019435882568
1761401211441641000,13.631640869140625,1.5003423690795898,-9.549137115478516,-4.8662309646606445
1761401211461790700,13.651790771484375,6.157039642333984,-13.41540813446045,-2.869528293609619
1761401211481978000,13.67197802734375,11.419846534729004,-17.076217651367188,-1.7849892377853394
1761401211502145000,13.69214501953125,16.016721725463867,-20.634143829345703,-0.809222936630249
1761401211522301700,13.7123017578125,19.236656188964844,-22.31611442565918,1.6464691162109375
1761401211542453000,13.732452880859375,21.36622428894043,-21.515573501586914,6.3909711837768555
1761401211562612700,13.75261279296875,21.883228302001953,-21.813743591308594,7.155128479003906
1761401211582787600,13.77278759765625,20.13474464416504,-22.20460319519043,5.594615936279297
1761401211602949400,13.792949462890626,17.2227783203125,-20.984533309936523,7.536399841308594
1761401211623101400,13.813101318359376,14.586356163024902,-18.40814208984375,8.240957260131836
1761401211643264800,13.8332646484375,12.311685562133789,-15.940032005310059,7.366549491882324
1761401211663435800,13.853435791015626,9.90830135345459,-13.953201293945312,5.492611885070801
1761401211683587000,13.873587158203126,7.774886608123779,-11.335887908935547,2.647839307785034
1761401211703744800,13.893744873046876,6.384970664978027,-8.929451942443848,-0.49581432342529297
1761401211723922000,13.913921875,5.720224857330322,-6.462438583374023,-2.514080286026001
1761401211744083200,13.934083251953124,5.214893341064453,-3.499823570251465,-2.947899103164673
1761401211764239600,13.954239501953126,4.15915060043335,-0.4627513885498047,-2.456864356994629
1761401211784407600,13.974407470703126,1.893075704574585,1.7649545669555664,-1.5317434072494507
1761401211804569000,13.994569091796874,0.3724370002746582,3.4105072021484375,-1.3261945247650146
1761401211824718800,14.01471875,-1.029233455657959,3.9935054779052734,-1.6481337547302246
1761401211844881700,14.034881591796875,-2.5351243019104004,3.862173080444336,-2.8078954219818115
1761401211865055200,14.05505517578125,-4.152605056762695,3.563384771347046,-4.082773685455322
1761401211885205800,14.075205810546874,-5.6104655265808105,3.7541351318359375,-5.361898422241211
1761401211905379300,14.09537939453125,-6.794690132141113,4.12968111038208,-6.949802398681641
1761401211925540400,14.115540283203124,-7.7338433265686035,4.134417533874512,-8.137392044067383
1761401211945684200,14.135684326171875,-8.647464752197266,3.9058358669281006,-8.507678031921387
1761401211965848600,14.1558486328125,-9.197933197021484,3.497602701187134,-8.447484016418457
1761401211986027000,14.176027099609374,-9.621617317199707,2.5562195777893066,-8.122076034545898
1761401212006176800,14.1961767578125,-10.16873550415039,1.639666199684143,-7.399379730224609
1761401212026335700,14.216335693359374,-10.940216064453125,0.7667250037193298,-6.466219902038574
1761401212046513000,14.236512939453124,-11.79736328125,-0.20963577926158905,-5.589967250823975
1761401212066677800,14.256677734375,-12.484159469604492,-1.2578059434890747,-5.323269844055176
1761401212086824000,14.276823974609375,-13.137614250183105,-2.2940948009490967,-5.091922760009766
1761401212106998300,14.296998291015624,-13.690032958984375,-3.2018604278564453,-5.054729461669922
1761401212127141600,14.3171416015625,-13.944421768188477,-4.186197280883789,-4.825311660766602
1761401212147309800,14.337309814453125,-13.845001220703125,-4.555123805999756,-3.9721298217773438
1761401212167486500,14.357486572265625,-13.53432846069336,-4.844152927398682,-3.217674493789673
1761401212187637800,14.3776376953125,-13.013325691223145,-5.519601821899414,-2.6666369438171387
1761401212207795700,14.397795654296875,-12.954450607299805,-5.871932029724121,-0.9501124620437622
1761401212227950600,14.41795068359375,-13.516071319580078,-6.507812023162842,0.979271650314331
1761401212248107000,14.43810693359375,-13.094671249389648,-6.877470970153809,0.6067689657211304
1761401212268304100,14.45830419921875,-9.301685333251953,-4.540786266326904,-1.2455344200134277
1761401212288456400,14.47845654296875,-2.6004228591918945,-4.178590297698975,-4.098757743835449
1761401212308605200,14.498605224609374,8.737065315246582,-9.991701126098633,-7.610450744628906
1761401212328779800,14.51877978515625,25.428348541259766,-17.360984802246094,-10.835522651672363
1761401212348942300,14.5389423828125,36.073421478271484,-9.749883651733398,-5.0403547286987305
1761401212369091000,14.559091064453124,29.75981330871582,-2.1721391677856445,2.0909976959228516
1761401212389265700,14.579265625,27.569011688232422,-3.0208544731140137,2.9810752868652344
1761401212409436700,14.599436767578124,25.971372604370117,-2.9913339614868164,4.691835403442383
1761401212429589500,14.619589599609375,22.34957504272461,-2.192732810974121,6.709458351135254
1761401212449739000,14.639739013671875,17.468856811523438,-1.0289044380187988,7.165395736694336
1761401212469895000,14.65989501953125,12.572196960449219,-0.8087272644042969,5.557933330535889
1761401212490065700,14.680065673828125,8.447646141052246,-0.2796163558959961,3.0128743648529053
1761401212510232000,14.700232177734375,5.409873008728027,0.34553003311157227,1.2548637390136719
1761401212530375400,14.72037548828125,3.0277419090270996,0.7998013496398926,0.6691665649414062
1761401212550560000,14.74056005859375,0.47196197509765625,0.8617997169494629,0.4400453567504883
1761401212570698500,14.760698486328126,-1.9485139846801758,0.8538413047790527,1.0830763578414917
1761401212590872300,14.780872314453125,-3.816263198852539,0.7155389785766602,1.883741855621338
1761401212611048000,14.8010478515625,-5.332650661468506,0.5338201522827148,2.532169818878174
1761401212631209000,14.821208984375,-6.490102291107178,1.2279706001281738,2.1177573204040527
1761401212651371000,14.84137109375,-7.1543779373168945,1.3118500709533691,2.259042263031006
1761401212671530500,14.861530517578124,-6.856215476989746,1.3759757280349731,2.3799173831939697
1761401212691682600,14.8816826171875,-5.818780422210693,1.30039381980896,3.0089972019195557
1761401212711858000,14.90185791015625,-4.449276447296143,2.008255958557129,2.4745993614196777
1761401212732006700,14.922006591796874,-2.525331497192383,2.310380458831787,1.5740138292312622
1761401212752180700,14.9421806640625,-0.8603725433349609,2.273240089416504,1.3183274269104004
1761401212772331500,14.96233154296875,0.02737712860107422,1.9470542669296265,1.7419238090515137
1761401212792486400,14.982486328125,9.482751846313477,2.533879280090332,7.920538425445557
1761401212812654600,15.002654541015625,3.520754814147949,4.980374336242676,3.02489972114563
1761401212832828400,15.022828369140624,0.05853748321533203,4.53016471862793,0.7585041522979736
1761401212852969700,15.0429697265625,-0.3026447296142578,3.0225274562835693,2.7436611652374268
1761401212873144000,15.06314404296875,-0.2900524139404297,2.2724826335906982,3.4109346866607666
1761401212893314600,15.083314453125,0.09931755065917969,1.1114726066589355,0.688605546951294
1761401212913451300,15.103451171875,0.8143043518066406,1.5120958089828491,1.3556091785430908
1761401212933638700,15.123638671875,2.138808250427246,3.891388416290283,4.030239582061768
1761401212953800700,15.14380078125,0.2633066177368164,5.381606101989746,2.242936849594116
1761401212973950700,15.16395068359375,4.13999080657959,3.7219796180725098,1.745060920715332
1761401212994112000,15.184112060546875,3.1781272888183594,2.421375274658203,0.5474880933761597
1761401213014286300,15.204286376953124,0.4869985580444336,2.162907838821411,1.3029481172561646
1761401213034448400,15.224448486328125,0.46169471740722656,1.7678563594818115,1.8346357345581055
1761401213054610200,15.244610107421876,0.7045001983642578,1.3475512266159058,1.5999506711959839
1761401213074759200,15.26475927734375,0.410125732421875,0.9591823220252991,1.759885549545288
1761401213094921200,15.284921142578124,0.37836456298828125,0.9506908655166626,1.6046509742736816
1761401213115094300,15.30509423828125,-0.7316980361938477,0.8382093906402588,1.8145625591278076
1761401213135245000,15.3252451171875,-1.0048131942749023,1.3174183368682861,1.6046119928359985
1761401213155420400,15.34542041015625,-1.197408676147461,1.5963071584701538,0.812059223651886
1761401213175576600,15.36557666015625,-1.0790386199951172,1.744960069656372,0.30749616026878357
1761401213195745800,15.385745849609375,-1.1787376403808594,2.6711647510528564,0.6146933436393738
1761401213215917800,15.405917724609376,-0.42919254302978516,3.0629019737243652,0.35480737686157227
1761401213236047600,15.426047607421875,-0.05447578430175781,2.216843605041504,-0.3683758080005646
1761401213256204300,15.446204345703125,-0.015511512756347656,2.1377241611480713,-0.3913526237010956
1761401213276381400,15.46638134765625,-0.5993261337280273,1.7561136484146118,0.006866753101348877
1761401213296527600,15.486527587890626,-0.7786235809326172,1.737108826637268,0.009931474924087524
1761401213316716800,15.506716796875,-0.6305036544799805,1.5866262912750244,-0.08444064855575562
1761401213336878800,15.52687890625,-0.26592063903808594,1.308791160583496,-0.08841785788536072
1761401213357037000,15.547037109375,-0.03399085998535156,1.3828725814819336,-0.10457932949066162
1761401213377201400,15.567201416015624,-0.19596481323242188,1.241373062133789,-0.13122224807739258
1761401213397363200,15.58736328125,-0.22296428680419922,1.1328320503234863,-0.1910129189491272
1761401213417512700,15.6075126953125,-0.18925952911376953,0.968142032623291,0.10575288534164429
1761401213437688600,15.6276884765625,-0.9159355163574219,1.1789472103118896,-0.15215879678726196
1761401213457836500,15.64783642578125,-0.4525575637817383,0.9525258541107178,-0.9937448501586914
1761401213478015500,15.668015380859375,-0.3999786376953125,1.0621557235717773,-0.44578683376312256
1761401213498160600,15.68816064453125,-0.6659660339355469,1.3388547897338867,0.11917930841445923
1761401213518322400,15.708322509765624,-0.4105968475341797,1.0223467350006104,-0.3808252811431885
1761401213538496800,15.728496826171876,-0.43709754943847656,0.8843531608581543,-0.47897228598594666
1761401213558656800,15.74865673828125,-0.546112060546875,1.1438038349151611,-0.09535437822341919
1761401213578795500,15.76879541015625,-0.2745389938354492,1.149315357208252,-0.06700801849365234
1761401213598971400,15.788971435546875,-0.08119869232177734,0.7531177997589111,0.12787902355194092
1761401213619142700,15.809142578125,-0.0638427734375,0.5220367908477783,0.2890007495880127
1761401213639306200,15.82930615234375,-0.14339828491210938,0.47911930084228516,0.36553633213043213
1761401213659468000,15.849468017578126,-0.28645992279052734,0.5775363445281982,0.36518120765686035
1761401213679622400,15.869622314453125,-0.5881290435791016,0.7526562213897705,0.3587417006492615
1761401213699792600,15.889792724609375,-0.65576171875,0.8202023506164551,0.2794899344444275
1761401213719954400,15.909954345703126,-0.5997943878173828,0.8386776447296143,0.17610257863998413
1761401213740103200,15.930103271484375,-0.6189212799072266,0.9401543140411377,0.007767677307128906
1761401213760267300,15.950267333984375,-0.5618963241577148,0.9164628982543945,0.11367470026016235
1761401213780440000,15.970440185546876,-0.3048543930053711,1.0495915412902832,0.25397855043411255
1761401213800573200,15.9905732421875,-0.0320587158203125,0.9263615608215332,0.31959038972854614
1761401213820767200,16.010767333984376,0.03127479553222656,0.7242631912231445,0.2715787887573242
1761401213840914000,16.030913818359377,-0.0712442398071289,0.6599483489990234,0.24729090929031372
1761401213861075200,16.0510751953125,-0.26374244689941406,0.6745963096618652,0.23432058095932007
1761401213881235500,16.0712353515625,-0.3183450698852539,0.6830723285675049,0.0973929762840271
1761401213901411600,16.09141162109375,-0.3881053924560547,0.7120513916015625,0.15252459049224854
1761401213921574000,16.111573974609374,-0.4380025863647461,0.7865865230560303,0.19877004623413086
1761401213941731600,16.131731689453126,-0.4946107864379883,0.6953506469726562,0.18991273641586304
1761401213961885400,16.151885498046877,-0.4045572280883789,0.7186603546142578,0.28581345081329346
1761401213982059300,16.172059326171876,-0.29872703552246094,0.8063085079193115,0.37085235118865967
1761401214002219500,16.192219482421876,-0.3568382263183594,0.7622127532958984,0.24345684051513672
1761401214022372400,16.212372314453123,-0.36793994903564453,0.7340576648712158,0.1342591643333435
1761401214042545400,16.23254541015625,-0.36608314514160156,0.9017679691314697,0.059092700481414795
1761401214062712300,16.25271240234375,-0.20985031127929688,0.9666650295257568,-0.0018265843391418457
1761401214082856400,16.2728564453125,-0.23628902435302734,0.8169059753417969,0.18038004636764526
1761401214103031000,16.293031005859376,-0.32946205139160156,0.7911031246185303,0.31800901889801025
1761401214123173400,16.31317333984375,-0.28697967529296875,0.7784061431884766,0.26769208908081055
1761401214143344000,16.33334423828125,-0.23756790161132812,0.5950765609741211,0.10316312313079834
1761401214163516700,16.3535166015625,0.41083335876464844,0.48952317237854004,0.37318533658981323
1761401214183675600,16.373675537109374,-0.758021354675293,0.8164176940917969,0.3214644193649292
1761401214203839000,16.3938388671875,-0.4921131134033203,0.6376736164093018,-0.14674901962280273
1761401214224002800,16.4140029296875,-0.39559459686279297,1.0572021007537842,0.17000722885131836
