time,seconds_elapsed,z,y,x
1761400623701322800,0.15432275390625,0.6254851818084717,-9.051578521728516,-3.5452141761779785
1761400623711403800,0.16440380859375,0.5897217988967896,-8.977059364318848,-3.560701608657837
1761400623721493200,0.1744931640625,0.4843769371509552,-8.983867645263672,-3.6454713344573975
1761400623731568400,0.184568359375,0.2677764892578125,-8.802955627441406,-3.7905449867248535
1761400623741646800,0.194646728515625,0.019303251057863235,-8.51684856414795,-3.922076463699341
1761400623751730700,0.204730712890625,-0.18166005611419678,-8.248099327087402,-4.278213977813721
1761400623761818000,0.214818115234375,-0.3853168487548828,-8.298827171325684,-4.5480852127075195
1761400623771899100,0.224899169921875,-0.7172130346298218,-8.371326446533203,-4.944176197052002
1761400623781988000,0.234988037109375,-0.9929951429367065,-8.53996753692627,-5.59794282913208
1761400623792072400,0.245072509765625,-0.9861866235733032,-8.823980331420898,-5.709497451782227
1761400623802155300,0.2551552734375,-0.45242929458618164,-8.807669639587402,-5.097779273986816
1761400623812238300,0.26523828125,0.317381352186203,-8.755820274353027,-4.411017417907715
1761400623822321000,0.27532080078125,0.83580082654953,-8.854057312011719,-3.942876100540161
1761400623832389000,0.28538916015625,1.2385504245758057,-8.986262321472168,-3.681833267211914
1761400623842483000,0.29548291015625,1.5503203868865967,-9.05599308013916,-3.6682162284851074
1761400623852552400,0.305552490234375,1.9600281715393066,-9.074922561645508,-3.4130842685699463
1761400623862633200,0.31563330078125,2.3425018787384033,-9.10888957977295,-3.214514970779419
1761400623872714000,0.3257138671875,2.74540114402771,-8.827570915222168,-3.0841805934906006
1761400623882791700,0.335791748046875,2.708590269088745,-8.898798942565918,-2.5801265239715576
1761400623892888800,0.345888916015625,2.428393840789795,-9.072677612304688,-3.2153379917144775
1761400623902962000,0.3559619140625,1.5552585124969482,-9.420061111450195,-3.6245968341827393
1761400623913050000,0.366050048828125,1.300126314163208,-9.127968788146973,-3.923722505569458
1761400623923119400,0.376119384765625,1.0485106706619263,-8.962020874023438,-4.970437526702881
1761400623933203000,0.386202880859375,0.7477391362190247,-9.044171333312988,-5.690718173980713
1761400623943294000,0.3962939453125,0.558447539806366,-9.007884979248047,-6.384139060974121
1761400623953373400,0.40637353515625,0.6447884440422058,-9.181838035583496,-6.569764137268066
1761400623963456000,0.4164560546875,0.8309376239776611,-9.30686092376709,-6.863801956176758
1761400623973525000,0.42652490234375,1.2033108472824097,-9.280599594116211,-6.964807510375977
1761400623983614700,0.43661474609375,1.7915362119674683,-9.264288902282715,-6.721197605133057
1761400623993686800,0.446686767578125,2.672078847885132,-9.41519832611084,-6.289118766784668
1761400624003755300,0.45675537109375,3.435380220413208,-9.610475540161133,-5.32275915145874
1761400624013842000,0.466842041015625,3.853841781616211,-9.336564064025879,-4.649838924407959
1761400624023943000,0.47694287109375,4.0941596031188965,-9.078289031982422,-4.178181171417236
1761400624034034700,0.48703466796875,4.093710899353027,-8.82315731048584,-3.949908971786499
1761400624044092200,0.497092041015625,4.199429988861084,-8.40963363647461,-4.073884010314941
1761400624054173000,0.5071728515625,3.6750996112823486,-8.880318641662598,-3.8533928394317627
1761400624064255200,0.517255126953125,3.1321394443511963,-8.486023902893066,-4.2637739181518555
1761400624074348300,0.527348388671875,2.96626615524292,-8.178592681884766,-4.195314884185791
1761400624084429300,0.53742919921875,2.7323079109191895,-7.885153770446777,-3.8796541690826416
1761400624094512600,0.5475126953125,2.526256799697876,-7.433248043060303,-3.135805606842041
1761400624104589800,0.55758984375,2.3633015155792236,-6.545073986053467,-2.545560121536255
1761400624114675000,0.567675048828125,2.197054147720337,-5.861230373382568,-2.935964584350586
1761400624124751600,0.577751708984375,2.0113539695739746,-5.404386520385742,-3.441814661026001
1761400624134831400,0.587831298828125,1.6637457609176636,-5.318045616149902,-3.861323595046997
1761400624144903000,0.59790283203125,1.3100024461746216,-5.604825973510742,-4.018143653869629
1761400624154996500,0.60799658203125,1.0433481931686401,-5.51504373550415,-3.291353940963745
1761400624165078300,0.618078369140625,0.9722703695297241,-4.990713596343994,-2.6582372188568115
1761400624175146200,0.628146240234375,1.072303056716919,-4.576217174530029,-1.899275302886963
1761400624185223700,0.6382236328125,1.227552056312561,-4.870105743408203,-1.6610522270202637
1761400624195311900,0.648311767578125,1.2509703636169434,-4.050540447235107,-1.612195611000061
1761400624205402000,0.658402099609375,1.3903578519821167,-2.945915460586548,-1.980752944946289
1761400624215483000,0.66848291015625,1.3860182762145996,-2.226682424545288,-2.066345691680908
1761400624225552100,0.67855224609375,1.4482675790786743,-1.6023194789886475,-2.0375404357910156
1761400624235644700,0.688644775390625,1.5202432870864868,-1.7292121648788452,-1.3384336233139038
1761400624245715200,0.698715087890625,2.1174468994140625,-2.1308395862579346,-1.3985130786895752
1761400624255795200,0.708795166015625,2.63055419921875,-1.9067572355270386,-1.549497365951538
1761400624265876200,0.718876220703125,2.4642322063446045,-1.8552818298339844,-2.4176199436187744
1761400624275958000,0.7289580078125,3.223867416381836,-3.0364463329315186,-3.9740006923675537
1761400624286051300,0.73905126953125,4.613626480102539,-5.365480899810791,-4.325499534606934
1761400624296119300,0.749119384765625,5.572878360748291,-7.91979455947876,-4.753612518310547
1761400624306201000,0.759201171875,4.145784854888916,-9.554959297180176,-5.173870086669922
1761400624316292400,0.769292236328125,4.068197727203369,-11.454534530639648,-6.218415260314941
1761400624326375400,0.77937548828125,6.9666032791137695,-15.092897415161133,-7.813626766204834
1761400624336450000,0.789449951171875,6.506916522979736,-18.064849853515625,-9.836727142333984
1761400624346525700,0.799525634765625,3.4392707347869873,-17.871068954467773,-11.692682266235352
1761400624356618800,0.80961865234375,4.889259338378906,-17.866355895996094,-12.614824295043945
1761400624366680600,0.8196806640625,6.164994716644287,-19.371036529541016,-12.684106826782227
1761400624376781300,0.82978125,5.088127613067627,-22.208166122436523,-14.339996337890625
1761400624386862600,0.839862548828125,5.326275825500488,-23.97852897644043,-15.661894798278809
1761400624396939800,0.849939697265625,6.209436893463135,-24.97332000732422,-16.611345291137695
1761400624407011300,0.86001123046875,7.2935614585876465,-25.83762550354004,-17.657760620117188
1761400624417105200,0.870105224609375,7.483152389526367,-25.16507911682129,-18.17872428894043
1761400624427186400,0.8801865234375,7.033565998077393,-23.583560943603516,-19.296966552734375
1761400624437265400,0.890265380859375,6.306102752685547,-21.33420753479004,-20.0584716796875
1761400624447359500,0.900359375,5.509582042694092,-18.151865005493164,-19.573122024536133
1761400624457416700,0.910416748046875,6.103343963623047,-16.238298416137695,-16.049606323242188
1761400624467506700,0.920506591796875,6.6630635261535645,-14.818985939025879,-11.358916282653809
1761400624477592000,0.930592041015625,5.8477630615234375,-13.10571002960205,-5.13309383392334
1761400624487673000,0.940673095703125,4.97006368637085,-11.367220878601074,0.3925742506980896
1761400624497741600,0.950741455078125,3.831022024154663,-9.436671257019043,2.4864532947540283
1761400624507835100,0.960835205078125,1.0818051099777222,-7.650671482086182,1.4977976083755493
1761400624517916400,0.97091650390625,-1.4639047384262085,-5.655104637145996,0.5658546090126038
1761400624527997400,0.98099755859375,-3.597811698913574,-2.410212993621826,0.8063222169876099
1761400624538056200,0.99105615234375,-4.5301289558410645,-0.8278700709342957,-0.405892014503479
1761400624548159500,1.001159423828125,-4.655674934387207,-0.7288099527359009,-1.740659475326538
1761400624558227700,1.011227783203125,-3.196483612060547,0.33002573251724243,-1.3218985795974731
1761400624568296200,1.021296142578125,-0.7139958143234253,1.4739304780960083,-0.9162310361862183
1761400624578390300,1.031390380859375,1.1392658948898315,0.9897779226303101,-0.30615854263305664
1761400624588472600,1.04147265625,1.7753005027770996,-1.2003180980682373,1.0523264408111572
1761400624598556700,1.051556640625,1.9903297424316406,-1.969380497932434,1.1668740510940552
1761400624608640800,1.061640869140625,1.6306010484695435,-2.3524527549743652,1.2829928398132324
1761400624618714400,1.07171435546875,1.5059528350830078,-3.097947359085083,1.1694178581237793
1761400624628806100,1.08180615234375,0.4166659116744995,-3.1698482036590576,1.1166706085205078
1761400624638891800,1.091891845703125,-1.3388824462890625,-3.3132009506225586,0.9356839656829834
1761400624648946000,1.10194580078125,-1.898003339767456,-3.2986862659454346,0.15405191481113434
1761400624659046700,1.112046630859375,-1.239298701286316,-2.9625253677368164,-1.1186907291412354
1761400624669132800,1.1221328125,-0.26164135336875916,-2.0253450870513916,-2.3337481021881104
1761400624679213800,1.1322138671875,-0.5555295944213867,-0.3240402340888977,-2.6722283363342285
1761400624689302800,1.142302734375,-1.6770634651184082,2.5427169799804688,-2.141014814376831
1761400624699376000,1.152376220703125,-2.2957401275634766,5.512873649597168,-0.48295536637306213
1761400624709437000,1.16243701171875,-2.5674819946289062,7.716437339782715,1.6098014116287231
1761400624719532300,1.1725322265625,-2.454655408859253,8.257377624511719,3.493589162826538
1761400624729610500,1.182610595703125,-1.8704700469970703,4.938340187072754,3.646967649459839
1761400624739687400,1.1926875,-1.572840929031372,3.3737294673919678,4.227636337280273
1761400624749756000,1.202755859375,-1.2886042594909668,2.303745746612549,4.61549711227417
1761400624759851500,1.2128515625,-0.8769512176513672,1.8611177206039429,4.941781997680664
1761400624769931300,1.22293115234375,-0.3835211992263794,1.8225860595703125,5.004405498504639
1761400624780012000,1.233011962890625,0.32209494709968567,1.810615062713623,4.569707870483398
1761400624790094000,1.243093994140625,1.69202721118927,1.7197849750518799,3.778573989868164
1761400624800174000,1.253174072265625,2.330904960632324,1.1956044435501099,2.787374496459961
1761400624810268000,1.263267822265625,1.6700304746627808,0.1910123974084854,1.577255129814148
1761400624820347100,1.27334716796875,-0.2522141933441162,-1.337161660194397,0.29957449436187744
1761400624830424000,1.283424072265625,-1.9370588064193726,-2.982651472091675,-1.1781716346740723
1761400624840510000,1.293510009765625,-2.2543654441833496,-4.691363334655762,-2.500145196914673
1761400624850578000,1.303577880859375,-2.2099978923797607,-6.225747585296631,-3.7548563480377197
1761400624860671500,1.31367138671875,-0.4604349136352539,-7.079579830169678,-4.880430698394775
1761400624870755000,1.323755126953125,2.892120838165283,-7.160234451293945,-6.698003768920898
1761400624880831500,1.33383154296875,6.8135986328125,-7.179238319396973,-8.7646484375
1761400624890916600,1.34391650390625,10.129044532775879,-7.34047269821167,-10.483611106872559
1761400624900972000,1.353971923828125,9.776124000549316,-7.376610279083252,-7.790507793426514
1761400624911078700,1.36407861328125,6.645630359649658,-9.168071746826172,-6.125041484832764
1761400624921167400,1.37416748046875,8.962244987487793,-17.110761642456055,-9.488446235656738
1761400624931241000,1.384240966796875,5.914875507354736,-25.00833511352539,-16.66267204284668
1761400624941322200,1.394322265625,5.814692974090576,-28.31375503540039,-23.251663208007812
1761400624951395000,1.40439501953125,13.24360179901123,-32.93718338012695,-31.26707649230957
1761400624961484300,1.414484375,12.6173677444458,-36.288692474365234,-36.26781463623047
1761400624971559000,1.424558837890625,13.11334228515625,-35.78396224975586,-38.3355827331543
1761400624981646000,1.43464599609375,13.71817684173584,-29.127708435058594,-31.695714950561523
1761400624991714300,1.44471435546875,14.966005325317383,-25.090486526489258,-24.528745651245117
1761400625001809200,1.45480908203125,14.77192497253418,-23.845949172973633,-20.40099334716797
1761400625011888000,1.46488818359375,13.689072608947754,-24.378509521484375,-17.93421745300293
1761400625021958000,1.4749580078125,11.001057624816895,-24.707489013671875,-16.208894729614258
1761400625032024600,1.485024658203125,7.541959762573242,-23.175947189331055,-14.24340534210205
1761400625042145500,1.4951455078125,4.127529144287109,-20.138078689575195,-13.322236061096191
1761400625052214300,1.50521435546875,2.3412299156188965,-15.582437515258789,-11.880927085876465
1761400625062282500,1.515282470703125,3.0266449451446533,-12.267515182495117,-10.492215156555176
1761400625072376000,1.5253759765625,2.7561750411987305,-9.425897598266602,-8.315959930419922
1761400625082455600,1.53545556640625,2.75116229057312,-6.8471174240112305,-4.835165023803711
1761400625092526000,1.545526123046875,-0.3048118054866791,-6.654458999633789,-3.0655508041381836
1761400625102606600,1.555606689453125,-2.149319648742676,-6.454169273376465,-3.024475336074829
1761400625112689400,1.565689453125,-2.6473135948181152,-5.814393520355225,-3.2846951484680176
1761400625122781700,1.57578173828125,-4.823493480682373,-4.0895209312438965,-1.9174562692642212
1761400625132849700,1.585849609375,-5.964554786682129,-2.2665607929229736,-0.8411877751350403
1761400625142929200,1.59592919921875,-5.234772205352783,-0.8138041496276855,-1.9229180812835693
1761400625153025000,1.60602490234375,-3.899181842803955,0.8262240290641785,-3.674426317214966
1761400625163093000,1.616093017578125,-1.6824504137039185,2.396895170211792,-4.568735599517822
1761400625173185800,1.626185791015625,2.8837411403656006,3.2130186557769775,-4.641010284423828
1761400625183278300,1.6362783203125,5.043909549713135,2.283170700073242,-0.4653729498386383
1761400625193349400,1.646349365234375,4.2730512619018555,-1.4652514457702637,4.688295841217041
1761400625203428900,1.656428955078125,2.458770275115967,-3.247136116027832,6.258817195892334
1761400625213499100,1.6664990234375,0.3027168810367584,-3.0062942504882812,6.399401664733887
1761400625223582000,1.67658203125,-1.0517278909683228,-2.3778164386749268,5.297245979309082
1761400625233672200,1.686672119140625,-0.8935609459877014,-2.8121395111083984,3.460294723510742
1761400625243729400,1.6967294921875,0.011372458189725876,-3.0463223457336426,1.119438886642456
1761400625253819600,1.706819580078125,-0.11641805619001389,-2.770540237426758,-0.24181437492370605
1761400625263883000,1.716883056640625,-0.43611881136894226,-2.6680386066436768,-0.1852513551712036
1761400625273996000,1.72699609375,-0.1809118688106537,-2.4530093669891357,-0.7386112213134766
1761400625284079400,1.737079345703125,0.20515315234661102,-1.9676597118377686,-1.8641853332519531
1761400625294160000,1.747159912109375,0.006209960673004389,-1.3700071573257446,-2.5683798789978027
1761400625304241700,1.75724169921875,0.05379471927881241,-0.9366565942764282,-2.150891065597534
1761400625314322400,1.767322509765625,-0.480935275554657,-0.5370493531227112,-0.8819640278816223
1761400625324390700,1.777390625,-1.468319058418274,0.27144262194633484,-0.02446574904024601
1761400625334466000,1.787466064453125,-1.2473043203353882,0.3809773325920105,0.39234980940818787
1761400625344553000,1.797552978515625,-0.6619219779968262,0.34985271096229553,0.9218424558639526
1761400625354642200,1.80764208984375,-0.6254851818084717,0.7154921889305115,1.8585739135742188
1761400625364727600,1.8177275390625,-0.927453875541687,1.1842319965362549,2.627037763595581
1761400625374797300,1.82779736328125,-1.1911901235580444,1.348833441734314,3.0913631916046143
1761400625384890000,1.83789013671875,-1.205779790878296,1.5203180313110352,3.2364370822906494
1761400625394945500,1.847945556640625,-1.0342203378677368,1.7964743375778198,3.1640872955322266
1761400625405049000,1.858049072265625,-0.8403648138046265,1.981127142906189,2.9554922580718994
1761400625415133400,1.868133544921875,-0.7655459642410278,2.301800489425659,2.66369891166687
1761400625425201700,1.87820166015625,-0.6969371438026428,2.3895628452301025,2.2178537845611572
1761400625435295200,1.888295166015625,-0.52418053150177,2.245387077331543,1.6953940391540527
1761400625445388300,1.89838818359375,-0.03568856790661812,2.3784148693084717,1.0574889183044434
1761400625455458800,1.908458740234375,0.6549637913703918,2.1464767456054688,0.5288193225860596
1761400625465534700,1.91853466796875,1.5224130153656006,1.7426795959472656,-0.10182838886976242
1761400625475601200,1.92860107421875,2.3942766189575195,1.1729344129562378,-0.5543324947357178
1761400625485704200,1.9387041015625,2.5628433227539062,0.17313070595264435,-0.8920645713806152
1761400625495769300,1.948769287109375,2.4024317264556885,-0.6578817367553711,-1.792508840560913
1761400625505863200,1.95886328125,1.2700492143630981,-1.5454572439193726,-1.9966145753860474
1761400625515942400,1.9689423828125,-0.13347674906253815,-2.087968349456787,-1.9730466604232788
1761400625526012700,1.9790126953125,-0.4130746126174927,-2.729614496231079,-3.599008798599243
1761400625536105000,1.98910498046875,1.9776854515075684,-3.711087465286255,-5.871405601501465
1761400625546174500,1.999174560546875,5.9607391357421875,-5.503296852111816,-9.378013610839844
1761400625556268300,2.009268310546875,8.6920747756958,-9.706767082214355,-15.280094146728516
1761400625566349800,2.019349853515625,9.4752779006958,-13.22976016998291,-20.829404830932617
1761400625576427800,2.029427734375,5.937919616699219,-13.420473098754883,-21.432069778442383
1761400625586507800,2.0395078125,10.887407302856445,-17.38669204711914,-23.873931884765625
1761400625596580400,2.049580322265625,17.211017608642578,-31.994016647338867,-26.433483123779297
1761400625606661600,2.05966162109375,10.398916244506836,-37.78139877319336,-23.89757537841797
1761400625616755500,2.06975537109375,15.560665130615234,-30.92403221130371,-28.32535171508789
1761400625626825000,2.079824951171875,18.747346878051758,-26.920927047729492,-35.9471435546875
1761400625636917200,2.089917236328125,16.380678176879883,-23.7945499420166,-31.029376983642578
1761400625646983400,2.0999833984375,14.940267562866211,-23.8757266998291,-29.791725158691406
1761400625657060000,2.11006005859375,12.499528884887695,-27.130643844604492,-30.16626739501953
1761400625667147800,2.120147705078125,11.22207260131836,-26.57466697692871,-27.15750503540039
1761400625677241900,2.130241943359375,8.899621963500977,-23.855976104736328,-22.777612686157227
1761400625687309800,2.140309814453125,5.726855754852295,-20.791547775268555,-19.269807815551758
1761400625697391900,2.150391845703125,2.51877498626709,-18.198476791381836,-16.673519134521484
1761400625707485200,2.160485107421875,0.328230082988739,-15.644163131713867,-13.760150909423828
1761400625717551600,2.170551513671875,-0.30615854263305664,-13.070770263671875,-9.69502067565918
1761400625727625500,2.18062548828125,1.9190274477005005,-11.916390419006348,-7.713220119476318
1761400625737726500,2.1907265625,3.608959674835205,-10.033201217651367,-7.055038928985596
1761400625747809300,2.200809326171875,2.322375535964966,-6.972962856292725,-5.117082595825195
1761400625757877800,2.210877685546875,1.1115081310272217,-4.0650553703308105,-3.2409260272979736
1761400625767958500,2.22095849609375,0.38142624497413635,-2.3032219409942627,-1.7798645496368408
1761400625778037500,2.23103759765625,-2.0645501613616943,-2.5789294242858887,-1.22642982006073
1761400625788121600,2.24112158203125,-4.998868465423584,-3.943549394607544,-2.1930887699127197
1761400625798214700,2.251214599609375,-6.158260822296143,-4.012382984161377,-2.248305082321167
1761400625808283000,2.261282958984375,-4.895244598388672,-2.8137855529785156,-1.8685996532440186
1761400625818351600,2.2713515625,-3.044451951980591,-1.9815759658813477,-1.3057377338409424
1761400625828457700,2.281457763671875,-0.5986252427101135,0.2313397377729416,-0.9762357473373413
1761400625838524200,2.291524169921875,1.3501801490783691,2.19346284866333,-0.16145898401737213
1761400625848607000,2.30160693359375,1.2109423875808716,2.5412955284118652,2.276287317276001
1761400625858706400,2.31170654296875,0.23350948095321655,0.23201310634613037,5.3196916580200195
1761400625868775700,2.321775634765625,-0.026411037892103195,-1.9007717370986938,5.952958106994629
1761400625878850600,2.3318505859375,-0.06052841246128082,-3.442862033843994,5.764339923858643
1761400625888944400,2.3419443359375,0.1422305405139923,-4.010662078857422,5.61799430847168
1761400625899026000,2.35202587890625,0.680626630783081,-3.722160577774048,4.821024417877197
1761400625909101600,2.3621015625,0.564956784248352,-3.0451252460479736,2.9927520751953125
1761400625919175000,2.3721748046875,-0.6825719475746155,-2.660407066345215,0.8522610068321228
1761400625929259800,2.382259765625,-1.7064672708511353,-2.6126725673675537,-0.9180266857147217
1761400625939350000,2.39235009765625,-0.5218611359596252,-2.527977705001831,-1.6796072721481323
1761400625949424600,2.402424560546875,0.8476222157478333,-2.2781577110290527,-1.6584335565567017
1761400625959499300,2.412499267578125,1.8906711339950562,-1.685667634010315,-0.43851301074028015
1761400625969578200,2.422578125,1.5954362154006958,-1.6072574853897095,-0.4115782380104065
1761400625979665400,2.43266552734375,0.4242226183414459,-1.0476129055023193,-1.0627262592315674
1761400625989743000,2.4427431640625,-0.6955904364585876,-1.0951228141784668,-2.2702269554138184
1761400625999836400,2.45283642578125,-1.0794856548309326,-0.28737902641296387,-2.5010428428649902
1761400626009917700,2.462917724609375,-0.8823381662368774,1.0153659582138062,-1.5426888465881348
1761400626019998500,2.47299853515625,-0.3819499909877777,2.0084359645843506,-0.1833808869123459
1761400626030067000,2.48306689453125,-0.36489129066467285,2.225036382675171,1.1059715747833252
1761400626040145400,2.4931455078125,-0.48467621207237244,1.926060438156128,2.0156185626983643
1761400626050218200,2.50321826171875,-0.8189666271209717,1.0910078287124634,2.480767011642456
1761400626060323000,2.513322998046875,-0.9247604012489319,0.8417863249778748,2.8003928661346436
1761400626070391800,2.523391845703125,-1.1215338706970215,0.9497498869895935,3.2125697135925293
1761400626080485400,2.5334853515625,-1.3013982772827148,1.2351088523864746,3.069366693496704
1761400626090564400,2.543564453125,-1.1292401552200317,1.0217255353927612,2.5055320262908936
1761400626100630500,2.553630615234375,-0.7103297114372253,0.6055833697319031,1.7443255186080933
1761400626110728200,2.563728271484375,-0.4833294749259949,0.8170961737632751,1.0174609422683716
1761400626120800000,2.573800048828125,-0.28880056738853455,1.8547581434249878,0.8392425179481506
1761400626130890500,2.583890380859375,0.0785597413778305,2.306514024734497,0.3811269700527191
1761400626140972000,2.593971923828125,1.035567045211792,2.069488048553467,-0.3247884213924408
1761400626151040300,2.604040283203125,2.38694429397583,1.5382746458053589,-0.850989043712616
1761400626161129500,2.61412939453125,3.8091001510620117,0.7344213724136353,-1.7658734321594238
1761400626171202000,2.6242021484375,4.929361820220947,-0.4819827377796173,-3.366621732711792
1761400626181299200,2.63429931640625,4.327744007110596,-2.3891139030456543,-3.6507835388183594
1761400626191377200,2.644377197265625,2.8178257942199707,-3.4730887413024902,-3.086425304412842
1761400626201447000,2.654447021484375,2.342576742172241,-5.043011665344238,-5.0830397605896
1761400626211539200,2.664539306640625,4.558559894561768,-8.664915084838867,-10.102932929992676
1761400626221608000,2.67460791015625,10.078242301940918,-13.826664924621582,-17.48081398010254
1761400626231697400,2.684697509765625,13.52469539642334,-19.412635803222656,-22.6029109954834
1761400626241773800,2.69477392578125,9.427393913269043,-21.157785415649414,-24.78215789794922
1761400626251856000,2.70485595703125,7.522282600402832,-16.304588317871094,-20.443939208984375
1761400626261932300,2.714932373046875,10.722731590270996,-10.824934005737305,-16.709583282470703
1761400626272025900,2.72502587890625,9.541043281555176,-15.932888984680176,-23.210514068603516
1761400626282115800,2.73511572265625,10.715399742126465,-26.400787353515625,-34.2110481262207
1761400626292175400,2.74517529296875,13.359570503234863,-36.95240783691406,-42.506431579589844
1761400626302269200,2.755269287109375,13.344756126403809,-41.262271881103516,-34.299930572509766
1761400626312355300,2.765355224609375,14.600814819335938,-31.591041564941406,-24.836101531982422
1761400626322422500,2.775422607421875,13.529633522033691,-22.342166900634766,-20.916194915771484
1761400626332500200,2.785500244140625,10.476428031921387,-23.39127540588379,-19.861249923706055
1761400626342593300,2.79559326171875,5.613430500030518,-26.822465896606445,-19.333852767944336
1761400626352674300,2.80567431640625,2.4531588554382324,-26.20356559753418,-18.827926635742188
1761400626362753500,2.81575341796875,0.18068741261959076,-21.86459732055664,-16.745046615600586
1761400626372836600,2.825836669921875,-0.4189104735851288,-17.26451301574707,-14.809409141540527
1761400626382923500,2.835923583984375,0.5597943067550659,-13.126509666442871,-12.809203147888184
1761400626392987600,2.845987548828125,2.103081703186035,-9.897480010986328,-11.825261116027832
1761400626403079000,2.856078857421875,3.59564208984375,-7.60024356842041,-11.320833206176758
1761400626413160700,2.86616064453125,3.6646249294281006,-5.588814735412598,-10.395249366760254
1761400626423211000,2.8762109375,1.7448493242263794,-3.3681929111480713,-7.8162455558776855
1761400626433325300,2.8863251953125,0.93254154920578,-1.105747103691101,-2.959383010864258
1761400626443378700,2.896378662109375,-0.8033294677734375,-0.5569511651992798,1.6143653392791748
1761400626453476600,2.9064765625,-2.3680150508880615,-1.0541220903396606,2.8785037994384766
1761400626463541000,2.916541015625,-2.861968755722046,-1.8858827352523804,1.8865561485290527
1761400626473622300,2.926622314453125,-3.5246388912200928,-1.8562544584274292,0.7084592580795288
1761400626483703000,2.936703125,-2.1571009159088135,-1.3955203294754028,-0.14088380336761475
1761400626493774800,2.94677490234375,-0.7549965381622314,-1.2213420867919922,-0.5761047601699829
1761400626503853800,2.956853759765625,-1.1354501247406006,0.3000234067440033,-0.04586392641067505
1761400626513934800,2.966934814453125,-1.6677111387252808,2.7647793292999268,1.5726912021636963
1761400626524016000,2.97701611328125,-1.0375871658325195,4.065279483795166,3.2892589569091797
1761400626534097000,2.987096923828125,-0.7580640912055969,0.6797288060188293,4.01881742477417
1761400626544174300,2.99717431640625,-0.5045779943466187,-1.0554687976837158,3.98260498046875
1761400626554267000,3.007266845703125,-0.3031657934188843,-1.5918447971343994,4.166135311126709
1761400626564376800,3.017376953125,0.4098573923110962,-2.375796318054199,3.87546443939209
1761400626574433300,3.027433349609375,1.5768063068389893,-3.2414498329162598,2.7615621089935303
1761400626584539400,3.037539306640625,1.7735048532485962,-3.9320273399353027,1.4056956768035889
1761400626594620700,3.04762060546875,0.6598270535469055,-4.514267444610596,0.6083517074584961
1761400626604675800,3.05767578125,-1.57523512840271,-5.654057025909424,0.1256955862045288
1761400626614783700,3.06778369140625,-2.361281394958496,-4.414459228515625,-0.4165911078453064
1761400626624844000,3.077843994140625,-0.5783493518829346,-2.720262050628662,-1.3034931421279907
1761400626634945800,3.08794580078125,1.6511762142181396,-2.1692216396331787,-2.229076623916626
1761400626645025800,3.09802587890625,1.936460256576538,-2.1980268955230713,-2.4846575260162354
1761400626655106600,3.1081064453125,0.7484872937202454,-1.961898684501648,-2.0481648445129395
1761400626665188900,3.11818896484375,-0.5450549721717834,-1.3418004512786865,-1.210044503211975
1761400626675247900,3.128247802734375,-0.8655787110328674,-0.3444657623767853,-0.4165162742137909
1761400626685351200,3.13835107421875,-0.506298840045929,0.21689970791339874,-0.14597149193286896
1761400626695431200,3.14843115234375,-0.008678981103003025,0.9195979237556458,0.2546831965446472
1761400626705486600,3.158486572265625,0.33002573251724243,1.5488988161087036,0.8830863237380981
1761400626715567000,3.168567138671875,0.35351884365081787,1.9443910121917725,1.3835493326187134
1761400626725649000,3.17864892578125,0.13198037445545197,2.0579659938812256,1.623343586921692
1761400626735756300,3.18875634765625,-0.08080431073904037,1.7158195972442627,1.6720505952835083
1761400626745837000,3.198837158203125,-0.36010289192199707,1.220294713973999,1.622071623802185
1761400626755942400,3.2089423828125,-0.6931962370872498,0.7780407071113586,1.3331962823867798
1761400626766019800,3.219019775390625,-0.6700772047042847,0.37805941700935364,0.6768109202384949
1761400626776070000,3.22906982421875,-0.3816507160663605,0.5911433696746826,0.1288379728794098
1761400626786148600,3.239148681640625,0.1298106163740158,0.9759364724159241,-0.0785597413778305
1761400626796242200,3.2492421875,1.086593508720398,1.0514286756515503,-0.21181203424930573
1761400626806323500,3.259323486328125,2.0375404357910156,0.5452794432640076,-0.41546881198883057
1761400626816405000,3.269405029296875,3.330409288406372,-0.28057050704956055,-0.6343138217926025
1761400626826485000,3.279485107421875,4.781594753265381,-1.136123538017273,-1.247977614402771
1761400626836566300,3.289566162109375,4.952181816101074,-2.023399829864502,-3.0143747329711914
1761400626846647600,3.2996474609375,3.8890066146850586,-2.9643208980560303,-5.203049182891846
1761400626856729300,3.309729248046875,1.8886510133743286,-4.759223937988281,-6.899341106414795
1761400626866810400,3.319810302734375,2.0424036979675293,-6.570662021636963,-7.313762664794922
1761400626876892000,3.329891845703125,4.891204357147217,-8.86019229888916,-8.700678825378418
1761400626886976000,3.33997607421875,8.101978302001953,-11.14156723022461,-10.68674373626709
1761400626897053000,3.350052978515625,9.854010581970215,-12.99692440032959,-10.838700294494629
1761400626907134700,3.360134765625,7.489062786102295,-14.65438461303711,-12.287940979003906
1761400626917195500,3.370195556640625,3.892148971557617,-13.752893447875977,-13.962310791015625
1761400626927256000,3.380256103515625,3.712284564971924,-10.941726684570312,-12.647893905639648
1761400626937377000,3.390376953125,8.878149032592773,-12.885443687438965,-16.128314971923828
1761400626947458800,3.400458740234375,15.062820434570312,-19.62542152404785,-25.414226531982422
1761400626957539000,3.4105390625,10.167651176452637,-25.55436134338379,-28.833147048950195
1761400626967620000,3.4206201171875,6.690746307373047,-32.40499496459961,-28.48875617980957
1761400626977702100,3.4307021484375,12.08967113494873,-36.77067184448242,-29.90574836730957
1761400626987782700,3.44078271484375,12.37181282043457,-30.496967315673828,-26.34235382080078
1761400626997864400,3.450864501953125,10.594717025756836,-24.839841842651367,-20.244321823120117
1761400627007945200,3.4609453125,10.200421333312988,-22.802974700927734,-18.26581382751465
1761400627018022700,3.471022705078125,6.883030414581299,-22.733169555664062,-18.145206451416016
1761400627028102700,3.4811025390625,3.837456464767456,-21.458332061767578,-18.143110275268555
1761400627038185700,3.491185791015625,2.867280960083008,-19.594894409179688,-18.265365600585938
1761400627048269800,3.501269775390625,1.9360113143920898,-18.68824005126953,-19.48236656188965
1761400627058346200,3.51134619140625,0.3527706563472748,-17.848848342895508,-20.07455825805664
1761400627068431000,3.52143115234375,-0.04803367331624031,-15.531635284423828,-17.865009307861328
1761400627078512400,3.531512451171875,0.14769232273101807,-11.611952781677246,-14.286500930786133
1761400627088573400,3.541573486328125,2.2073042392730713,-8.640449523925781,-10.735824584960938
1761400627098649900,3.55164990234375,4.064755916595459,-6.34411096572876,-7.352443695068359
1761400627108756200,3.561756103515625,3.022230625152588,-4.220378875732422,-4.2728271484375
1761400627118835700,3.571835693359375,0.5111620426177979,-3.862670421600342,-3.5189528465270996
1761400627128918300,3.581918212890625,0.6991068720817566,-4.618489742279053,-3.5184290409088135
1761400627138998800,3.591998779296875,-2.5147347450256348,-4.741791248321533,-2.823961019515991
1761400627149079800,3.602079833984375,-5.000365257263184,-4.330586910247803,-1.1774234771728516
1761400627159135700,3.6121357421875,-5.236942291259766,-3.5299510955810547,-0.3063829839229584
1761400627169217300,3.62221728515625,-3.4099416732788086,-2.1146037578582764,-0.2819172441959381
1761400627179322600,3.632322509765625,-0.6009446382522583,-0.49896660447120667,-0.8470984697341919
1761400627189400300,3.642400390625,2.9025955200195312,1.1752537488937378,-1.8830395936965942
1761400627199486000,3.65248583984375,3.3441011905670166,1.4609867334365845,-2.086920976638794
1761400627209566700,3.662566650390625,0.8129063248634338,1.9901801347732544,2.110114812850952
1761400627219647500,3.6726474609375,-1.5966333150863647,1.5975310802459717,6.053963661193848
1761400627229728500,3.682728515625,-2.7053730487823486,-0.7714566588401794,6.007800102233887
1761400627239809300,3.692809326171875,-2.7078421115875244,-2.3592612743377686,5.611260414123535
1761400627249886500,3.702886474609375,-1.877652645111084,-2.7889456748962402,5.466710567474365
1761400627259972000,3.71297216796875,-0.812981128692627,-2.8912978172302246,4.661510944366455
1761400627270020000,3.72302001953125,-0.7056909799575806,-3.2531216144561768,2.298433542251587
1761400627280134000,3.7331337890625,-1.3272855281829834,-3.414954662322998,-0.4014776945114136
1761400627290215200,3.743215087890625,-0.8683470487594604,-2.6262147426605225,-2.105550765991211
1761400627300296700,3.753296630859375,0.767192006111145,-1.072826862335205,-2.9875147342681885
1761400627310377000,3.763376953125,1.7984195947647095,0.2371007800102234,-3.092710018157959
1761400627320420400,3.77342041015625,1.7805378437042236,1.5411176681518555,-2.521692991256714
1761400627330539500,3.78353955078125,1.5487492084503174,2.6203789710998535,-1.6890344619750977
1761400627340621000,3.79362109375,0.890568196773529,2.2013187408447266,-0.9516952037811279
1761400627360757800,3.8137578125,-0.2726397216320038,0.22797289490699768,0.5711667537689209
1761400627370838500,3.823838623046875,-0.3164087235927582,-0.8141782283782959,1.3302782773971558
1761400627380941000,3.833941162109375,-0.17170915007591248,-1.7803133726119995,1.5721675157546997
1761400627391025700,3.844025634765625,-0.25415948033332825,-2.1088428497314453,1.4442273378372192
1761400627401082400,3.854082275390625,-0.7071124911308289,-1.086294174194336,1.4766238927841187
1761400627411188000,3.86418798828125,-1.0968436002731323,0.2379986196756363,1.7786674499511719
1761400627421269000,3.87426904296875,-1.398288607597351,1.2760347127914429,2.160767078399658
1761400627431350000,3.88435009765625,-1.459265947341919,1.6552163362503052,2.146401882171631
1761400627441427500,3.894427490234375,-1.0506056547164917,1.456647276878357,1.746794581413269
1761400627451512800,3.904512939453125,-0.4998644292354584,1.0373626947402954,1.333420753479004
1761400627461594000,3.914593994140625,0.1379658728837967,0.5519382953643799,0.8505401611328125
1761400627471674600,3.924674560546875,0.7267898321151733,0.6222679615020752,0.841038167476654
1761400627481730300,3.934730224609375,1.4513351917266846,0.5550807118415833,0.34925416111946106
1761400627491837000,3.9448369140625,2.841618061065674,0.024690205231308937,-0.47397711873054504
1761400627501892600,3.954892578125,4.547935962677002,-0.42863690853118896,-1.5463550090789795
1761400627511994600,3.96499462890625,5.566443920135498,-0.3886088728904724,-2.383577346801758
1761400627522054700,3.9750546875,5.661538600921631,-1.6873884201049805,-3.063455820083618
1761400627532136400,3.985136474609375,3.7636849880218506,-3.986570358276367,-3.548356533050537
1761400627542218000,3.995218017578125,1.2364555597305298,-6.734216213226318,-4.908562183380127
1761400627552277000,4.005277099609375,0.048407766968011856,-10.43460464477539,-7.32663106918335
1761400627562378800,4.015378662109375,0.6152350306510925,-14.156615257263184,-10.097845077514648
1761400627572459300,4.025459228515625,4.626121520996094,-15.547870635986328,-13.5476655960083
1761400627582567400,4.0355673828125,8.017059326171875,-15.377059936523438,-16.92558479309082
1761400627592647400,4.0456474609375,9.07686710357666,-14.82848834991455,-19.60888671875
1761400627602729200,4.055729248046875,11.587786674499512,-13.830928802490234,-19.87000274658203
1761400627612810200,4.065810302734375,16.947805404663086,-17.705944061279297,-23.806594848632812
1761400627622890800,4.075890869140625,8.984092712402344,-24.239347457885742,-28.46339225769043
1761400627632972500,4.08597265625,5.806762218475342,-32.688785552978516,-32.921695709228516
1761400627643049700,4.0960498046875,12.661361694335938,-42.421661376953125,-37.23028564453125
1761400627653154300,4.106154296875,16.185253143310547,-42.27022933959961,-35.319488525390625
1761400627663215900,4.1162158203125,11.145606994628906,-28.178707122802734,-23.971494674682617
1761400627673296100,4.126296142578125,9.474305152893066,-23.458837509155273,-19.86005210876465
1761400627683351600,4.1363515625,7.815796852111816,-23.383270263671875,-19.88347053527832
1761400627693459000,4.146458984375,5.35089111328125,-22.866870880126953,-19.410167694091797
1761400627703535400,4.156535400390625,2.5813982486724854,-21.964330673217773,-17.91573715209961
1761400627713621500,4.16662158203125,1.2082488536834717,-18.115951538085938,-15.611018180847168
1761400627723691000,4.17669091796875,0.9904513359069824,-14.57844352722168,-13.587019920349121
1761400627733783600,4.186783447265625,1.3688100576400757,-12.266841888427734,-12.265420913696289
1761400627743835000,4.1968349609375,1.995941162109375,-10.59928035736084,-10.767622947692871
1761400627753945300,4.2069453125,2.2340893745422363,-8.951171875,-8.95468807220459
1761400627764002300,4.217002197265625,2.707468032836914,-6.274230003356934,-6.409727096557617
1761400627774107100,4.227107177734375,2.4240543842315674,-4.364180564880371,-3.180023670196533
1761400627784162800,4.237162841796875,1.0505307912826538,-4.4755859375,-1.6280571222305298
1761400627794270000,4.24727001953125,0.35022681951522827,-4.860678195953369,-1.8528128862380981
1761400627804350000,4.257349853515625,-0.6699275374412537,-3.453486204147339,0.08753799647092819
1761400627814426600,4.267426513671875,-3.2207999229431152,-2.2956652641296387,1.2746131420135498
1761400627824512000,4.277511962890625,-4.167182922363281,-0.15480010211467743,1.783829927444458
1761400627834568400,4.287568359375,-3.6741268634796143,1.8656069040298462,2.1629366874694824
1761400627844675000,4.297675048828125,-2.517652750015259,3.3909378051757812,0.7518541812896729
1761400627854755600,4.307755615234375,-0.6337900757789612,3.0551509857177734,0.24996961653232574
1761400627864837400,4.31783740234375,1.1650035381317139,1.4382418394088745,0.5942857265472412
1761400627874918000,4.32791796875,1.6169840097427368,-0.4140472710132599,3.0086138248443604
1761400627884999400,4.33799951171875,-0.16796821355819702,-1.256731390953064,4.139799118041992
1761400627895080700,4.348080810546875,-1.3900585174560547,-1.558550477027893,5.308917999267578
1761400627905161200,4.3581611328125,-0.919747531414032,-1.682076334953308,5.6029558181762695
1761400627915241700,4.36824169921875,0.3719990849494934,-1.9933973550796509,5.049820423126221
1761400627925323500,4.378323486328125,0.40297406911849976,-2.26401686668396,3.3290627002716064
1761400627935403300,4.3884033203125,0.1629553586244583,-2.451138734817505,1.277381420135498
1761400627945485300,4.3984853515625,-0.30952540040016174,-2.6961703300476074,-0.08170213550329208
1761400627955541000,4.408541015625,-0.7939023375511169,-2.3708581924438477,-1.2146084308624268
1761400627965643500,4.4186435546875,-0.6459107398986816,-2.0039467811584473,-2.0067899227142334
1761400627975728600,4.428728759765625,-0.13587094843387604,-1.6033669710159302,-2.1365256309509277
1761400627985800700,4.43880078125,0.27645549178123474,-1.5774048566818237,-1.7281646728515625
1761400627995868000,4.448867919921875,0.13160628080368042,-1.8335844278335571,-1.3454664945602417
1761400628005971700,4.4589716796875,0.023193828761577606,-1.9279309511184692,-0.8443301916122437
1761400628016040400,4.46904052734375,0.4701613485813141,-1.713874340057373,-0.4339490532875061
1761400628026131200,4.479131103515625,0.5850082039833069,-1.3393313884735107,-0.25423428416252136
1761400628036189400,4.489189453125,0.24570494890213013,-1.1035773754119873,-0.2083703726530075
1761400628046296000,4.499296142578125,-0.26313772797584534,-0.847322940826416,-0.16579847037792206
1761400628056377000,4.509377197265625,-1.1516109704971313,-0.36908116936683655,0.09950900822877884
1761400628066458000,4.5194580078125,-1.396867036819458,-0.3628711998462677,0.815450131893158
1761400628076539100,4.5295390625,-1.4764742851257324,-0.1132756695151329,1.693748116493225
1761400628086617000,4.5396171875,-1.656488299369812,0.07698854804039001,2.281599283218384
1761400628096701700,4.54970166015625,-1.251793384552002,0.3126677870750427,2.2344634532928467
1761400628106782500,4.559782470703125,-0.42287588119506836,0.1445499211549759,1.771933674812317
1761400628116838400,4.56983837890625,0.22288522124290466,0.11941081285476685,1.6012719869613647
1761400628126944800,4.57994482421875,0.4431517720222473,-0.2596212327480316,1.023895263671875
1761400628137025800,4.59002587890625,0.5263502597808838,-0.1694645881652832,0.1404348909854889
1761400628157163000,4.6101630859375,1.627308964729309,-1.1065701246261597,-0.31700727343559265
1761400628167268600,4.6202685546875,2.761038303375244,-2.46864652633667,-0.3577086925506592
1761400628177350000,4.630349853515625,3.8214452266693115,-3.74019193649292,0.35501521825790405
1761400628187431400,4.640431396484375,3.591003179550171,-4.174215793609619,0.6023662090301514
1761400628197512000,4.650511962890625,2.3423521518707275,-5.202001571655273,-1.4151228666305542
1761400628207593200,4.66059326171875,2.0062661170959473,-6.677204132080078,-4.075380325317383
1761400628217674200,4.67067431640625,3.9816322326660156,-7.674912929534912,-6.936077117919922
1761400628227730700,4.680730712890625,8.148740768432617,-7.616329669952393,-10.944494247436523
1761400628237836800,4.6908369140625,11.061436653137207,-6.49793815612793,-14.654160499572754
1761400628247880400,4.70088037109375,11.16356372833252,-3.483788013458252,-16.465673446655273
1761400628257997000,4.7109970703125,9.771784782409668,-1.7755249738693237,-16.83318328857422
1761400628268076300,4.721076171875,6.863951683044434,-3.936067581176758,-19.139846801757812
1761400628278158300,4.731158447265625,5.7095723152160645,-11.79136848449707,-23.845800399780273
1761400628288267300,4.741267333984375,5.2655229568481445,-14.214076042175293,-24.4608097076416
1761400628298332000,4.751331787109375,5.878513336181641,-12.894796371459961,-25.72240447998047
1761400628308404700,4.76140478515625,6.743194103240967,-13.26791763305664,-27.950807571411133
1761400628318471400,4.771471435546875,8.415019989013672,-13.342811584472656,-29.812076568603516
1761400628328540000,4.781539794921875,11.897236824035645,-17.23391342163086,-30.665010452270508
1761400628338622200,4.791622314453125,9.734450340270996,-24.882564544677734,-29.70710563659668
1761400628348729300,4.801729248046875,11.469797134399414,-29.489458084106445,-23.407062530517578
1761400628358809300,4.811809326171875,12.683134078979492,-27.305421829223633,-20.400394439697266
1761400628368890400,4.821890380859375,8.523956298828125,-21.054161071777344,-18.112060546875
1761400628378972000,4.831971923828125,5.708824157714844,-15.874380111694336,-15.709105491638184
1761400628389052700,4.842052734375,3.704653024673462,-15.84647274017334,-16.45347785949707
1761400628399130400,4.85213037109375,1.2930185794830322,-17.899051666259766,-18.87169647216797
1761400628409176000,4.862176025390625,-1.3136684894561768,-18.70118522644043,-21.43349266052246
1761400628419297000,4.872297119140625,-3.6029741764068604,-17.89501190185547,-23.05234718322754
1761400628429376800,4.882376708984375,-0.5405658483505249,-15.22315788269043,-20.86008071899414
1761400628439458300,4.892458251953125,2.269179582595825,-11.996521949768066,-15.797391891479492
1761400628449513700,4.902513671875,1.351077914237976,-9.676240921020508,-9.66845989227295
1761400628459620000,4.9126201171875,1.1948562860488892,-7.391573905944824,-5.348347187042236
1761400628469697300,4.922697265625,0.36982935667037964,-6.267197132110596,-2.4367735385894775
1761400628479782400,4.932782470703125,-0.29867666959762573,-5.820004940032959,-1.6267104148864746
1761400628489863200,4.94286328125,0.26403555274009705,-5.983035087585449,-3.3098342418670654
1761400628499945000,4.952945068359375,-0.87530517578125,-6.330942630767822,-3.859528064727783
1761400628510000000,4.963000244140625,-2.97666597366333,-5.842076778411865,-2.501342296600342
1761400628520106500,4.9731064453125,-3.8268320560455322,-3.6127755641937256,-0.4117278754711151
1761400628530184000,4.983183837890625,-3.1711201667785645,-0.325761079788208,1.1737574338912964
1761400628540243500,4.993243408203125,-1.9788076877593994,2.080411672592163,1.1428571939468384
1761400628550324500,5.003324462890625,0.5726631283760071,3.0744543075561523,0.35179799795150757
1761400628560430600,5.0134306640625,3.994875192642212,2.261772394180298,1.1650784015655518
1761400628580593400,5.033593505859375,0.5894225239753723,-1.0848726034164429,3.3261446952819824
1761400628590656800,5.04365673828125,-0.8152256608009338,-1.5081225633621216,5.056478977203369
1761400628600730400,5.05373046875,-0.6575824618339539,-2.1318869590759277,5.243900299072266
1761400628610811600,5.063811767578125,-0.5574749112129211,-3.2199769020080566,5.068225860595703
1761400628630999000,5.0839990234375,-0.36743512749671936,-3.5704281330108643,3.394603967666626
1761400628641079800,5.094079833984375,0.5226093530654907,-2.921375036239624,2.525209426879883
1761400628651161000,5.1041611328125,1.0433481931686401,-1.6117466688156128,0.9365817904472351
1761400628671323100,5.1243232421875,2.4571990966796875,-0.24398411810398102,-3.2527475357055664
1761400628681404400,5.134404296875,0.3891325891017914,-0.676736056804657,-4.458003520965576
1761400628691485000,5.14448486328125,-1.1875988245010376,-0.3487304449081421,-4.170175552368164
1761400628701540900,5.154540771484375,-1.288753867149353,0.39893385767936707,-3.39871883392334
1761400628711647000,5.16464697265625,-0.992321789264679,1.3696329593658447,-2.4830117225646973
1761400628721724700,5.174724609375,-0.7133972644805908,1.427542805671692,-2.110189437866211
1761400628731809000,5.18480908203125,-0.6229413747787476,1.0218003988265991,-1.05569326877594
1761400628741866500,5.194866455078125,-0.5942109227180481,1.2423661947250366,0.6079027652740479
1761400628751971300,5.204971435546875,-0.566153883934021,1.4451252222061157,1.9000983238220215
1761400628762027500,5.215027587890625,-0.6151602268218994,0.9397241473197937,2.3447465896606445
1761400628772133600,5.225133544921875,-0.8772504925727844,0.45257893204689026,2.25705885887146
1761400628782214700,5.235214599609375,-0.9000701904296875,0.36234745383262634,1.9264345169067383
1761400628792292000,5.2452919921875,-0.9047837853431702,0.3182043731212616,1.7099089622497559
1761400628802367500,5.255367431640625,-0.7692869305610657,0.0991349145770073,1.5536872148513794
1761400628812458000,5.2654580078125,-0.12195464968681335,-0.3816507160663605,1.0373626947402954
1761400628822539800,5.275539794921875,1.135001301765442,-0.8570494055747986,0.6471826434135437
1761400628832595000,5.285594970703125,2.6395325660705566,-1.2966846227645874,0.19572599232196808
1761400628842701000,5.295701171875,4.229207515716553,-1.9078046083450317,-0.36152446269989014
1761400628852778000,5.305778076171875,4.840701580047607,-2.8023383617401123,-1.2764836549758911
1761400628862863400,5.31586328125,4.124760627746582,-3.884218215942383,-1.957783579826355
1761400628872944400,5.3259443359375,2.9455413818359375,-5.318793773651123,-2.8546366691589355
1761400628883025400,5.336025390625,1.6842460632324219,-7.415366172790527,-5.112144470214844
1761400628893106700,5.346106689453125,1.9474586248397827,-8.932392120361328,-7.790732383728027
1761400628903187700,5.356187744140625,3.71512770652771,-9.641449928283691,-9.681478500366211
1761400628913268500,5.3662685546875,5.71780252456665,-10.451064109802246,-11.15653133392334
1761400628923346000,5.376345947265625,7.524601936340332,-11.288287162780762,-13.726482391357422
1761400628933430800,5.3864306640625,9.427693367004395,-11.488876342773438,-16.58216667175293
1761400628943486500,5.396486572265625,10.429591178894043,-10.389264106750488,-18.057144165039062
1761400628953593000,5.406593017578125,10.554763793945312,-6.2358479499816895,-17.36342430114746
1761400628963674000,5.416674072265625,8.305709838867188,-1.1820622682571411,-15.790059089660645
1761400628973755100,5.426755126953125,4.149675369262695,-0.44831427931785583,-16.261716842651367
1761400628983832000,5.43683203125,1.1516858339309692,-5.089100360870361,-18.74510383605957
1761400628993893400,5.446893310546875,0.20268413424491882,-10.42308235168457,-21.425485610961914
1761400629003998200,5.456998291015625,6.5622076988220215,-14.477887153625488,-26.179697036743164
1761400629014079200,5.467079345703125,15.124471664428711,-15.445144653320312,-24.048559188842773
1761400629024160500,5.477160400390625,10.175207138061523,-18.494535446166992,-14.46008014678955
1761400629034241500,5.487241455078125,7.571064472198486,-26.347291946411133,-11.112013816833496
1761400629044323300,5.4973232421875,8.091728210449219,-30.32510757446289,-12.662558555603027
1761400629054404000,5.507404052734375,11.24563980102539,-27.589359283447266,-14.092795372009277
1761400629064485000,5.517485107421875,7.792752265930176,-24.288127899169922,-19.047595977783203
1761400629074566400,5.52756640625,4.537835121154785,-22.639795303344727,-25.994522094726562
1761400629084647000,5.53764697265625,1.9508254528045654,-21.440824508666992,-29.443817138671875
1761400629094728400,5.547728515625,1.048660397529602,-19.27766227722168,-30.42371940612793
1761400629104809200,5.557809326171875,1.0429741144180298,-16.671873092651367,-27.371187210083008
1761400629114891000,5.56789111328125,2.5330653190612793,-14.549938201904297,-21.61552619934082
1761400629124944400,5.5779443359375,3.7230584621429443,-10.104578971862793,-14.212803840637207
1761400629135052500,5.588052490234375,3.642852783203125,-8.020126342773438,-7.826121807098389
1761400629145133300,5.59813330078125,2.1467010974884033,-8.883161544799805,-4.112340927124023
1761400629155214300,5.60821435546875,1.3460650444030762,-9.347711563110352,-2.6648213863372803
1761400629165295400,5.61829541015625,0.8788216710090637,-9.138967514038086,-3.894019365310669
1761400629175378000,5.6283779296875,0.053196169435977936,-8.62503719329834,-4.239607334136963
1761400629185458200,5.638458251953125,-1.794080138206482,-6.198513507843018,-3.4031331539154053
1761400629195539000,5.6485390625,-2.974945306777954,-2.8696751594543457,-2.1354033946990967
1761400629205619700,5.65861962890625,-3.4833390712738037,0.47749361395835876,0.14021043479442596
1761400629215670300,5.668670166015625,-2.4588451385498047,1.6860417127609253,1.8059014081954956
1761400629235863000,5.688863037109375,1.5399954319000244,0.8484452366828918,-0.21039047837257385
1761400629245944800,5.69894482421875,3.501819372177124,0.5794716477394104,-2.0841526985168457
1761400629256025000,5.709025146484375,2.9730746746063232,-0.20881928503513336,-3.0446014404296875
1761400629266081300,5.719081298828125,0.34192192554473877,-2.089763879776001,-1.011325716972351
1761400629276162300,5.729162353515625,-0.7083095908164978,-2.82710337638855,1.0580874681472778
1761400629286269400,5.73926953125,0.410979688167572,-2.957512378692627,2.6942999362945557
1761400629296349700,5.749349609375,1.289950966835022,-3.980734348297119,3.7639095783233643
1761400629306431000,5.759430908203125,-0.08768763393163681,-4.866439342498779,4.57120418548584
1761400629316512300,5.76951220703125,-1.603142499923706,-4.64557409286499,4.600907325744629
1761400629326592800,5.7795927734375,-1.1353005170822144,-3.95409893989563,3.324124574661255
1761400629336653300,5.7896533203125,0.579995334148407,-2.356717586517334,1.5991771221160889
1761400629346755300,5.79975537109375,1.4258967638015747,-1.1193641424179077,-0.5879261493682861
1761400629356835800,5.8098359375,1.073724627494812,-0.9917232394218445,-2.70223069190979
1761400629366918100,5.819918212890625,-0.6360346674919128,-1.003843903541565,-3.7323360443115234
1761400629376999000,5.8299990234375,-2.6704328060150146,-0.8126070499420166,-3.010633707046509
1761400629387079700,5.84007958984375,-3.5039889812469482,0.071077860891819,-0.8647557497024536
1761400629397160400,5.850160400390625,-2.5509471893310547,0.8344541192054749,1.0045920610427856
1761400629407241500,5.860241455078125,-1.7020529508590698,0.7336731553077698,1.4878467321395874
1761400629417323000,5.870322998046875,-1.5101426839828491,1.625962257385254,1.733102798461914
1761400629427378400,5.88037841796875,-0.788739800453186,3.4989013671875,2.474482297897339
1761400629437485600,5.890485595703125,-0.05065232887864113,4.416179656982422,3.050886392593384
1761400629447565800,5.90056591796875,0.46731823682785034,4.750844478607178,2.7298388481140137
1761400629457610500,5.910610595703125,0.8670002818107605,5.2771196365356445,1.2314426898956299
1761400629467728000,5.920727783203125,0.7039701342582703,5.396455764770508,-0.37401920557022095
1761400629477809000,5.930808837890625,0.1280897855758667,4.625223636627197,-1.5614683628082275
1761400629487890000,5.940889892578125,0.8871265649795532,3.4100914001464844,-1.657909870147705
1761400629497971700,5.9509716796875,2.859724283218384,2.0371663570404053,-0.23567922413349152
1761400629508048100,5.961048095703125,4.496834754943848,1.2152069807052612,0.8601169586181641
1761400629518130000,5.9711298828125,5.738602161407471,0.3010708689689636,0.2990507483482361
1761400629528212500,5.98121240234375,6.138733386993408,-0.36332011222839355,-1.7256957292556763
1761400629538270200,5.991270263671875,5.991639614105225,-2.0213797092437744,-3.6279637813568115
1761400629548339200,6.001339111328125,5.792097568511963,-4.772092819213867,-4.348319053649902
1761400629558432300,6.011432373046875,4.693009376525879,-8.204180717468262,-5.189507007598877
1761400629568526000,6.021526123046875,2.1758804321289062,-12.386551856994629,-7.104643821716309
1761400629578619400,6.031619384765625,2.4857051372528076,-15.998130798339844,-10.015843391418457
1761400629588701400,6.041701416015625,5.859060287475586,-15.238794326782227,-11.278860092163086
1761400629598765600,6.051765625,10.945093154907227,-14.636279106140137,-10.570625305175781
1761400629608862700,6.06186279296875,14.271836280822754,-9.007211685180664,-9.079561233520508
1761400629618940700,6.071940673828125,11.602750778198242,-3.6781671047210693,-10.122610092163086
1761400629629010200,6.08201025390625,6.990769863128662,-4.3330559730529785,-13.654057502746582
1761400629639106600,6.0921064453125,3.841496706008911,-13.6580228805542,-20.661436080932617
1761400629649187600,6.1021875,4.364779472351074,-15.083395957946777,-22.84270477294922
1761400629659255800,6.112255859375,4.934749126434326,-10.464158058166504,-24.023569107055664
1761400629669341400,6.122341552734375,3.1354315280914307,-8.620397567749023,-24.427440643310547
1761400629679428000,6.132427978515625,2.0619313716888428,-8.554258346557617,-22.434194564819336
1761400629689499100,6.1424990234375,6.323011875152588,-8.229394912719727,-20.697423934936523
1761400629699593000,6.152593017578125,10.519000053405762,-6.410400390625,-20.545991897583008
1761400629709673500,6.162673583984375,6.479457855224609,-11.506010055541992,-19.869853973388672
1761400629719743500,6.172743408203125,3.768249034881592,-22.40561294555664,-19.973926544189453
1761400629729828400,6.182828369140625,5.567117691040039,-24.588003158569336,-17.385345458984375
1761400629739917000,6.1929169921875,9.692476272583008,-23.36800765991211,-14.573880195617676
1761400629749996500,6.20299658203125,5.223998546600342,-20.35512924194336,-12.165088653564453
1761400629760066300,6.21306640625,3.1158289909362793,-17.564311981201172,-10.513688087463379
1761400629770160400,6.223160400390625,1.3789854049682617,-15.483377456665039,-11.743708610534668
1761400629780231200,6.233231201171875,1.6647183895111084,-15.172804832458496,-12.853421211242676
1761400629790322400,6.243322509765625,0.44000938534736633,-15.066337585449219,-13.925050735473633
1761400629800403700,6.25340380859375,-0.6269067525863647,-13.531878471374512,-14.42992877960205
1761400629810482400,6.263482421875,-0.025438392534852028,-10.91366958618164,-13.914052963256836
1761400629820561000,6.273560791015625,1.304166555404663,-8.731354713439941,-15.694440841674805
1761400629830645000,6.28364501953125,3.4189200401306152,-7.091999530792236,-16.443376541137695
1761400629840714000,6.2937138671875,2.562918186187744,-5.070769786834717,-12.556540489196777
1761400629850809900,6.303809814453125,-0.04765957593917847,-5.433491230010986,-6.41848087310791
1761400629860889900,6.313889892578125,-1.2134861946105957,-8.457293510437012,-1.9549405574798584
1761400629870971000,6.323970947265625,-0.12764087319374084,-11.073107719421387,1.8161516189575195
1761400629881048000,6.334048095703125,0.2050783336162567,-11.749844551086426,4.260257244110107
1761400629891120400,6.344120361328125,-0.8915408849716187,-9.218125343322754,4.738274574279785
1761400629901203000,6.354202880859375,-1.890446662902832,-4.2072858810424805,4.730418682098389
1761400629911295500,6.36429541015625,-2.1297171115875244,-0.8692448735237122,3.572373390197754
1761400629921376500,6.37437646484375,-2.9094040393829346,0.6368576288223267,1.0232967138290405
1761400629931470600,6.384470703125,-2.5138368606567383,1.034669280052185,-1.2767828702926636
1761400629941524000,6.39452392578125,0.0934486836194992,0.6629694104194641,-3.331756114959717
1761400629951595000,6.404594970703125,2.054673910140991,0.19153612852096558,-4.176460266113281
1761400629961700900,6.414700927734375,1.2118401527404785,-0.3911527097225189,-2.9293806552886963
1761400629971777300,6.42477734375,-0.2355295866727829,-1.2820202112197876,-0.7980173826217651
1761400629981863000,6.43486279296875,0.19729718565940857,-1.898302674293518,1.186850666999817
1761400629991943700,6.444943603515625,1.7960253953933716,-2.273219585418701,2.674772262573242
1761400630002013700,6.455013671875,2.3027732372283936,-2.8006174564361572,4.491522312164307
1761400630012106500,6.4651064453125,1.5566799640655518,-2.5526678562164307,6.03383731842041
1761400630022178600,6.475178466796875,1.2317419052124023,-0.9199720025062561,6.30325984954834
1761400630032268000,6.48526806640625,0.9700257778167725,-0.3198503851890564,4.244320869445801
1761400630042348300,6.495348388671875,0.49956515431404114,-0.8949077129364014,1.595585823059082
1761400630052430600,6.5054306640625,-1.021575927734375,-1.0395324230194092,-0.5013607740402222
1761400630062511400,6.515511474609375,-2.4321348667144775,-0.384194552898407,-1.49622642993927
1761400630072589000,6.525589111328125,-2.8897266387939453,-0.25071781873703003,-3.0101101398468018
1761400630082673400,6.53567333984375,-1.9760394096374512,-0.666710376739502,-4.427028656005859
1761400630092748300,6.545748291015625,-1.316810965538025,-0.6331167221069336,-4.647369861602783
1761400630102836500,6.55583642578125,-0.7381623387336731,0.9788544178009033,-2.732008695602417
1761400630112916500,6.56591650390625,-0.18794482946395874,3.33624529838562,-0.22961890697479248
1761400630122997500,6.57599755859375,-0.23006781935691833,3.9304561614990234,1.3728501796722412
1761400630133074400,6.586074462890625,-0.2215384691953659,2.6068367958068848,1.4496891498565674
1761400630143160000,6.59616015625,0.410979688167572,1.4431798458099365,1.8222119808197021
1761400630153241600,6.60624169921875,1.7575684785842896,0.7606079578399658,1.9749171733856201
1761400630163322600,6.616322509765625,3.0823850631713867,0.8899696469306946,1.5885528326034546
1761400630173391400,6.626391357421875,4.556540012359619,0.7197569012641907,-0.01219546515494585
1761400630183484400,6.636484375,5.456984043121338,0.13916297256946564,-2.6309282779693604
1761400630193571600,6.646571533203125,5.536366939544678,-0.7811083197593689,-4.4508209228515625
1761400630203642600,6.656642578125,6.83903694152832,-1.6492308378219604,-4.7148566246032715
1761400630213727700,6.666727783203125,7.613710880279541,-3.338639497756958,-4.994678974151611
1761400630223783000,6.676782958984375,7.916652202606201,-5.458929538726807,-4.871377468109131
1761400630233863200,6.68686328125,7.21560001373291,-8.693196296691895,-4.749348163604736
1761400630243971300,6.696971435546875,5.1752166748046875,-14.08306884765625,-10.335918426513672
1761400630254051800,6.7070517578125,2.6117746829986572,-15.202507019042969,-13.376480102539062
1761400630264099000,6.71709912109375,4.26594352722168,-10.586261749267578,-14.666505813598633
1761400630274213600,6.727213623046875,6.3063273429870605,-3.3785927295684814,-15.789984703063965
1761400630284250600,6.737250732421875,4.901679039001465,-1.451709270477295,-19.25476837158203
1761400630294376000,6.7473759765625,4.331784248352051,-6.2870988845825195,-28.005800247192383
1761400630304425200,6.75742529296875,4.457330226898193,-11.109095573425293,-29.461849212646484
1761400630314538200,6.767538330078125,11.143512725830078,-14.182353019714355,-27.403060913085938
1761400630324620000,6.7776201171875,15.734244346618652,-18.297985076904297,-23.443574905395508
1761400630334700000,6.787699951171875,7.5715131759643555,-21.367650985717773,-19.42198944091797
1761400630344781300,6.79778125,7.698929786682129,-24.451383590698242,-21.705608367919922
1761400630354862300,6.8078623046875,10.925415992736816,-26.09567642211914,-23.604734420776367
1761400630364943400,6.817943359375,12.116156578063965,-24.7474422454834,-23.259370803833008
1761400630375004000,6.82800390625,5.903502941131592,-19.250728607177734,-22.245649337768555
1761400630385105700,6.838105712890625,4.431742191314697,-18.117523193359375,-22.068628311157227
1761400630395187200,6.848187255859375,1.9853169918060303,-16.970476150512695,-23.061399459838867
1761400630405267700,6.858267822265625,1.3860931396484375,-15.653365135192871,-21.639469146728516
1761400630415348700,6.8683486328125,0.5856067538261414,-13.73890209197998,-18.041656494140625
1761400630425413000,6.8784130859375,-0.18966566026210785,-14.808137893676758,-16.072574615478516
1761400630435511300,6.88851123046875,-0.4767454266548157,-16.107290267944336,-13.369446754455566
1761400630445591800,6.898591796875,-0.19026421010494232,-14.380996704101562,-8.29321575164795
1761400630455674400,6.90867431640625,0.8676736354827881,-11.782764434814453,-4.822445869445801
1761400630465754000,6.918754150390625,1.5489736795425415,-9.213262557983398,-3.1482255458831787
1761400630475816700,6.928816650390625,2.088566780090332,-6.126537799835205,-1.740659475326538
1761400630485916700,6.938916748046875,1.1281179189682007,-3.1314661502838135,-1.255833625793457
1761400630495997700,6.948997802734375,-1.035492181777954,-2.0960488319396973,-1.31007719039917
1761400630506078700,6.95907861328125,-1.3040916919708252,-2.130465507507324,0.0974889025092125
1761400630516160000,6.969159912109375,1.2974328994750977,-2.383427858352661,2.776301383972168
1761400630526204200,6.9792041015625,1.5689502954483032,-3.1309423446655273,4.492495059967041
1761400630536321500,6.989321533203125,-0.42945992946624756,-3.2362124919891357,3.031583070755005
1761400630546403000,6.999403076171875,-1.0847978591918945,-1.9910780191421509,0.26560676097869873
1761400630556488700,7.00948876953125,0.22438159584999084,-0.12322656810283661,-2.279130458831787
1761400630566539800,7.019539794921875,1.4283658266067505,1.5682021379470825,-4.094309329986572
1761400630576621300,7.029621337890625,-0.36578911542892456,2.7951557636260986,-4.232424736022949
1761400630586701300,7.039701416015625,-1.3839234113693237,2.974945306777954,-3.3376667499542236
1761400630596783000,7.049783203125,-0.5200654864311218,1.5617676973342896,-1.761907935142517
1761400630606864600,7.05986474609375,1.2258312702178955,-1.3278093338012695,0.20866964757442474
1761400630616933400,7.069933349609375,2.0353708267211914,-3.7742345333099365,1.9065327644348145
1761400630627035100,7.08003515625,1.895983338356018,-4.864419460296631,2.9811551570892334
1761400630637132000,7.090132080078125,1.0565162897109985,-4.987870216369629,3.3347489833831787
1761400630647186200,7.100186279296875,-0.25498247146606445,-4.58160400390625,2.793135643005371
1761400630657295000,7.110295166015625,-0.8075193166732788,-3.9950995445251465,1.7783681154251099
1761400630667355600,7.120355712890625,-0.5779004096984863,-3.3535284996032715,0.38299745321273804
1761400630677456600,7.13045654296875,-0.7323264479637146,-2.689361810684204,-0.4925321936607361
1761400630687537400,7.140537353515625,-1.6466870307922363,-2.1505167484283447,-0.8217349052429199
1761400630697618700,7.15061865234375,-2.1289689540863037,-1.9883097410202026,-1.0767922401428223
1761400630707700500,7.160700439453125,-0.924984872341156,-2.113032579421997,-1.2536638975143433
1761400630717781800,7.17078173828125,0.621968686580658,-2.1832127571105957,-1.1082909107208252
1761400630727862800,7.18086279296875,0.7791630029678345,-1.9716250896453857,-0.37020343542099
1761400630737943600,7.190943603515625,0.27226561307907104,-1.7265187501907349,0.22542905807495117
1761400630748019700,7.201019775390625,-0.12158055603504181,-1.3139678239822388,-0.07586626708507538
1761400630758101200,7.211101318359375,-0.538171648979187,-0.6106710433959961,-0.955585777759552
1761400630768161500,7.22116162109375,-1.161711573600769,0.42444705963134766,-0.1726817935705185
1761400630778267600,7.231267578125,-1.619452953338623,1.4090625047683716,2.539125680923462
1761400630788330200,7.241330322265625,-1.2768577337265015,1.2063783407211304,4.337021350860596
1761400630798408400,7.251408447265625,-1.0824036598205566,0.3580828011035919,4.436455726623535
1761400630808509700,7.261509765625,-0.22849662601947784,-1.00788414478302,4.016198635101318
1761400630818592800,7.2715927734375,-0.3009960353374481,-0.936357319355011,3.8279545307159424
1761400630828672800,7.2816728515625,-1.0901848077774048,0.22460605204105377,2.9327473640441895
1761400630838750000,7.29175,0.15898995101451874,1.516876459121704,1.8493711948394775
1761400630848835600,7.301835693359375,1.6456395387649536,2.1746084690093994,1.0361655950546265
1761400630858891000,7.31189111328125,3.490222454071045,2.036642551422119,-0.3818751573562622
1761400630868997600,7.32199755859375,4.793490886688232,0.9398738145828247,-1.6407015323638916
1761400630879079000,7.332078857421875,5.281683921813965,-0.11439795047044754,-3.24414324760437
1761400630889159400,7.342159423828125,4.0120086669921875,-1.1745803356170654,-5.354258060455322
1761400630899236600,7.352236572265625,1.6929250955581665,-2.709188938140869,-8.444424629211426
1761400630909321500,7.362321533203125,0.8576479554176331,-3.224465847015381,-10.75497817993164
1761400630919403300,7.3724033203125,3.0080151557922363,-2.530970573425293,-11.375600814819336
1761400630929484300,7.382484375,6.52681827545166,-2.899827241897583,-12.59424877166748
1761400630939565600,7.392565673828125,8.784850120544434,-2.849174737930298,-12.195389747619629
1761400630949621000,7.40262109375,7.617002964019775,-2.1149778366088867,-10.455179214477539
1761400630959723500,7.4127236328125,6.523900508880615,-3.162141799926758,-8.839093208312988
1761400630969808000,7.422807861328125,9.846453666687012,-8.083124160766602,-9.649755477905273
1761400630979889000,7.432888916015625,16.87942123413086,-17.74357795715332,-14.420501708984375
1761400630989970000,7.442969970703125,2.333523750305176,-23.010896682739258,-20.56716537475586
1761400631000055600,7.4530556640625,3.4251298904418945,-29.69588279724121,-33.67661666870117
1761400631010133000,7.463133056640625,22.04790496826172,-38.99787902832031,-38.32002258300781
1761400631020213000,7.473212890625,16.957082748413086,-38.061222076416016,-35.00487518310547
1761400631030291000,7.483291015625,12.656349182128906,-22.66762924194336,-31.283761978149414
1761400631040375300,7.493375244140625,10.20304012298584,-16.4532527923584,-24.090084075927734
1761400631050456000,7.5034560546875,8.878373146057129,-17.91154670715332,-18.583194732666016
1761400631060538000,7.5135380859375,5.411494255065918,-16.914287567138672,-15.237671852111816
1761400631070619400,7.523619384765625,5.039570331573486,-16.549394607543945,-14.597148895263672
1761400631080699600,7.53369970703125,5.416058540344238,-18.339584350585938,-16.369457244873047
1761400631090777000,7.543777099609375,3.7071220874786377,-19.768922805786133,-18.292224884033203
1761400631100847900,7.553847900390625,2.5767595767974854,-19.26127815246582,-19.18817901611328
1761400631110922800,7.5639228515625,1.3775638341903687,-17.631126403808594,-19.35584831237793
1761400631121023500,7.5740234375,-0.021697452291846275,-13.409773826599121,-16.810138702392578
1761400631131105000,7.58410498046875,-0.06142623722553253,-10.783933639526367,-12.439299583435059
1761400631141166000,7.594166015625,0.30353987216949463,-10.58080005645752,-9.0836763381958
1761400631151267300,7.604267333984375,1.773879051208496,-10.036343574523926,-6.738705158233643
1761400631161344300,7.61434423828125,2.431386709213257,-8.952144622802734,-5.085134983062744
1761400631171430000,7.624429931640625,2.169146776199341,-6.027776718139648,-3.2463130950927734
1761400631181510100,7.63451025390625,1.7728315591812134,-4.136058330535889,-2.5329906940460205
1761400631191566300,7.64456640625,1.861342191696167,-4.0661773681640625,-3.093981981277466
1761400631201647400,7.6546474609375,2.1565022468566895,-3.6356701850891113,-3.4168999195098877
1761400631211727600,7.6647275390625,0.8106617331504822,-3.9944262504577637,-2.5030629634857178
1761400631221832000,7.67483203125,-1.2701988220214844,-3.4100914001464844,-0.6591536402702332
1761400631231915500,7.68491552734375,-2.808847427368164,-2.326415777206421,-0.45512276887893677
1761400631241987600,7.694987548828125,-2.980781078338623,-1.023970127105713,-1.2050316333770752
1761400631252077600,7.70507763671875,-2.0773441791534424,0.41629183292388916,-0.9721955060958862
1761400631262158600,7.71515869140625,-0.5184943079948425,1.3707553148269653,-0.4225766062736511
1761400631272214000,7.725214111328125,0.6033388376235962,1.479915976524353,1.0233715772628784
1761400631282317000,7.735317138671875,0.8874258399009705,-0.44928690791130066,1.3623756170272827
1761400631292402000,7.74540185546875,0.0024690204299986362,-1.5111901760101318,2.3131728172302246
1761400631302483000,7.75548291015625,-1.0354174375534058,-1.5240590572357178,4.290409564971924
1761400631312537600,7.76553759765625,-1.106719732284546,-1.259873867034912,5.219359874725342
1761400631322645000,7.77564501953125,-0.37716159224510193,-1.385494589805603,4.979640483856201
1761400631332715800,7.7857158203125,0.33174657821655273,-1.6713773012161255,3.74595308303833
1761400631342807300,7.795807373046875,-0.12307693064212799,-2.262894630432129,1.8834136724472046
1761400631352884500,7.805884521484375,-1.0933271646499634,-2.595613956451416,0.06928221136331558
1761400631362969300,7.81596923828125,-1.5988030433654785,-3.268609046936035,-1.5428385734558105
1761400631373050400,7.82605029296875,-0.40948331356048584,-3.4677019119262695,-2.6991631984710693
1761400631383089400,7.83608935546875,0.9816974997520447,-3.399691581726074,-3.530848979949951
1761400631393213400,7.84621337890625,0.7831284403800964,-2.643872022628784,-3.3390884399414062
1761400631403294000,7.8562939453125,-0.48714521527290344,-1.095347285270691,-2.1070470809936523
1761400631413349400,7.866349365234375,-0.787467896938324,0.7380874752998352,-0.49949032068252563
1761400631423456300,7.876456298828125,-0.5452046394348145,2.064774513244629,0.5845593214035034
1761400631433523200,7.886523193359375,-0.6536170840263367,2.454056739807129,0.8918401598930359
1761400631443618600,7.89661865234375,-0.7924059629440308,1.6788591146469116,1.4015058279037476
1761400631453699000,7.906698974609375,-0.7865700721740723,0.5703437328338623,1.906158685684204
1761400631463780000,7.916780029296875,-0.8457517623901367,0.06554127484560013,2.488997220993042
1761400631473861600,7.926861572265625,-0.8500164151191711,0.08155249804258347,2.887482166290283
1761400631483898000,7.936898193359375,-0.6356605291366577,0.8931868672370911,2.927734613418579
1761400631494023700,7.947023681640625,-0.257002592086792,1.18595290184021,2.6137948036193848
1761400631504105200,7.957105224609375,0.23956981301307678,1.340678095817566,2.1333086490631104
1761400631514185700,7.967185791015625,0.9862614870071411,1.5373018980026245,1.3007248640060425
1761400631524267300,7.977267333984375,2.096647262573242,1.5423896312713623,0.8722376227378845
1761400631534348300,7.987348388671875,2.713827610015869,0.4983680546283722,0.2959831953048706
1761400631544429800,7.997429931640625,3.51625919342041,-0.17634792625904083,-0.7719804048538208
1761400631554510300,8.00751025390625,4.1215434074401855,-0.825775146484375,-1.381678819656372
1761400631564582400,8.01758251953125,3.2969653606414795,-1.8932149410247803,-2.507701873779297
1761400631574672000,8.027671875,1.5022119283676147,-3.0580689907073975,-3.850399971008301
1761400631584753400,8.03775341796875,0.8676736354827881,-4.149899959564209,-5.820079803466797
1761400631594815000,8.04781494140625,2.263942241668701,-4.971185684204102,-8.023344039916992
1761400631604913400,8.057913330078126,4.293252468109131,-5.553724765777588,-9.019182205200195
1761400631614996500,8.06799658203125,7.466392993927002,-6.72067403793335,-8.676213264465332
1761400631625079000,8.0780791015625,9.496301651000977,-9.163507461547852,-9.659032821655273
1761400631635158300,8.088158203125,6.8593878746032715,-12.552350997924805,-13.50382137298584
1761400631645239600,8.098239501953126,3.4029088020324707,-14.442498207092285,-14.852206230163574
1761400631655307800,8.108307861328125,3.786654472351074,-12.413861274719238,-12.889484405517578
1761400631665398000,8.11839794921875,6.344260215759277,-8.63783073425293,-14.180632591247559
1761400631675468500,8.128468505859376,9.454253196716309,-8.996811866760254,-17.661876678466797
1761400631685561600,8.1385615234375,14.220061302185059,-14.4273099899292,-20.397624969482422
1761400631695632400,8.14863232421875,7.3023152351379395,-19.33018684387207,-21.009418487548828
1761400631705726000,8.158725830078126,7.708132266998291,-28.702213287353516,-25.863439559936523
1761400631715807500,8.168807373046874,16.233436584472656,-36.85723876953125,-34.80234146118164
1761400631725886200,8.17888623046875,17.237205505371094,-29.27480125427246,-27.326820373535156
1761400631735967200,8.18896728515625,10.332476615905762,-19.658042907714844,-20.582727432250977
1761400631746050300,8.19905029296875,9.865607261657715,-18.680009841918945,-21.41710662841797
1761400631756131000,8.209131103515626,8.275408744812012,-18.239402770996094,-19.751192092895508
1761400631766185700,8.219185791015626,5.7172040939331055,-15.043442726135254,-16.577228546142578
1761400631776300500,8.229300537109374,5.164592266082764,-14.464868545532227,-15.599421501159668
1761400631786374400,8.23937451171875,4.225915431976318,-15.373842239379883,-16.4555721282959
1761400631796444200,8.249444091796875,3.928361177444458,-16.420333862304688,-17.170764923095703
1761400631806534700,8.25953466796875,2.216132879257202,-17.43697166442871,-18.218229293823242
1761400631816617700,8.26961767578125,1.124751091003418,-17.670928955078125,-18.57706069946289
1761400631826699500,8.279699462890624,1.7497873306274414,-16.235755920410156,-17.138444900512695
1761400631836754400,8.28975439453125,3.7773020267486572,-13.573851585388184,-14.238616943359375
1761400631846861000,8.299861083984375,5.536890506744385,-11.701286315917969,-10.953473091125488
1761400631856940000,8.30993994140625,5.227440357208252,-9.513659477233887,-7.9001922607421875
1761400631867010000,8.320010009765625,3.00053334236145,-7.75287389755249,-5.331887245178223
1761400631877104000,8.330104248046876,1.0386346578598022,-6.7492547035217285,-3.9752726554870605
1761400631887185000,8.340184814453124,0.5248538851737976,-5.7515459060668945,-4.388796329498291
1761400631897266400,8.350266357421875,-0.9118915796279907,-4.1279778480529785,-4.452167510986328
1761400631907347700,8.36034765625,-1.6817022562026978,-1.9844939708709717,-4.543820858001709
1761400631917415400,8.37041552734375,-2.3633763790130615,-0.15854103863239288,-4.692709922790527
1761400631927496700,8.38049658203125,-1.9104232788085938,1.67197585105896,-4.3219828605651855
1761400631937590300,8.39059033203125,-0.02274491637945175,3.5918262004852295,-3.2299277782440186
1761400631957728300,8.410728271484375,2.3005285263061523,1.8751837015151978,-0.6786065697669983
1761400631977915000,8.430914794921875,-2.8452842235565186,-1.777096152305603,2.821866035461426
1761400631987993600,8.44099365234375,-4.186561107635498,-3.39984130859375,4.312930107116699
1761400631998078200,8.451078125,-3.6651487350463867,-2.7263972759246826,6.070199012756348
1761400632008158200,8.461158203125,-1.3011738061904907,-2.5884313583374023,5.663334369659424
1761400632018238700,8.47123876953125,0.7695114016532898,-2.668337821960449,4.735132217407227
1761400632028320300,8.4813203125,0.14417582750320435,-2.1948843002319336,4.088623046875
1761400632038401300,8.4914013671875,-1.1848305463790894,-0.7472153902053833,3.708019971847534
1761400632048480500,8.50148046875,-1.1774983406066895,0.7777414321899414,3.6245222091674805
1761400632058563300,8.511563232421874,-0.7208791971206665,1.3527239561080933,2.9682862758636475
1761400632068644400,8.521644287109375,0.5795464515686035,0.8111854791641235,1.143979549407959
1761400632078724900,8.531724853515625,2.704101085662842,-1.0258406400680542,-1.4515595436096191
1761400632088786000,8.541785888671875,3.6263177394866943,-2.87760591506958,-3.985522747039795
1761400632098902300,8.55190234375,1.526602864265442,-3.7702691555023193,-4.952630519866943
1761400632108968700,8.56196875,-1.1764508485794067,-3.7539587020874023,-2.776974678039551
1761400632119047700,8.572047607421876,-0.9888800978660583,-2.823362350463867,0.482880562543869
1761400632129125000,8.582125,0.43005847930908203,-1.184456467628479,1.8075474500656128
1761400632139211800,8.592211669921875,-0.06464344263076782,-0.7428010702133179,1.9665374755859375
1761400632149280000,8.602280029296875,-1.1799674034118652,-0.8403648138046265,1.811812162399292
1761400632159374300,8.612374267578126,-2.010605812072754,-0.7387608885765076,1.577255129814148
1761400632169454800,8.622454833984374,-2.2934207916259766,-0.41277533769607544,1.2919710874557495
1761400632179534600,8.63253466796875,-2.08168363571167,0.042197804898023605,1.1086649894714355
1761400632189605600,8.642605712890624,-1.7536031007766724,0.4506336450576782,1.3550432920455933
1761400632199698200,8.6526982421875,-1.3343933820724487,0.9572317600250244,1.733102798461914
1761400632209779500,8.662779541015626,-0.4265419840812683,1.98726224899292,1.859845757484436
1761400632219848200,8.67284814453125,1.1228058338165283,3.0319571495056152,1.508795976638794
1761400632229947400,8.682947509765626,2.64057993888855,3.4951603412628174,1.4384663105010986
1761400632240020200,8.693020263671874,4.274473190307617,3.2128689289093018,1.3244425058364868
1761400632250091000,8.703091064453124,5.100996494293213,2.0486884117126465,0.49552494287490845
1761400632260172300,8.71317236328125,2.5698013305664062,0.5090671181678772,-0.3356371521949768
1761400632270265600,8.723265625,0.10033201426267624,-0.656609833240509,-1.501463770866394
1761400632280344600,8.733344482421876,0.195950448513031,-1.338358759880066,-2.9723265171051025
1761400632290427400,8.743427490234374,3.3103580474853516,-2.423755168914795,-5.257667064666748
1761400632300511200,8.75351123046875,8.860566139221191,-4.476035118103027,-8.868197441101074
1761400632310570500,8.763570556640625,11.788825035095215,-7.97216796875,-12.46503734588623
1761400632320669400,8.77366943359375,9.411457061767578,-8.489764213562012,-14.748581886291504
1761400632330752300,8.783752197265626,4.842197895050049,-8.201038360595703,-17.123554229736328
1761400632340828000,8.793827880859375,2.3454198837280273,-6.437634468078613,-16.17298126220703
1761400632350913300,8.803913330078124,3.057769775390625,-5.662586212158203,-13.773842811584473
1761400632360995300,8.813995361328125,6.495394229888916,-6.322637557983398,-14.891261100769043
1761400632371072000,8.824072021484374,11.356745719909668,-12.113239288330078,-18.657489776611328
1761400632381157600,8.83415771484375,13.651738166809082,-15.665037155151367,-22.983064651489258
1761400632391238700,8.84423876953125,8.323966026306152,-17.288755416870117,-27.391613006591797
1761400632401320000,8.85431982421875,6.3448591232299805,-21.775264739990234,-30.34815216064453
1761400632411388000,8.864387939453126,9.626261711120605,-30.34747886657715,-30.45836067199707
1761400632421481500,8.8744814453125,11.948188781738281,-37.64313507080078,-30.210636138916016
1761400632431563000,8.88456298828125,8.261716842651367,-30.9904727935791,-24.649429321289062
1761400632441630500,8.89463037109375,9.218050956726074,-19.186084747314453,-18.619108200073242
1761400632451725300,8.904725341796874,9.469816207885742,-16.032398223876953,-17.34950828552246
1761400632461806000,8.91480615234375,5.961113452911377,-17.069162368774414,-18.261474609375
1761400632471875800,8.924875732421874,2.8796260356903076,-19.289409637451172,-20.174516677856445
1761400632481968000,8.934968017578125,-0.10467150807380676,-13.521927833557129,-17.78951644897461
1761400632492049400,8.94504931640625,2.068665027618408,-14.061670303344727,-18.861671447753906
1761400632502128600,8.955128662109376,2.0427029132843018,-15.905579566955566,-19.799224853515625
1761400632512211700,8.965211669921874,1.0633248090744019,-18.692655563354492,-18.71367835998535
1761400632522292000,8.9752919921875,2.451662540435791,-18.020856857299805,-15.219117164611816
1761400632532344300,8.98534423828125,2.4542810916900635,-13.130550384521484,-10.390311241149902
1761400632542444800,8.99544482421875,2.272247076034546,-7.1583638191223145,-7.491008281707764
1761400632552535300,9.005535400390626,2.7303626537323,-4.372560501098633,-7.5982985496521
1761400632562614800,9.01561474609375,1.3621511459350586,-3.6082863807678223,-6.664933681488037
1761400632572697600,9.025697509765624,-1.4050222635269165,-2.2800281047821045,-4.2550201416015625
1761400632582779400,9.035779296875,-1.2929437160491943,-1.012597680091858,-2.0697872638702393
1761400632592834300,9.045834228515625,-0.41367316246032715,-0.4965724050998688,-0.618452250957489
1761400632602916400,9.055916259765626,-1.2726678848266602,-0.9888800978660583,-0.06374561786651611
1761400632612993000,9.065992919921875,-2.064699649810791,-2.2904279232025146,0.6484545469284058
1761400632623079000,9.076078857421875,-2.1210381984710693,-3.4357542991638184,1.1623101234436035
1761400632633158100,9.086158203125,-0.6940191984176636,-2.449941635131836,1.4137012958526611
1761400632643239700,9.09623974609375,1.9332430362701416,-0.5646575093269348,0.6301987767219543
1761400632663411200,9.1164111328125,1.8682254552841187,-1.553387999534607,1.0091559886932373
1761400632673492000,9.126491943359374,-0.7195324301719666,-1.3342437744140625,3.3349733352661133
1761400632683573500,9.136573486328125,-3.224316358566284,-0.7332242727279663,4.374804973602295
1761400632693666600,9.14666650390625,-2.7094132900238037,-0.6401496529579163,5.094112873077393
1761400632703751400,9.15675146484375,-0.30039748549461365,-1.1139771938323975,5.802048683166504
1761400632713833000,9.1668330078125,0.46746787428855896,-1.4053963422775269,5.722965240478516
1761400632723913500,9.17691357421875,-0.6364087462425232,-1.057414174079895,4.653804302215576
1761400632733994800,9.186994873046874,-1.1803414821624756,-0.5312883257865906,2.7843070030212402
1761400632744049400,9.19704931640625,-0.19370588660240173,-0.9459341168403625,0.5919663906097412
1761400632754156800,9.20715673828125,0.9577555060386658,-1.7984943389892578,-1.5356559753417969
1761400632764217300,9.21721728515625,1.6994342803955078,-1.9535189867019653,-3.1086463928222656
1761400632774319600,9.227319580078126,0.9862614870071411,-2.231321096420288,-4.12019681930542
1761400632784401000,9.23740087890625,-1.1566238403320312,-2.5213937759399414,-4.405705451965332
1761400632794481200,9.247481201171874,-2.335843086242676,-2.646415948867798,-3.4544589519500732
1761400632804562000,9.25756201171875,-2.8092963695526123,-2.399888038635254,-1.6872388124465942
1761400632814643500,9.2676435546875,-2.4396166801452637,-1.0467898845672607,-0.6406733989715576
1761400632824724500,9.277724365234375,-1.8780267238616943,0.2289455384016037,0.6467337608337402
1761400632834806300,9.28780615234375,-1.6345664262771606,0.7953987121582031,1.7068413496017456
1761400632844886300,9.29788623046875,-1.5710452795028687,1.0695347785949707,2.4477720260620117
1761400632854967300,9.30796728515625,-1.4657751321792603,0.9793033003807068,2.9188311100006104
1761400632865049000,9.318049072265625,-1.1682207584381104,0.726415753364563,3.1973814964294434
1761400632875130400,9.32813037109375,-0.6922235488891602,0.7059902548789978,3.145831346511841
1761400632885211000,9.3382109375,0.18136078119277954,0.9519944787025452,2.8773066997528076
1761400632895291600,9.348291748046876,1.011400580406189,1.3451672792434692,2.5019407272338867
1761400632905373400,9.35837353515625,1.9164087772369385,1.6306757926940918,1.9844191074371338
1761400632915453700,9.36845361328125,2.9875147342681885,1.9538930654525757,1.3922282457351685
1761400632925535500,9.378535400390625,3.9239468574523926,2.235511064529419,0.8570494055747986
1761400632935616500,9.388616455078125,3.652130126953125,2.231919765472412,0.6010942459106445
1761400632945697300,9.398697265625,0.5131073594093323,1.8925416469573975,0.7184849381446838
1761400632955778600,9.408778564453126,-2.699387550354004,1.9514988660812378,-0.8095394372940063
1761400632965859000,9.418859130859374,-1.5065513849258423,0.7948001623153687,-3.687145471572876
1761400632975941000,9.428941162109375,2.4694693088531494,-1.8860323429107666,-7.490260124206543
1761400632986022100,9.439022216796875,7.505373477935791,-5.674706935882568,-11.863194465637207
1761400632996102400,9.449102294921875,10.60968017578125,-9.626337051391602,-17.525405883789062
1761400633006184200,9.45918408203125,6.159383296966553,-12.206462860107422,-14.656779289245605
1761400633016239000,9.469239013671874,2.732532262802124,-13.522974967956543,-6.609568119049072
1761400633026346200,9.47934619140625,7.395838737487793,-16.661100387573242,-6.437634468078613
1761400633036427300,9.48942724609375,12.100444793701172,-20.466384887695312,-7.723470211029053
1761400633046469600,9.4994697265625,12.381315231323242,-22.943111419677734,-10.52333927154541
1761400633056589300,9.50958935546875,8.29246711730957,-22.881460189819336,-20.130224227905273
1761400633066669600,9.519669677734376,9.513211250305176,-24.86094093322754,-32.34469223022461
1761400633076752000,9.529751953125,15.12185287475586,-32.86341094970703,-38.85886764526367
1761400633086831900,9.539831787109375,14.139033317565918,-35.51446533203125,-38.63628005981445
1761400633096913000,9.549912841796875,16.574909210205078,-27.191322326660156,-33.939903259277344
1761400633106994700,9.55999462890625,13.452869415283203,-19.915193557739258,-23.85455322265625
1761400633117076000,9.570075927734376,10.341979026794434,-18.937387466430664,-17.03130340576172
1761400633127115300,9.580115234375,7.4870429039001465,-21.943531036376953,-15.493851661682129
1761400633137238300,9.59023828125,4.504091739654541,-24.870817184448242,-15.80247974395752
1761400633147318500,9.600318603515625,3.4189200401306152,-23.422624588012695,-16.092626571655273
1761400633157399300,9.6103994140625,2.2310218811035156,-17.91169548034668,-17.302520751953125
1761400633167454700,9.620454833984375,-0.3924994468688965,-14.776863098144531,-19.50997543334961
1761400633177536500,9.63053662109375,-0.4727051854133606,-13.762918472290039,-19.99869155883789
1761400633187643100,9.64064306640625,0.772279679775238,-11.266215324401855,-17.754201889038086
1761400633197723400,9.650723388671874,1.5170260667800903,-9.201814651489258,-14.19948673248291
1761400633207805200,9.66080517578125,2.5660605430603027,-8.68751049041748,-9.936236381530762
1761400633217861600,9.670861572265625,2.1475989818573,-8.29246711730957,-4.139649391174316
1761400633227967000,9.680967041015625,1.4971990585327148,-8.022147178649902,1.2945148944854736
1761400633238043600,9.691043701171875,2.6420764923095703,-7.459434509277344,2.950404644012451
1761400633248124700,9.701124755859375,1.5678280591964722,-5.476885795593262,1.0539724826812744
1761400633258208300,9.711208251953124,0.4192845821380615,-4.4898762702941895,-1.2085480690002441
1761400633268266000,9.721265869140625,-0.30458733439445496,-4.708197593688965,-1.9458125829696655
1761400633278372400,9.731372314453125,-2.8300211429595947,-4.977470397949219,-2.2370073795318604
1761400633288452900,9.741452880859375,-4.399794578552246,-4.5644707679748535,-2.765153408050537
1761400633308589600,9.761589599609374,-2.611400604248047,-0.8500164151191711,-5.118129730224609
1761400633318671400,9.77167138671875,0.004863222129642963,1.4664485454559326,-5.228038787841797
1761400633328752400,9.78175244140625,1.755548357963562,2.6493337154388428,-2.3279869556427
1761400633338858500,9.7918583984375,2.66444730758667,2.152162790298462,2.2958898544311523
1761400633348939500,9.801939453125,0.27884969115257263,1.193210244178772,6.357203960418701
1761400633359021000,9.81202099609375,-2.4583961963653564,-1.1795932054519653,7.473276138305664
1761400633369128700,9.822128662109375,-3.4519898891448975,-2.417844533920288,7.658377647399902
1761400633379182800,9.832182861328125,-1.286210060119629,-2.24897837638855,6.931962013244629
1761400633389264100,9.84226416015625,0.8972271084785461,-1.2614450454711914,4.8808794021606445
1761400633399341000,9.852341064453125,2.211045265197754,-0.12098200619220734,2.677091598510742
1761400633409398300,9.862398193359375,2.582819938659668,0.28386253118515015,1.2715455293655396
1761400633419528700,9.87252880859375,1.1638813018798828,-0.024091655388474464,0.4183119237422943
1761400633429588700,9.882588623046875,0.5015852451324463,-0.7894880175590515,-0.5056254863739014
1761400633439668700,9.892668701171875,0.7687631845474243,-1.4900164604187012,-2.0451719760894775
1761400633449750500,9.90275048828125,-0.04885667935013771,-1.9104232788085938,-3.310732126235962
1761400633459827000,9.912826904296875,-0.8729857802391052,-2.092158079147339,-3.769296407699585
1761400633469912300,9.922912353515626,-1.0920552015304565,-1.293691873550415,-2.6482114791870117
1761400633479993600,9.93299365234375,-1.296609878540039,0.23605331778526306,-1.0065373182296753
1761400633490073900,9.943073974609375,-1.9829975366592407,1.1516858339309692,0.4861725866794586
1761400633500129500,9.953129638671875,-1.9821745157241821,1.498321294784546,2.05085825920105
1761400633510237000,9.96323681640625,-1.8943372964859009,1.5527145862579346,3.3104326725006104
1761400633520293000,9.973293212890624,-1.7740286588668823,1.4704139232635498,3.977816581726074
1761400633530398500,9.9833984375,-1.5174750089645386,1.3236942291259766,3.8679823875427246
1761400633540480300,9.993480224609375,-1.1534066200256348,1.4358476400375366,3.00015926361084
1761400633550540800,10.003540771484374,-0.4760720431804657,1.683273434638977,1.9022680521011353
1761400633560616400,10.013616455078125,0.5666776299476624,1.812934398651123,1.143680214881897
1761400633570723300,10.023723388671876,1.9142390489578247,2.079962730407715,0.48639702796936035
1761400633580803800,10.033803955078126,3.1892263889312744,2.0679917335510254,-0.2667290270328522
1761400633590881300,10.04388134765625,3.201047658920288,1.3789854049682617,-1.2420669794082642
1761400633600966400,10.05396630859375,2.8505964279174805,-0.2894739508628845,-2.101959466934204
1761400633611047700,10.064047607421875,1.8769793510437012,-2.420687437057495,-2.268730640411377
1761400633621128200,10.074128173828125,-0.289399117231369,-3.4535610675811768,-1.3646949529647827
1761400633631209200,10.084209228515626,-1.6904560327529907,-3.697096347808838,-1.497648000717163
1761400633641290500,10.09429052734375,-0.22251112759113312,-4.490849018096924,-3.227383852005005
1761400633651367700,10.10436767578125,3.292551040649414,-5.747206211090088,-7.005808353424072
1761400633661427500,10.114427490234375,7.1577653884887695,-7.062894821166992,-12.105981826782227
1761400633671508700,10.1245087890625,8.869918823242188,-8.982894897460938,-16.382400512695312
1761400633681614300,10.1346142578125,7.815572261810303,-12.622081756591797,-16.990976333618164
1761400633691670500,10.14467041015625,5.006799697875977,-11.200973510742188,-12.996624946594238
1761400633701734700,10.154734619140624,3.199850559234619,-7.5645551681518555,-9.364396095275879
1761400633711832600,10.16483251953125,4.130372047424316,-5.819406509399414,-9.482609748840332
1761400633721902800,10.17490283203125,6.597372531890869,-12.818181991577148,-16.930522918701172
1761400633732004400,10.18500439453125,6.452672958374023,-18.529924392700195,-22.8967227935791
1761400633742084900,10.1950849609375,6.271461486816406,-20.04231071472168,-26.970008850097656
1761400633752166100,10.205166259765624,9.421557426452637,-23.806745529174805,-28.00078773498535
1761400633762264000,10.21526416015625,8.251766204833984,-31.119609832763672,-24.638729095458984
1761400633772319200,10.2253193359375,10.855834007263184,-35.39131546020508,-24.958654403686523
1761400633782421200,10.235421142578126,16.30623435974121,-33.40180587768555,-25.18999481201172
1761400633792507100,10.245507080078125,13.074585914611816,-26.215761184692383,-21.694011688232422
1761400633802588000,10.255587890625,10.218827247619629,-22.991518020629883,-19.590330123901367
1761400633812668400,10.26566845703125,7.951592922210693,-23.191808700561523,-20.335901260375977
1761400633822749400,10.27574951171875,3.438297986984253,-21.57415199279785,-19.447052001953125
1761400633832831000,10.2858310546875,1.8053028583526611,-21.23537254333496,-18.912696838378906
1761400633842907600,10.29590771484375,2.0644752979278564,-20.45920181274414,-17.27753257751465
1761400633852993000,10.305992919921875,1.9624223709106445,-17.50834846496582,-13.974132537841797
1761400633863074300,10.31607421875,0.7993640899658203,-13.6510648727417,-10.796427726745605
1761400633873130200,10.326130126953124,0.23343466222286224,-9.040580749511719,-10.166154861450195
1761400633883236400,10.336236328125,1.1653777360916138,-7.167192459106445,-11.0771484375
1761400633893291300,10.346291259765625,1.4163947105407715,-5.3360772132873535,-10.732158660888672
1761400633903373600,10.35637353515625,1.0667665004730225,-5.610961437225342,-7.73671293258667
1761400633913475300,10.366475341796875,0.25438392162323,-6.270863056182861,-5.359495162963867
1761400633923560400,10.376560546875,-1.2549357414245605,-6.632612228393555,-3.367295026779175
1761400633933641200,10.38664111328125,-2.271648406982422,-5.92213249206543,-1.7650504112243652
1761400633943722800,10.39672265625,-3.40447998046875,-4.193070411682129,-0.0694318488240242
1761400633953804000,10.406803955078125,-4.089446067810059,-1.5260791778564453,2.1401917934417725
1761400633963885000,10.416885009765625,-3.310208320617676,1.9468600749969482,4.144812107086182
1761400633973961700,10.426961669921875,-1.3863924741744995,2.745999813079834,3.6910359859466553
1761400633984022000,10.43702197265625,1.708412528038025,2.5930700302124023,1.879373550415039
1761400633994127600,10.447127685546874,5.47307014465332,2.1839609146118164,0.48145899176597595
1761400634004209000,10.457208984375,6.490157127380371,0.20036475360393524,0.4857984781265259
1761400634014290000,10.4672900390625,3.1610195636749268,-1.8308161497116089,2.8198459148406982
1761400634024371500,10.477371337890625,-1.203385591506958,-1.6332944631576538,5.502399444580078
1761400634034451700,10.48745166015625,-3.1880292892456055,-1.0659434795379639,6.867393493652344
1761400634044529200,10.497529052734375,-2.146925449371338,-1.955389380455017,6.927473068237305
1761400634054614500,10.507614501953125,-0.16108489036560059,-3.49082088470459,5.324929237365723
1761400634064695000,10.517695068359375,0.19116203486919403,-4.034828186035156,2.2462100982666016
1761400634074776000,10.527776123046875,0.06576573103666306,-4.173542499542236,-1.1734580993652344
1761400634084857000,10.537857177734375,-0.3710264563560486,-3.7718403339385986,-3.4112136363983154
1761400634094939000,10.54793896484375,-0.13130700588226318,-2.7981483936309814,-4.649315357208252
1761400634105004500,10.558004638671875,0.35015198588371277,-1.5470284223556519,-5.777956962585449
1761400634115100700,10.5681005859375,-0.558597207069397,-0.5758054852485657,-5.055730819702148
1761400634125181700,10.578181640625,-0.8261492252349854,-0.4463689923286438,-3.425354480743408
1761400634135263700,10.588263671875,-0.7617302536964417,-0.3250128924846649,-1.7880945205688477
1761400634145334300,10.598334228515625,-1.1888707876205444,0.243011474609375,0.17320552468299866
1761400634155399200,10.608399169921874,-1.4008324146270752,0.3265092670917511,0.8604162335395813
1761400634165506300,10.61850634765625,-1.4733319282531738,0.22872108221054077,1.4406360387802124
1761400634175586600,10.628586669921875,-1.6050130128860474,-0.1611597090959549,2.147449254989624
1761400634185668400,10.63866845703125,-1.6329952478408813,-0.15195699036121368,3.147477388381958
1761400634195723500,10.6487236328125,-1.6864157915115356,0.3512742817401886,3.9270894527435303
1761400634205808000,10.65880810546875,-1.3340193033218384,1.0028712749481201,4.199579238891602
1761400634215911700,10.66891162109375,-0.5412392020225525,1.2458078861236572,4.043282985687256
1761400634225969700,10.6789697265625,0.47502458095550537,1.0523264408111572,3.245265483856201
1761400634236073700,10.68907373046875,1.4416086673736572,1.137245774269104,2.115426778793335
1761400634246154500,10.699154541015625,1.9722236394882202,0.9965116381645203,1.1122562885284424
1761400634256222500,10.709222412109375,1.888127326965332,0.3339163064956665,0.09157821536064148
1761400634266317300,10.7193173828125,1.8519150018692017,-0.1420809030532837,0.018330607563257217
1761400634276397300,10.729397216796874,1.9472341537475586,-0.6891559958457947,-0.29875147342681885
1761400634286456000,10.7394560546875,2.167725086212158,-1.5123872756958008,-1.662623405456543
1761400634296560600,10.749560546875,0.5515642166137695,-1.62880539894104,-4.403685092926025
1761400634306640400,10.759640380859375,0.290072500705719,-1.5990275144577026,-7.109731674194336
1761400634316722400,10.769722412109376,3.3965492248535156,-2.074126958847046,-7.873033046722412
1761400634326802700,10.779802734375,8.28670597076416,-3.61606764793396,-8.637456893920898
1761400634336883500,10.789883544921874,9.615861892700195,-5.987150192260742,-11.368866920471191
1761400634367128300,10.82012841796875,2.455627918243408,-6.6483988761901855,-13.00747299194336
1761400634377189000,10.830189208984375,3.302427053451538,-5.625326633453369,-13.942708015441895
1761400634387289600,10.84028955078125,4.32639741897583,-9.018658638000488,-18.9314022064209
1761400634397356800,10.850356689453125,7.184176445007324,-13.785738945007324,-26.81887435913086
1761400634407443500,10.860443359375,6.5948286056518555,-13.94704818725586,-29.224149703979492
1761400634417532200,10.8705322265625,5.280336856842041,-14.975358009338379,-29.206941604614258
1761400634427613400,10.880613525390626,6.0656352043151855,-20.614524841308594,-32.73472213745117
1761400634437695000,10.890695068359374,2.5988311767578125,-30.164995193481445,-37.14543914794922
1761400634447775200,10.900775146484374,2.455702781677246,-34.98115539550781,-36.240657806396484
1761400634457857000,10.91085693359375,6.716409206390381,-27.531898498535156,-27.7377986907959
1761400634467938000,10.92093798828125,8.41307544708252,-19.038393020629883,-23.963640213012695
1761400634478014500,10.931014404296874,5.481075763702393,-17.76116180419922,-24.150836944580078
1761400634488095500,10.941095458984375,3.697545289993286,-16.66326904296875,-22.78516960144043
1761400634498156000,10.951156005859374,1.9280805587768555,-15.81063461303711,-21.121047973632812
1761400634508262400,10.961262451171875,-0.4742763936519623,-14.642264366149902,-19.530176162719727
1761400634518342700,10.9713427734375,-0.8358756899833679,-12.703933715820312,-16.885557174682617
1761400634528424000,10.981423828125,-0.23455694317817688,-11.439570426940918,-13.97600269317627
1761400634538485500,10.991485595703125,-0.4166659116744995,-11.691784858703613,-12.618864059448242
1761400634548582000,11.001581787109375,-0.6902034878730774,-10.319233894348145,-10.549152374267578
1761400634558641700,11.0116416015625,0.8706663846969604,-8.175150871276855,-7.844078063964844
1761400634568771600,11.021771484375,1.935038685798645,-5.745111465454102,-6.0954132080078125
1761400634578829600,11.03182958984375,1.6638953685760498,-3.9978678226470947,-4.194641590118408
1761400634588910000,11.04191015625,0.6552630662918091,-3.165059804916382,-2.332251787185669
1761400634598966000,11.051966064453126,1.028908133506775,-2.592097520828247,-0.5746083855628967
1761400634609068500,11.062068603515625,1.1243770122528076,-2.1622633934020996,1.1712135076522827
1761400634619154200,11.072154296875,-2.0586392879486084,-2.733804225921631,2.923694372177124
1761400634629235000,11.08223486328125,-3.996446371078491,-3.1610944271087646,2.8498482704162598
1761400634639278800,11.09227880859375,-4.447005271911621,-0.8158242106437683,1.272144079208374
1761400634649396700,11.102396728515625,-3.477428436279297,2.2292263507843018,-0.17140987515449524
1761400634659452700,11.11245263671875,0.03868132084608078,3.786205530166626,-0.7933037877082825
1761400634669533400,11.122533447265624,4.033406734466553,3.259481191635132,-1.2859855890274048
1761400634679614700,11.13261474609375,5.261782169342041,1.444152593612671,-0.11589432507753372
1761400634689695700,11.14269580078125,2.112583637237549,0.9705495238304138,3.4368765354156494
1761400634699777000,11.152777099609375,-1.6074819564819336,0.4932803809642792,6.28088903427124
1761400634709857800,11.16285791015625,-3.565265655517578,-1.5701473951339722,7.976507186889648
1761400634719963600,11.172963623046876,-3.369614362716675,-3.409792184829712,7.4385600090026855
1761400634730019800,11.183019775390624,-0.8131307363510132,-4.116081714630127,4.478878021240234
1761400634740122000,11.1931220703125,2.051307201385498,-4.25397253036499,0.4985176920890808
1761400634750207500,11.20320751953125,2.057741641998291,-4.3581953048706055,-3.500696897506714
1761400634760254500,11.21325439453125,0.029777884483337402,-6.127734661102295,-6.672640323638916
1761400634770370300,11.223370361328126,-2.0497360229492188,-5.890783786773682,-6.973711013793945
1761400634780417000,11.2334169921875,-1.9534441232681274,-3.6758477687835693,-4.915670394897461
1761400634790531300,11.24353125,-1.0552444458007812,-1.6842460632324219,-2.6681132316589355
1761400634800609000,11.253609130859376,0.2908954918384552,-0.07496844232082367,-1.0184335708618164
1761400634810676500,11.263676513671875,0.2886509299278259,1.3518261909484863,-0.24944588541984558
1761400634820775200,11.273775146484375,-0.12958616018295288,2.713902473449707,-0.2677764892578125
1761400634830810000,11.28381005859375,0.2997989356517792,2.313547134399414,-0.32202014327049255
1761400634840937500,11.2939375,0.47300446033477783,1.4664485454559326,0.711227536201477
1761400634850993000,11.303992919921875,-0.19542671740055084,0.8922142386436462,2.0392613410949707
1761400634861098800,11.3140986328125,-1.0021229982376099,0.4861725866794586,3.0284407138824463
1761400634871176200,11.32417626953125,-1.14742112159729,-0.2487725168466568,2.956315279006958
1761400634881260800,11.3342607421875,-1.042899250984192,-0.5663034915924072,2.4345290660858154
1761400634891342000,11.344342041015626,-0.8366986513137817,-0.07841010391712189,2.211494207382202
1761400634901437700,11.354437744140625,-0.344839870929718,0.39294835925102234,1.8606687784194946
1761400634911484700,11.364484619140624,0.6952911615371704,0.6152350306510925,1.4907646179199219
1761400634921585200,11.374585205078125,2.388665199279785,0.10706570744514465,1.28733229637146
1761400634931662300,11.384662353515624,3.819499969482422,-0.8951321840286255,1.0327239036560059
1761400634941748200,11.394748291015626,4.526986598968506,-1.343820571899414,0.04249707981944084
1761400634951829200,11.404829345703124,4.397026062011719,-1.921047568321228,-1.3519757986068726
1761400634961909500,11.414909423828124,3.2870893478393555,-3.5185039043426514,-2.7200376987457275
1761400634971990500,11.424990478515625,2.821043014526367,-6.7598042488098145,-4.2434234619140625
1761400634982071600,11.435071533203125,2.3335983753204346,-9.18281078338623,-5.255198001861572
1761400634992152600,11.445152587890625,2.8283004760742188,-11.650409698486328,-8.134973526000977
1761400635002230300,11.455230224609375,5.2375407218933105,-15.3923978805542,-8.995614051818848
1761400635012314400,11.465314453125,7.774496555328369,-16.743925094604492,-9.507075309753418
1761400635022357800,11.475357666015626,8.076166152954102,-14.51978588104248,-12.333805084228516
1761400635032477000,11.485476806640625,7.0307230949401855,-7.376984119415283,-15.348403930664062
1761400635042545000,11.495544921875,5.574898719787598,-1.3676129579544067,-13.558439254760742
1761400635052614000,11.50561376953125,3.8296751976013184,-2.5369560718536377,-14.451102256774902
1761400635062716700,11.515716552734375,2.3405566215515137,-7.928473949432373,-19.3253231048584
1761400635072801000,11.525801025390624,1.257030725479126,-8.511536598205566,-20.28420066833496
1761400635082882300,11.53588232421875,2.356567859649658,-7.625981330871582,-20.195615768432617
1761400635092963000,11.545963134765625,6.572158336639404,-9.11457633972168,-20.651336669921875
1761400635103044400,11.55604443359375,8.702025413513184,-13.234249114990234,-19.9707088470459
1761400635113126000,11.5661259765625,9.518373489379883,-18.368614196777344,-20.1108455657959
1761400635123202300,11.576202392578125,8.443077087402344,-23.34728240966797,-19.152790069580078
1761400635133287400,11.586287353515624,9.082254409790039,-19.65721893310547,-17.59124755859375
1761400635143368400,11.596368408203125,11.479747772216797,-16.057985305786133,-20.008193969726562
1761400635153449500,11.606449462890625,8.162507057189941,-17.559598922729492,-25.90458869934082
1761400635163530800,11.61653076171875,4.330661773681641,-21.486614227294922,-31.794475555419922
1761400635173611800,11.62661181640625,4.15064811706543,-24.143728256225586,-31.996335983276367
1761400635183692800,11.63669287109375,2.2828712463378906,-21.773094177246094,-27.568035125732422
1761400635193748500,11.64674853515625,2.1068227291107178,-18.585140228271484,-22.996755599975586
1761400635203855400,11.65685546875,1.4773720502853394,-16.482433319091797,-18.939332962036133
1761400635213907000,11.666906982421875,0.4340986907482147,-14.866869926452637,-14.475493431091309
1761400635224017200,11.67701708984375,-0.3387047350406647,-13.164816856384277,-11.251326560974121
1761400635234098000,11.687097900390626,-0.1223287433385849,-12.644003868103027,-9.254337310791016
1761400635244179200,11.69717919921875,0.5040542483329773,-11.934347152709961,-8.143503189086914
1761400635254256400,11.70725634765625,1.0776152610778809,-10.371232986450195,-6.5283894538879395
1761400635264341200,11.71734130859375,2.3897125720977783,-7.687781810760498,-5.153294563293457
1761400635274422300,11.72742236328125,2.2311716079711914,-5.210680961608887,-4.014402866363525
1761400635284503300,11.73750341796875,1.5538369417190552,-3.394603967666626,-2.7071688175201416
1761400635294570800,11.74757080078125,0.5436334013938904,-1.8405425548553467,-1.4847043752670288
1761400635304665600,11.75766552734375,-0.7742249965667725,-1.1076176166534424,-1.0875661373138428
1761400635314746400,11.767746337890625,-3.648763418197632,-1.5527894496917725,-1.0548702478408813
1761400635324823800,11.77782373046875,-5.722067356109619,-1.9598785638809204,-0.8877251148223877
1761400635334908700,11.78790869140625,-5.158232688903809,-2.0369420051574707,-0.9546879529953003
1761400635345011500,11.798011474609375,-1.8810194730758667,-1.0696096420288086,-1.7625813484191895
1761400635355071000,11.808071044921874,2.314220428466797,0.2406172752380371,-2.6267385482788086
1761400635365151700,11.81815185546875,3.9806594848632812,1.7882442474365234,-2.4095394611358643
1761400635375232800,11.828232666015625,3.2158617973327637,1.5105167627334595,-1.5930418968200684
1761400635385314600,11.838314453125,0.8025065064430237,-0.9989058375358582,1.2752116918563843
1761400635395394800,11.848394775390625,-1.8327614068984985,-1.7281646728515625,3.8662617206573486
1761400635405476000,11.85847607421875,-1.6704045534133911,-1.6601544618606567,6.212878704071045
1761400635415556900,11.868556884765624,-1.8416647911071777,-1.8695722818374634,6.740126609802246
1761400635425612800,11.87861279296875,-1.7194108963012695,-1.7288380861282349,3.826308488845825
1761400635435720200,11.88872021484375,-0.9423428177833557,-1.0152912139892578,0.8551040887832642
1761400635445800700,11.89880078125,-0.6957400441169739,-1.0245686769485474,0.15165771543979645
1761400635455869200,11.908869140625,-1.0146926641464233,-0.9955390095710754,0.43828853964805603
1761400635465962800,11.918962646484376,-1.2213420867919922,-0.9380781650543213,0.3346644937992096
1761400635476044000,11.9290439453125,-1.493682622909546,-1.1469722986221313,-0.2916437089443207
1761400635486100000,11.939099853515625,-0.8540566563606262,-2.067168712615967,-1.4787936210632324
1761400635496205800,11.949205810546875,0.8736591935157776,-2.286687135696411,-2.326266288757324
1761400635506262000,11.959261962890626,1.2957119941711426,-1.6609026193618774,-2.072854995727539
1761400635516369000,11.969368896484376,0.25752630829811096,-0.5514145493507385,-1.250671148300171
1761400635526449000,11.979448974609374,-0.8814403414726257,0.04638765752315521,-0.0018704701215028763
1761400635536529700,11.98952978515625,-1.6184055805206299,0.8266729712486267,1.2574796676635742
1761400635546611200,11.999611083984375,-2.0785412788391113,0.5811924338340759,2.3970448970794678
1761400635556692000,12.00969189453125,-1.7175405025482178,-0.12906242907047272,2.5136125087738037
1761400635566773000,12.01977294921875,-1.0497077703475952,-0.4415057599544525,2.357166290283203
1761400635576854000,12.02985400390625,-0.04810849204659462,-0.07826046645641327,2.2881085872650146
1761400635586935000,12.03993505859375,1.0756698846817017,-0.06456862390041351,1.92635977268219
1761400635597004500,12.050004638671876,1.680954098701477,-0.3199251890182495,0.9186252355575562
1761400635607097300,12.060097412109375,2.2566099166870117,0.9558850526809692,0.7451204657554626
1761400635617179000,12.070178955078125,3.44996976852417,2.0322282314300537,0.2983773946762085
1761400635627260000,12.080260009765626,4.443338871002197,2.4182932376861572,-0.5462520718574524
1761400635637340400,12.09034033203125,5.655852794647217,2.1749825477600098,-1.3858686685562134
1761400635647366000,12.100365966796875,3.297264575958252,1.4228291511535645,-1.3744213581085205
1761400635657502500,12.11050244140625,-0.6191256046295166,-0.7373393177986145,-2.9804069995880127
1761400635667583500,12.12058349609375,-0.6802525520324707,-4.237662315368652,-6.4888105392456055
1761400635677640400,12.130640380859376,1.9113211631774902,-7.895852565765381,-9.430760383605957
1761400635687745800,12.140745849609376,4.910283088684082,-10.410662651062012,-12.30395221710205
1761400635697826800,12.150826904296874,5.909712791442871,-11.28334903717041,-14.810681343078613
1761400635707908000,12.160908203125,6.971017360687256,-11.510648727416992,-15.935956001281738
1761400635717992400,12.170992431640625,8.709956169128418,-11.462764739990234,-14.203676223754883
1761400635728066800,12.18106689453125,9.060482025146484,-13.304802894592285,-11.160197257995605
1761400635738147300,12.191147216796875,7.892934799194336,-13.81723690032959,-8.58837604522705
1761400635748206600,12.20120654296875,6.805817604064941,-12.37188720703125,-10.104279518127441
1761400635758303500,12.211303466796876,4.756979465484619,-9.284789085388184,-13.456236839294434
1761400635768394200,12.221394287109375,5.239635467529297,-7.657330513000488,-16.242862701416016
1761400635778450400,12.231450439453125,9.884013175964355,-9.782408714294434,-20.705730438232422
1761400635788556300,12.241556396484375,8.757017135620117,-13.365555763244629,-23.677457809448242
1761400635798612200,12.2516123046875,7.582736015319824,-17.214834213256836,-25.935190200805664
1761400635808718600,12.261718505859376,9.202563285827637,-23.243284225463867,-27.89259910583496
1761400635818774300,12.271774169921875,7.488539218902588,-26.934843063354492,-27.374553680419922
1761400635828876800,12.281876708984376,8.887800216674805,-27.15301513671875,-23.205949783325195
1761400635838947300,12.291947265625,11.133187294006348,-25.069311141967773,-21.21015739440918
1761400635849043000,12.30204296875,10.510096549987793,-22.528539657592773,-21.85270118713379
1761400635859123700,12.312123779296876,7.659350395202637,-19.178678512573242,-21.035755157470703
1761400635869205000,12.322205078125,6.215272903442383,-18.228927612304688,-20.20758628845215
1761400635879286000,12.3322861328125,4.196063041687012,-17.524658203125,-20.529531478881836
1761400635889363000,12.342363037109376,2.4303390979766846,-16.127567291259766,-21.335779190063477
1761400635899448300,12.3524482421875,1.6091279983520508,-13.406107902526855,-20.020689010620117
1761400635909529300,12.362529296875,1.2331634759902954,-11.333252906799316,-16.576929092407227
1761400635919610000,12.372610107421876,0.6848164796829224,-11.136255264282227,-10.987215995788574
1761400635929668900,12.3826689453125,1.0518027544021606,-10.85366439819336,-4.754061698913574
1761400635939772200,12.392772216796875,1.0212018489837646,-9.769390106201172,-2.1966052055358887
1761400635949830100,12.402830078125,1.5159037113189697,-7.451204776763916,-1.6704045534133911
1761400635959930400,12.412930419921874,1.6199767589569092,-4.417077541351318,-1.8608932495117188
1761400635970015500,12.423015380859376,0.609399139881134,-3.028066635131836,-1.5607950687408447
1761400635980081000,12.433080810546874,-0.7445967197418213,-1.8635867834091187,-1.0285340547561646
1761400635990177500,12.443177490234374,-1.6344166994094849,-0.7409306168556213,-0.6137386560440063
1761400636000233700,12.453233642578125,-1.9590555429458618,-0.23343466222286224,-0.09240122139453888
1761400636010321400,12.4633212890625,-2.221445083618164,-0.6877344250679016,0.1157446876168251
1761400636020416800,12.473416748046875,-1.9344401359558105,-0.8836848735809326,-0.44187983870506287
1761400636030501600,12.483501708984376,-1.0217255353927612,0.23283611238002777,-1.0580874681472778
1761400636040583400,12.49358349609375,0.05461772531270981,1.3967174291610718,-2.15029239654541
1761400636050663700,12.50366357421875,1.7107319831848145,2.2440402507781982,-3.364825963973999
1761400636060744700,12.51374462890625,2.98437237739563,2.2306478023529053,-3.495384931564331
1761400636070825700,12.52382568359375,1.886630892753601,1.314192295074463,-2.251821517944336
1761400636080894000,12.53389404296875,-0.40634092688560486,-1.3328222036361694,-0.5931634902954102
1761400636090963500,12.54396337890625,-0.5129576921463013,-3.5538930892944336,1.0478373765945435
1761400636101044000,12.5540439453125,-0.4610334634780884,-4.617517471313477,3.2032175064086914
1761400636111125200,12.564125244140625,-1.738040804862976,-5.101894378662109,5.396231174468994
1761400636121206000,12.5742060546875,-2.6204538345336914,-4.756455898284912,6.593855857849121
1761400636131287300,12.584287353515625,-1.8564789295196533,-3.521122455596924,6.343811511993408
1761400636141367000,12.594366943359375,-0.278700053691864,-1.7163434028625488,4.20040225982666
1761400636151448800,12.60444873046875,0.4010287821292877,-0.5428852438926697,1.675716757774353
1761400636161539000,12.6145390625,0.47644615173339844,-0.3159598112106323,-0.005835866555571556
1761400636171636700,12.62463671875,0.6652888059616089,-0.3586813509464264,-1.3304280042648315
1761400636181691000,12.63469091796875,0.6979846358299255,-0.2826654314994812,-1.9474586248397827
1761400636191799000,12.644799072265625,0.24510639905929565,0.31042322516441345,-1.80186128616333
1761400636201880300,12.65488037109375,-0.7169137597084045,0.7754220962524414,-1.2223148345947266
1761400636211946500,12.664946533203125,-1.2794015407562256,0.7159411311149597,-0.47248074412345886
1761400636222029600,12.675029541015626,-1.684171199798584,0.6403741240501404,0.07885901629924774
1761400636232122600,12.68512255859375,-1.807996392250061,0.298302561044693,0.5639841556549072
1761400636242183200,12.69518310546875,-2.0585646629333496,-0.3407248258590698,0.9175029993057251
1761400636252285200,12.70528515625,-2.009932279586792,-0.8411877751350403,1.4187889099121094
1761400636262366200,12.7153662109375,-1.426345705986023,-0.8271966576576233,1.5045312643051147
1761400636272435000,12.72543505859375,-0.3868880271911621,-0.7852981686592102,1.0152912139892578
1761400636282498300,12.735498291015626,0.5158756375312805,-0.8010849356651306,0.21787235140800476
1761400636292609300,12.745609375,1.3656675815582275,-0.5614402890205383,-0.6752396821975708
1761400636302690000,12.75568994140625,2.101435661315918,0.03538929298520088,-1.5072996616363525
1761400636312759000,12.765759033203125,2.3068881034851074,0.4461445212364197,-2.6589853763580322
1761400636322852600,12.7758525390625,2.652251720428467,0.9535656571388245,-3.3890674114227295
1761400636332933400,12.785933349609374,2.846256971359253,0.9640402793884277,-3.2182559967041016
1761400636343013000,12.79601318359375,3.8879590034484863,-0.6216694116592407,-2.8454339504241943
1761400636353080000,12.806080078125,4.155137062072754,-2.4763526916503906,-2.749516248703003
1761400636363176700,12.8161767578125,2.7176434993743896,-4.217161655426025,-4.084507942199707
1761400636373258000,12.826258056640626,2.6180596351623535,-5.948917865753174,-6.297798156738281
1761400636383341600,12.836341552734375,3.5143139362335205,-7.176021099090576,-8.706214904785156
1761400636393420000,12.846419921875,5.369296550750732,-8.9256591796875,-11.777377128601074
1761400636403498800,12.856498779296874,7.585728645324707,-11.246538162231445,-14.414665222167969
1761400636413582300,12.866582275390625,8.195127487182617,-12.63435173034668,-17.295040130615234
1761400636423650300,12.876650390625,8.813879013061523,-13.124714851379395,-17.269527435302734
1761400636433744000,12.886743896484376,8.516624450683594,-11.569456100463867,-18.163311004638672
1761400636443825700,12.89682568359375,5.1949687004089355,-8.296358108520508,-21.2147216796875
1761400636453884200,12.90688427734375,8.147542953491211,-7.318326473236084,-23.73447036743164
1761400636463987500,12.916987548828125,14.632014274597168,-8.835577011108398,-23.05032730102539
1761400636474077000,12.927076904296875,10.862642288208008,-12.992958068847656,-24.73487091064453
1761400636484149200,12.937149169921875,9.735273361206055,-21.415685653686523,-28.278366088867188
1761400636494210000,12.9472099609375,10.954071044921875,-28.649391174316406,-30.440479278564453
1761400636504299000,12.957299072265625,12.284125328063965,-31.525650024414062,-31.614459991455078
1761400636514392300,12.967392333984375,12.315998077392578,-32.63259506225586,-31.352819442749023
1761400636524473600,12.9774736328125,9.233463287353516,-25.22725486755371,-25.303569793701172
1761400636534552800,12.987552734375,8.031424522399902,-18.096649169921875,-19.916540145874023
1761400636544624400,12.997624267578125,6.567295074462891,-15.28907299041748,-16.421306610107422
1761400636554717000,13.007717041015624,4.116006851196289,-15.108983993530273,-14.990321159362793
