time,seconds_elapsed,z,y,x
1761399513225539800,0.123539794921875,-0.06830956786870956,-9.623942375183105,-1.8873791694641113
1761399513235622000,0.133621826171875,-0.06501753628253937,-9.5693998336792,-1.8504934310913086
1761399513245702700,0.14370263671875,-0.08439560979604721,-9.515754699707031,-1.8159271478652954
1761399513255783400,0.153783447265625,-0.1066167950630188,-9.535805702209473,-1.8252794742584229
1761399513265863700,0.16386376953125,-0.11963526904582977,-9.584588050842285,-1.8697218894958496
1761399513275945000,0.173945068359375,-0.14155717194080353,-9.567977905273438,-1.8883517980575562
1761399513286025200,0.184025146484375,-0.16512510180473328,-9.539546966552734,-1.890446662902832
1761399513296095000,0.194094970703125,-0.189216747879982,-9.492112159729004,-1.92867910861969
1761399513306195500,0.204195556640625,-0.21966800093650818,-9.489418029785156,-1.9407249689102173
1761399513316265700,0.214265625,-0.2281973510980606,-9.525032043457031,-1.9565117359161377
1761399513326370800,0.224370849609375,-0.21218612790107727,-9.517550468444824,-1.9266589879989624
1761399513336444200,0.234444091796875,-0.16669629514217377,-9.481412887573242,-1.8971055746078491
1761399513346534400,0.244534423828125,-0.1074398010969162,-9.491737365722656,-1.9022680521011353
1761399513356592000,0.254592041015625,-0.06150105595588684,-9.493383407592773,-1.9143139123916626
1761399513366695700,0.26469580078125,-0.03808277100324631,-9.502362251281738,-1.9292027950286865
1761399513376776000,0.27477587890625,-0.04885667935013771,-9.533935546875,-1.9422212839126587
1761399513386859000,0.28485888671875,-0.05147533491253853,-9.548600196838379,-1.933916449546814
1761399513396935700,0.294935791015625,-0.05776011571288109,-9.541866302490234,-1.9084031581878662
1761399513407005400,0.30500537109375,-0.05656301602721214,-9.530569076538086,-1.8947862386703491
1761399513417085200,0.315085205078125,-0.07668927311897278,-9.5455322265625,-1.9424457550048828
1761399513427172400,0.32517236328125,-0.11544541269540787,-9.551143646240234,-1.9892075061798096
1761399513437248300,0.335248291015625,-0.1173906996846199,-9.517026901245117,-1.981950044631958
1761399513447341000,0.345341064453125,-0.10601824522018433,-9.494880676269531,-1.9761890172958374
1761399513457397500,0.3553974609375,-0.14761750400066376,-9.489044189453125,-1.9536685943603516
1761399513467489800,0.36548974609375,-0.17395371198654175,-9.542389869689941,-1.8810943365097046
1761399513477572600,0.375572509765625,-0.166995570063591,-9.583839416503906,-1.8290205001831055
1761399513487663600,0.38566357421875,-0.16310499608516693,-9.560047149658203,-1.8587983846664429
1761399513497731800,0.39573193359375,-0.11185411363840103,-9.533411979675293,-1.9908535480499268
1761399513507811800,0.405811767578125,-0.05214870721101761,-9.510442733764648,-2.119392156600952
1761399513517903400,0.4159033203125,-0.00823006872087717,-9.49577808380127,-2.2304980754852295
1761399513527976000,0.425975830078125,0.026560675352811813,-9.5531644821167,-2.2841432094573975
1761399513538066700,0.436066650390625,0.04638765752315521,-9.57089614868164,-2.320430278778076
1761399513548135000,0.446135009765625,0.055590372532606125,-9.535507202148438,-2.311751365661621
1761399513558227700,0.456227783203125,0.04032733663916588,-9.5077486038208,-2.3075616359710693
1761399513568308500,0.46630859375,0.002693476853892207,-9.551443099975586,-2.3433997631073
1761399513578389800,0.4763896484375,-0.046238020062446594,-9.606285095214844,-2.4473979473114014
1761399513588446200,0.4864462890625,-0.08274959772825241,-9.637334823608398,-2.583268880844116
1761399513598539800,0.496539794921875,-0.08791209012269974,-9.616161346435547,-2.714500904083252
1761399513608631300,0.50663134765625,-0.07870937883853912,-9.66030502319336,-2.8125884532928467
1761399513618717700,0.5167177734375,-0.03853168338537216,-9.726893424987793,-2.779144525527954
1761399513628792300,0.526792236328125,0.034341830760240555,-9.658807754516602,-2.6563668251037598
1761399513638862600,0.536862548828125,0.08813655376434326,-9.481712341308594,-2.524461269378662
1761399513648960300,0.546960205078125,0.07504326105117798,-9.248725891113281,-2.453308582305908
1761399513659035000,0.557034912109375,0.0003740940010175109,-9.121085166931152,-2.478447675704956
1761399513669115000,0.567114990234375,-0.15689502656459808,-9.112630844116211,-2.592172145843506
1761399513679195600,0.577195556640625,-0.2858826518058777,-9.198897361755371,-2.6547956466674805
1761399513689263900,0.587263916015625,-0.3696048855781555,-9.26443862915039,-2.739565372467041
1761399513699357200,0.597357177734375,-0.4097825884819031,-9.259275436401367,-2.75116229057312
1761399513709412400,0.607412353515625,-0.4481646418571472,-9.21588134765625,-2.6898107528686523
1761399513719516000,0.617515869140625,-0.4659714996814728,-9.142857551574707,-2.563516616821289
1761399513729572900,0.62757275390625,-0.4579658806324005,-9.079261779785156,-2.5288007259368896
1761399513739680000,0.637679931640625,-0.46814125776290894,-9.043124198913574,-2.5488522052764893
1761399513749760300,0.64776025390625,-0.5303156971931458,-9.022250175476074,-2.6284594535827637
1761399513759841000,0.657841064453125,-0.666710376739502,-9.032125473022461,-2.6354174613952637
1761399513769920000,0.667919921875,-0.8191910982131958,-9.079710960388184,-2.6162638664245605
1761399513780000500,0.67800048828125,-0.9614216089248657,-9.146673202514648,-2.5347862243652344
1761399513790074600,0.68807470703125,-1.0462661981582642,-9.1638822555542,-2.4559271335601807
1761399513800151300,0.6981513671875,-1.0349684953689575,-9.194108963012695,-2.4028806686401367
1761399513810244000,0.708244140625,-0.9699509739875793,-9.263166427612305,-2.4099135398864746
1761399513820324600,0.71832470703125,-0.8904933929443359,-9.35077953338623,-2.4346039295196533
1761399513830401300,0.7284013671875,-0.8108113408088684,-9.3543701171875,-2.459144353866577
1761399513840484600,0.738484619140625,-0.7487117648124695,-9.291297912597656,-2.4957308769226074
1761399513850554600,0.7485546875,-0.7197569012641907,-9.265336036682129,-2.4858546257019043
1761399513860643300,0.758643310546875,-0.7476642727851868,-9.32541561126709,-2.5393502712249756
1761399513870728400,0.768728515625,-0.8150760531425476,-9.419986724853516,-2.6088569164276123
1761399513880808400,0.778808349609375,-0.849941611289978,-9.459490776062012,-2.668337821960449
1761399513890877400,0.78887744140625,-0.8738836050033569,-9.483508110046387,-2.6867432594299316
1761399513900970200,0.79897021484375,-0.8396914005279541,-9.478719711303711,-2.758344888687134
1761399513911032300,0.8090322265625,-0.8139537572860718,-9.449390411376953,-2.8447604179382324
1761399513921131300,0.81913134765625,-0.809015691280365,-9.383774757385254,-2.951152801513672
1761399513931190000,0.82918994140625,-0.7978677153587341,-9.30109977722168,-3.0417585372924805
1761399513941280800,0.83928076171875,-0.7739257216453552,-9.252392768859863,-3.1232361793518066
1761399513951373000,0.849373046875,-0.8493430614471436,-9.256956100463867,-3.203890800476074
1761399513961453600,0.85945361328125,-0.9650129079818726,-9.319953918457031,-3.193416118621826
1761399513971512600,0.8695126953125,-1.040804386138916,-9.426047325134277,-3.1658079624176025
1761399513981614800,0.87961474609375,-1.1055974960327148,-9.453131675720215,-3.0404865741729736
1761399513991696100,0.889696044921875,-1.0744727849960327,-9.36776351928711,-2.909104585647583
1761399514001764000,0.89976416015625,-0.9995791912078857,-9.30461597442627,-2.8353333473205566
1761399514011839000,0.9098388671875,-0.9201216697692871,-9.340154647827148,-2.8861353397369385
1761399514021937400,0.9199375,-0.870217502117157,-9.45103645324707,-2.9868414402008057
1761399514032007200,0.930007080078125,-0.7712322473526001,-9.566556930541992,-3.060014247894287
1761399514042094800,0.9400947265625,-0.629675030708313,-9.645939826965332,-3.0626327991485596
1761399514052181000,0.950180908203125,-0.507570743560791,-9.657686233520508,-3.016469717025757
1761399514062260500,0.960260498046875,-0.39728784561157227,-9.632546424865723,-2.9914801120758057
1761399514072329000,0.970328857421875,-0.3421463966369629,-9.614590644836426,-2.9576621055603027
1761399514082421500,0.98042138671875,-0.3762637674808502,-9.606210708618164,-2.9547441005706787
1761399514092491000,0.990490966796875,-0.5862053036689758,-9.638607025146484,-3.1216650009155273
1761399514102581200,1.000581298828125,-1.0377367734909058,-9.79183578491211,-3.4968812465667725
1761399514112663300,1.010663330078125,-1.4977227449417114,-10.117971420288086,-4.15296745300293
1761399514122734800,1.02073486328125,-1.811812162399292,-10.615291595458984,-4.884844779968262
1761399514132824800,1.030824951171875,-1.8139818906784058,-10.936938285827637,-5.137956619262695
1761399514142892800,1.040892822265625,-1.2583774328231812,-10.801216125488281,-4.9578680992126465
1761399514152986000,1.050986083984375,-0.48961424827575684,-10.264391899108887,-4.728623390197754
1761399514163069000,1.06106884765625,0.015337854623794556,-9.716793060302734,-4.5172600746154785
1761399514173134600,1.071134521484375,0.26500821113586426,-9.726070404052734,-4.439822673797607
1761399514183229000,1.08122900390625,0.40873512625694275,-10.316465377807617,-4.300136089324951
1761399514193299000,1.091298828125,0.5885995030403137,-10.776152610778809,-3.6193594932556152
1761399514203389200,1.10138916015625,0.7506570219993591,-10.64746379852295,-2.82515811920166
1761399514213472300,1.11147216796875,0.6708253622055054,-10.50949764251709,-2.5173535346984863
1761399514223543300,1.121543212890625,0.18151041865348816,-10.720112800598145,-2.4572739601135254
1761399514233621500,1.13162158203125,0.020201077684760094,-10.898855209350586,-2.559401512145996
1761399514243712000,1.1417119140625,0.21270985901355743,-10.957438468933105,-2.2900538444519043
1761399514253780000,1.151780029296875,0.6367828249931335,-10.814310073852539,-1.3163620233535767
1761399514263873300,1.161873291015625,1.215132236480713,-10.483386039733887,-0.46492403745651245
1761399514273953800,1.171953857421875,1.8122611045837402,-10.370933532714844,-0.2916437089443207
1761399514284034600,1.18203466796875,1.816825032234192,-10.439093589782715,-0.3247884213924408
1761399514294113300,1.19211328125,1.1837830543518066,-10.599130630493164,-0.651372492313385
1761399514304183000,1.20218310546875,0.2661304771900177,-10.961777687072754,-1.1663503646850586
1761399514314276600,1.212276611328125,-0.06756138056516647,-11.428197860717773,-1.652747392654419
1761399514324343800,1.22234375,0.4239233434200287,-11.99988842010498,-2.177227258682251
1761399514334438400,1.2324384765625,1.2121394872665405,-12.446930885314941,-2.5806500911712646
1761399514344496000,1.24249609375,1.4560487270355225,-12.222100257873535,-2.6116251945495605
1761399514354586400,1.25258642578125,0.9763853549957275,-11.247285842895508,-2.1254525184631348
1761399514364676900,1.2626767578125,0.2700210511684418,-10.157699584960938,-1.3367127180099487
1761399514374749200,1.272749267578125,-0.12831424176692963,-9.416844367980957,-0.8977507948875427
1761399514384841200,1.28284130859375,-0.09771335870027542,-9.016263961791992,-0.6938695907592773
1761399514394901000,1.29290087890625,0.3242647051811218,-8.987459182739258,-0.8456769585609436
1761399514405002800,1.303002685546875,0.6899042129516602,-9.13081169128418,-1.139864444732666
1761399514415072300,1.313072265625,0.8759037256240845,-9.311050415039062,-1.4279168844223022
1761399514425162000,1.323161865234375,0.9151087999343872,-8.931943893432617,-1.7522563934326172
1761399514435231500,1.3332314453125,1.1935843229293823,-8.924910545349121,-1.349656343460083
1761399514445324800,1.34332470703125,1.4443022012710571,-8.580819129943848,-1.4091373682022095
1761399514455405600,1.353405517578125,1.4674960374832153,-8.223858833312988,-1.0232967138290405
1761399514465485300,1.3634853515625,1.4859014749526978,-7.621192932128906,-1.256955862045288
1761399514475541500,1.37354150390625,1.450437307357788,-7.135618686676025,-1.428964376449585
1761399514485644300,1.383644287109375,1.4214075803756714,-6.910563945770264,-1.6068834066390991
1761399514495728000,1.39372802734375,1.4330044984817505,-6.722918510437012,-1.4920365810394287
1761399514505809200,1.40380908203125,1.449015736579895,-6.705485820770264,-1.5245078802108765
1761399514515889200,1.41388916015625,1.4790180921554565,-6.818686485290527,-1.594388723373413
1761399514525961500,1.42396142578125,1.452831506729126,-6.858415126800537,-1.5558570623397827
1761399514536028700,1.434028564453125,1.2827683687210083,-6.789506912231445,-1.512312412261963
1761399514546120200,1.4441201171875,1.3701567649841309,-7.168090343475342,-0.9249100685119629
1761399514556210000,1.4542099609375,1.485976219177246,-7.060351371765137,-1.2508207559585571
1761399514566292700,1.464292724609375,1.7283143997192383,-6.8098578453063965,-1.311798095703125
1761399514576362800,1.47436279296875,2.394052028656006,-6.461202144622803,-1.3252654075622559
1761399514586441200,1.484441162109375,3.0313587188720703,-6.060098648071289,-1.5859341621398926
1761399514596535000,1.49453515625,3.568183422088623,-5.7888054847717285,-2.098443031311035
1761399514606585000,1.504585205078125,4.174739360809326,-5.806163787841797,-2.700435161590576
1761399514616673000,1.514673095703125,4.765583515167236,-6.072294235229492,-3.448772668838501
1761399514626763000,1.524762939453125,4.690166473388672,-6.590414047241211,-4.2719292640686035
1761399514636857300,1.534857421875,4.194267272949219,-7.441777229309082,-5.201253414154053
1761399514646937900,1.544937744140625,5.234697341918945,-8.80048656463623,-6.213028430938721
1761399514657006000,1.555006103515625,5.902605056762695,-10.203489303588867,-6.6513166427612305
1761399514667099400,1.565099365234375,5.94293212890625,-11.359888076782227,-6.8062663078308105
1761399514677166300,1.575166259765625,5.555819988250732,-12.07814884185791,-6.92305850982666
1761399514687258000,1.585258056640625,5.0513916015625,-11.478626251220703,-6.75538969039917
1761399514697330400,1.595330322265625,4.440720558166504,-10.034249305725098,-6.019771099090576
1761399514707422000,1.605421875,4.184915065765381,-8.782979011535645,-4.712387561798096
1761399514717502700,1.615502685546875,4.129698753356934,-7.948225975036621,-3.203890800476074
1761399514727577900,1.625577880859375,4.148179054260254,-7.041721343994141,-1.9015198945999146
1761399514737649400,1.6356494140625,4.924274444580078,-6.7783589363098145,-0.9293243288993835
1761399514747731700,1.645731689453125,5.368772983551025,-9.120935440063477,-0.8283189535140991
1761399514757825500,1.655825439453125,4.910432815551758,-13.224448204040527,-2.1432595252990723
1761399514767895300,1.665895263671875,4.966846466064453,-16.194156646728516,-3.507730007171631
1761399514777986000,1.675986083984375,3.766453266143799,-16.825326919555664,-4.239383220672607
1761399514788049000,1.686048828125,0.0975637212395668,-13.416881561279297,-4.7736639976501465
1761399514798133000,1.696133056640625,0.03972878307104111,-8.530241012573242,-4.851550579071045
1761399514808220000,1.706219970703125,0.5435585975646973,-5.563077449798584,-4.046275615692139
1761399514818309000,1.71630908203125,-0.0644938051700592,-4.93923807144165,-3.0465469360351562
1761399514828381700,1.726381591796875,-0.23792380094528198,-5.635202407836914,-1.9197008609771729
1761399514838457900,1.736457763671875,-0.9044097065925598,-6.888043403625488,-0.9812486171722412
1761399514848539600,1.74653955078125,-1.5881038904190063,-7.904457092285156,-0.7826794981956482
1761399514858619100,1.756619140625,-1.6843209266662598,-8.811934471130371,-1.3204022645950317
1761399514868686800,1.766686767578125,-1.5823428630828857,-9.962647438049316,-2.41545033454895
1761399514878793200,1.776793212890625,-1.6933739185333252,-11.395727157592773,-3.8731448650360107
1761399514888871700,1.78687158203125,-1.6225954294204712,-12.262502670288086,-4.8780364990234375
1761399514898954000,1.7969541015625,-1.014243721961975,-11.584568977355957,-4.40809965133667
1761399514909034800,1.80703466796875,-0.5868787169456482,-9.968034744262695,-3.329287052154541
1761399514919115500,1.817115478515625,-0.27578210830688477,-8.967931747436523,-2.478597402572632
1761399514929194000,1.827194091796875,0.23081600666046143,-8.519243240356445,-1.6873136758804321
1761399514939277000,1.837277099609375,0.5992985963821411,-8.421454429626465,-1.2149077653884888
1761399514949360600,1.847360595703125,0.7246201038360596,-8.628852844238281,-1.1747300624847412
1761399514959425300,1.85742529296875,0.6382791996002197,-8.901118278503418,-1.367987036705017
1761399514969518800,1.867518798828125,0.5334580540657043,-9.16896915435791,-1.5307927131652832
1761399514979585000,1.8775849609375,0.24922142922878265,-9.394323348999023,-1.6036661863327026
1761399514989668000,1.887668212890625,-0.022595278918743134,-9.559449195861816,-1.664119839668274
1761399514999758600,1.897758544921875,-0.3224690556526184,-9.546280860900879,-1.7702128887176514
1761399515009841200,1.907841064453125,-0.30630818009376526,-9.395445823669434,-1.8107646703720093
1761399515019921700,1.917921630859375,-0.21704934537410736,-9.016039848327637,-1.8148796558380127
1761399515030014000,1.928013916015625,-0.14694413542747498,-8.662595748901367,-1.7938556671142578
1761399515040084000,1.938083984375,-0.05229834467172623,-8.377311706542969,-1.817872405052185
1761399515050147300,1.948147216796875,-0.0933738648891449,-8.191461563110352,-1.9775358438491821
1761399515060221400,1.958221435546875,-0.1604115068912506,-8.174103736877441,-2.4821887016296387
1761399515070325200,1.9683251953125,-0.23567922413349152,-8.374468803405762,-3.089792013168335
1761399515080394800,1.978394775390625,-0.20702363550662994,-8.663867950439453,-3.623100519180298
1761399515090486800,1.98848681640625,-0.0627729743719101,-8.822632789611816,-3.9525277614593506
1761399515100565000,1.99856494140625,0.33339259028434753,-8.80048656463623,-3.9850738048553467
1761399515110617600,2.00861767578125,0.7117512822151184,-8.768763542175293,-3.8954410552978516
1761399515120724700,2.018724853515625,1.039307951927185,-8.860342025756836,-3.814262628555298
1761399515130809600,2.0288095703125,1.2167781591415405,-8.959102630615234,-3.7644331455230713
1761399515140890000,2.03889013671875,1.1504138708114624,-9.005415916442871,-3.6782419681549072
1761399515150957600,2.04895751953125,0.880392849445343,-8.918176651000977,-3.7019596099853516
1761399515161051100,2.059051025390625,0.500014066696167,-8.654740333557129,-3.916165828704834
1761399515171119000,2.069119140625,0.06157587468624115,-8.357559204101562,-4.172420024871826
1761399515181208300,2.079208251953125,-0.33271920680999756,-8.217573165893555,-4.393808841705322
1761399515191289300,2.089289306640625,-0.618452250957489,-8.252589225769043,-4.467056751251221
1761399515201370600,2.09937060546875,-0.7163152098655701,-8.458115577697754,-4.144063949584961
1761399515211442000,2.10944189453125,-0.5618143677711487,-8.952444076538086,-3.5382559299468994
1761399515221522400,2.1195224609375,-0.3546411395072937,-9.652373313903809,-2.7759273052215576
1761399515231606800,2.129606689453125,-0.32209494709968567,-10.24306869506836,-2.0777928829193115
1761399515241683700,2.13968359375,-0.47322893142700195,-10.573392868041992,-1.9401264190673828
1761399515251783400,2.149783447265625,-0.3554641306400299,-10.619556427001953,-2.170119285583496
1761399515261845000,2.159844970703125,-0.4305073916912079,-10.334795951843262,-2.5819969177246094
1761399515271927000,2.169927001953125,-0.3918260633945465,-10.08325481414795,-2.94352126121521
1761399515282019300,2.180019287109375,-0.4854243993759155,-10.096348762512207,-3.3381905555725098
1761399515292099600,2.190099609375,-0.6685060262680054,-10.284218788146973,-3.8807764053344727
1761399515302168000,2.20016796875,-0.6093243360519409,-10.333972930908203,-4.413486480712891
1761399515312261000,2.21026123046875,-0.09307458996772766,-10.323498725891113,-4.773738861083984
1761399515322323200,2.2203232421875,0.5462520718574524,-10.225186347961426,-4.903998374938965
1761399515332422100,2.230422119140625,0.7446715235710144,-10.025943756103516,-5.07682991027832
1761399515342502000,2.240501953125,0.22707507014274597,-9.800814628601074,-5.698798656463623
1761399515352583200,2.250583251953125,-0.9234136939048767,-9.698986053466797,-6.657302379608154
1761399515362658600,2.260658447265625,-1.7436522245407104,-9.514632225036621,-7.355062484741211
1761399515372732200,2.270732177734375,-1.7194108963012695,-9.408464431762695,-8.064793586730957
1761399515382814200,2.280814208984375,-2.131138801574707,-9.517624855041504,-8.431929588317871
1761399515392906200,2.29090625,-1.9790321588516235,-9.446023941040039,-7.600991725921631
1761399515402978000,2.30097802734375,-0.9279776215553284,-10.059164047241211,-6.024709224700928
1761399515413067500,2.311067626953125,0.8685714602470398,-11.77745246887207,-4.112565040588379
1761399515423136000,2.321135986328125,2.077568531036377,-13.652261734008789,-2.163161277770996
1761399515433210400,2.33121044921875,2.2234652042388916,-14.885575294494629,-0.5362263321876526
1761399515443307500,2.3413076171875,1.6108487844467163,-14.891186714172363,0.5232827067375183
1761399515453390000,2.35139013671875,0.494926393032074,-13.768904685974121,1.2742390632629395
1761399515463469000,2.361468994140625,-0.7562684416770935,-12.838981628417969,1.6077812910079956
1761399515473551400,2.37155126953125,-1.7092355489730835,-12.2990140914917,1.3462895154953003
1761399515483611000,2.38161083984375,-2.1350293159484863,-11.511096954345703,0.24271219968795776
1761399515493687600,2.3916875,-1.5821183919906616,-10.535085678100586,-1.5036334991455078
1761399515503798000,2.401798095703125,-0.1538274586200714,-10.327089309692383,-3.51700758934021
1761399515513872000,2.411871826171875,0.9157073497772217,-10.660856246948242,-4.890381336212158
1761399515523952400,2.421952392578125,1.2087725400924683,-10.657639503479004,-5.464840412139893
1761399515534035200,2.43203515625,1.2297219038009644,-10.223915100097656,-5.673958778381348
1761399515544103000,2.44210302734375,0.8645312786102295,-9.80687427520752,-5.398550510406494
1761399515554196200,2.4521962890625,0.54460608959198,-9.342399597167969,-4.80553674697876
1761399515564264200,2.46226416015625,0.37304654717445374,-8.849642753601074,-4.312406063079834
1761399515574356000,2.47235595703125,0.02379237860441208,-8.578424453735352,-3.877559185028076
1761399515584425700,2.48242578125,-0.044592007994651794,-8.363020896911621,-3.2894835472106934
1761399515594519300,2.492519287109375,0.2346317619085312,-8.043694496154785,-2.8370542526245117
1761399515604599300,2.502599365234375,0.29538464546203613,-7.737461566925049,-2.22855281829834
1761399515614667800,2.512667724609375,0.11133038252592087,-7.582287311553955,-1.7836803197860718
1761399515624760800,2.5227607421875,-0.09030629694461823,-7.3546881675720215,-1.1721861362457275
1761399515634841900,2.532841796875,-0.15524901449680328,-7.156119346618652,-0.8572738170623779
1761399515644920300,2.54292041015625,-0.04406827688217163,-7.0435919761657715,-0.6396259665489197
1761399515654998800,2.552998779296875,0.1776198446750641,-6.944007873535156,-0.5862801671028137
1761399515665070800,2.56307080078125,0.3768623173236847,-6.8180131912231445,-1.063549280166626
1761399515675146000,2.57314599609375,0.7169885635375977,-7.3425679206848145,-0.5161001086235046
1761399515685244700,2.58324462890625,1.0869675874710083,-7.3179521560668945,-0.8147767782211304
1761399515695326700,2.59332666015625,1.3242180347442627,-7.096189498901367,-1.1053730249404907
1761399515705404400,2.603404296875,1.5667057037353516,-7.039925575256348,-0.732850193977356
1761399515715465700,2.6134658203125,1.5937901735305786,-6.472799301147461,-0.8046762347221375
1761399515725565700,2.623565673828125,1.574935793876648,-6.027402877807617,-0.7480384111404419
1761399515735634700,2.633634765625,1.6271593570709229,-5.762918472290039,-0.44988545775413513
1761399515745716700,2.643716796875,1.782408356666565,-5.600860595703125,-0.1834557056427002
1761399515755794700,2.653794677734375,2.0807857513427734,-5.560159206390381,-0.19243396818637848
1761399515765888300,2.66388818359375,2.4659528732299805,-5.76598596572876,-0.4894646108150482
1761399515775968300,2.67396826171875,3.0744543075561523,-6.191779613494873,-1.1548281908035278
1761399515786051300,2.68405126953125,3.6104562282562256,-6.819958209991455,-2.2304980754852295
1761399515796131800,2.6941318359375,4.009016036987305,-7.620818614959717,-3.608436107635498
1761399515806205200,2.704205078125,4.208108901977539,-8.71182632446289,-5.283703804016113
1761399515816280600,2.714280517578125,4.119448661804199,-10.02916145324707,-6.916325092315674
1761399515826361000,2.724361083984375,3.829450845718384,-11.51506233215332,-8.230217933654785
1761399515836424700,2.7344248046875,3.8703765869140625,-12.802170753479004,-9.317858695983887
1761399515846522600,2.744522705078125,4.162169933319092,-13.02700138092041,-9.892841339111328
1761399515856603100,2.75460302734375,4.48710823059082,-11.645247459411621,-9.645265579223633
1761399515866697000,2.764697021484375,4.318690776824951,-9.804704666137695,-8.97316837310791
1761399515876757000,2.774757080078125,3.6985926628112793,-8.434099197387695,-8.103998184204102
1761399515886856200,2.784856201171875,3.1879544258117676,-7.381099224090576,-7.20744514465332
1761399515896926000,2.794926025390625,2.899752378463745,-6.403741359710693,-6.534599304199219
1761399515907006700,2.8050068359375,2.9492075443267822,-5.4100728034973145,-6.284929275512695
1761399515917100000,2.81510009765625,3.4736874103546143,-4.641160011291504,-6.361618518829346
1761399515927167500,2.82516748046875,3.6646997928619385,-5.536067485809326,-6.478559970855713
1761399515937262000,2.835261962890625,2.4822633266448975,-9.455824851989746,-7.1618804931640625
1761399515947329300,2.845329345703125,1.2883049249649048,-14.454544067382812,-7.523404598236084
1761399515957420300,2.855420166015625,0.561066210269928,-17.270498275756836,-5.928941249847412
1761399515967492400,2.865492431640625,-0.43207859992980957,-17.08704376220703,-4.09438419342041
1761399515977584000,2.875584228515625,-1.6279823780059814,-14.273407936096191,-2.2858641147613525
1761399515987664400,2.885664306640625,0.36563947796821594,-10.8975830078125,-0.9605985879898071
1761399515997719600,2.895719482421875,2.6728270053863525,-8.088436126708984,0.3396025598049164
1761399516007826000,2.905825927734375,1.4243255853652954,-5.65031623840332,0.3001730442047119
1761399516017906000,2.915906005859375,-0.45833998918533325,-4.106654644012451,0.7318775057792664
1761399516027987500,2.925987548828125,-1.6964415311813354,-3.9984664916992188,1.45537531375885
1761399516038055400,2.936055419921875,-2.434828281402588,-4.755183696746826,1.7107319831848145
1761399516048136200,2.94613623046875,-2.9302785396575928,-6.785766124725342,0.555978536605835
1761399516058229000,2.95622900390625,-3.4257285594940186,-10.721309661865234,-1.1941828727722168
1761399516068297200,2.966297119140625,-3.9705591201782227,-14.623559951782227,-2.8131868839263916
1761399516078388200,2.97638818359375,-2.4712650775909424,-15.629273414611816,-3.7311389446258545
1761399516088484000,2.986484130859375,-0.3687818944454193,-14.165294647216797,-4.744035720825195
1761399516098551800,2.9965517578125,0.7798363566398621,-10.328211784362793,-4.744260311126709
1761399516108622000,3.0066220703125,0.843582034111023,-7.994987487792969,-4.081739902496338
1761399516118712800,3.016712890625,0.6649147272109985,-7.546374320983887,-2.7807905673980713
1761399516128780800,3.02678076171875,0.6126911640167236,-7.987056732177734,-1.7922096252441406
1761399516138887400,3.036887451171875,0.39392098784446716,-8.768763542175293,-1.3503297567367554
1761399516148953300,3.046953369140625,0.22468087077140808,-9.356016159057617,-1.409960389137268
1761399516159033000,3.057033203125,0.06157587468624115,-9.392827033996582,-1.3543699979782104
1761399516169116200,3.0671162109375,-0.06673837453126907,-9.078887939453125,-1.235183596611023
1761399516179183900,3.077183837890625,0.03134907782077789,-8.763675689697266,-1.3033435344696045
1761399516189273300,3.0872734375,0.08918401598930359,-8.492682456970215,-1.5188217163085938
1761399516199345400,3.097345458984375,0.04556465148925781,-8.261117935180664,-1.7580174207687378
1761399516209437000,3.10743701171875,0.012120646424591541,-8.179341316223145,-1.9541175365447998
1761399516219509200,3.11750927734375,-0.09217676520347595,-8.221090316772461,-2.105999708175659
1761399516229600500,3.1276005859375,-0.24809914827346802,-8.330550193786621,-2.280925989151001
1761399516239680500,3.137680419921875,-0.3520972728729248,-8.427141189575195,-2.518625259399414
1761399516249749500,3.14774951171875,-0.32763153314590454,-8.509516716003418,-2.899902105331421
1761399516259853000,3.15785302734375,-0.1852513551712036,-8.485499382019043,-3.360860586166382
1761399516269922600,3.167922607421875,0.21854571998119354,-8.348880767822266,-3.787252902984619
1761399516280001500,3.17800146484375,0.6549637913703918,-8.227599143981934,-4.166584491729736
1761399516290084000,3.188083984375,0.904708981513977,-8.224980354309082,-4.459200859069824
1761399516310245600,3.20824560546875,0.8290671706199646,-8.72768783569336,-4.68058967590332
1761399516320314600,3.218314697265625,0.753200888633728,-9.034969329833984,-4.59080696105957
1761399516330401800,3.22840185546875,0.6774094700813293,-9.082404136657715,-4.6547770500183105
1761399516340486000,3.23848583984375,0.39055415987968445,-8.925060272216797,-4.828281879425049
1761399516350565600,3.248565673828125,-0.07668927311897278,-8.689605712890625,-4.8814778327941895
1761399516360646700,3.258646728515625,-0.4941033720970154,-8.54109001159668,-4.789076805114746
1761399516370728400,3.268728515625,-0.5398924946784973,-8.508244514465332,-4.501847267150879
1761399516380792000,3.2787919921875,-0.347308874130249,-8.806097984313965,-4.017096519470215
1761399516390890500,3.288890380859375,-0.218171626329422,-9.337387084960938,-3.485434055328369
1761399516400967200,3.29896728515625,-0.3314473032951355,-9.856404304504395,-3.049539566040039
1761399516411018200,3.309018310546875,-0.5761796236038208,-10.010980606079102,-2.7537808418273926
1761399516421132500,3.319132568359375,-0.6640169024467468,-9.770812034606934,-2.4176199436187744
1761399516431210500,3.32921044921875,-0.9790788292884827,-9.735198020935059,-2.8232126235961914
1761399516441294000,3.339294189453125,-1.399261236190796,-10.035146713256836,-3.3867478370666504
1761399516451378200,3.349378173828125,-1.4600889682769775,-10.371007919311523,-3.745504140853882
1761399516461455000,3.359455078125,-1.1967267990112305,-10.584317207336426,-3.7719151973724365
1761399516471510000,3.369510009765625,-0.8076689839363098,-10.612598419189453,-3.7636849880218506
1761399516481590500,3.379590576171875,-0.5420622229576111,-10.550273895263672,-4.012831687927246
1761399516491671800,3.389671875,-0.6838438510894775,-10.564265251159668,-4.779873847961426
1761399516501752300,3.39975244140625,-1.0278607606887817,-10.381707191467285,-5.958569526672363
1761399516511838500,3.40983837890625,-1.0705822706222534,-10.11894416809082,-7.14115571975708
1761399516521915600,3.41991552734375,-1.2753612995147705,-9.659406661987305,-8.086042404174805
1761399516531994000,3.429994140625,-2.0754735469818115,-8.977209091186523,-8.699630737304688
1761399516542063400,3.4400634765625,-1.8608185052871704,-8.916830062866211,-8.99471664428711
1761399516552154600,3.450154541015625,-1.389534831047058,-9.158195495605469,-8.042423248291016
1761399516562245400,3.460245361328125,-0.45340195298194885,-9.711181640625,-6.075361728668213
1761399516572326000,3.470325927734375,0.361299991607666,-10.899229049682617,-3.904344320297241
1761399516582421800,3.480421875,1.0746972560882568,-12.218733787536621,-2.0545244216918945
1761399516592503600,3.490503662109375,1.3862427473068237,-13.703288078308105,-0.8586205840110779
1761399516602582800,3.500582763671875,1.3050644397735596,-13.674857139587402,0.8514379858970642
1761399516612655000,3.510655029296875,1.1815385818481445,-13.629816055297852,0.8134300112724304
1761399516622745600,3.52074560546875,0.23081600666046143,-13.512724876403809,0.7261164784431458
1761399516632820200,3.5308203125,-0.901940643787384,-12.403386116027832,1.5272014141082764
1761399516642907400,3.540907470703125,-1.3629741668701172,-11.632452964782715,0.9977087378501892
1761399516652975400,3.550975341796875,-0.8827122449874878,-11.274295806884766,-0.2604442536830902
1761399516663066400,3.56106640625,0.27720367908477783,-11.522469520568848,-1.724049687385559
1761399516673149200,3.571149169921875,1.069983720779419,-11.925593376159668,-3.0272436141967773
1761399516683217000,3.581216796875,1.20368492603302,-11.84426498413086,-4.172121047973633
1761399516693310700,3.591310791015625,0.904559314250946,-11.072957992553711,-4.6565728187561035
1761399516703391000,3.601390869140625,0.5244798064231873,-9.783605575561523,-5.087304592132568
1761399516713471200,3.61147119140625,0.3974374830722809,-9.004517555236816,-5.0406174659729
1761399516723550200,3.62155029296875,0.29635727405548096,-8.594435691833496,-4.510002613067627
1761399516733608200,3.631608154296875,0.7155670523643494,-8.342146873474121,-4.362534999847412
1761399516743700500,3.641700439453125,0.8974515199661255,-8.558897018432617,-3.501893997192383
1761399516753794300,3.651794189453125,0.8934861421585083,-8.518943786621094,-2.737171173095703
1761399516763874600,3.66187451171875,0.7297825813293457,-8.581192970275879,-2.192340612411499
1761399516773955300,3.671955322265625,0.6057330369949341,-8.685415267944336,-1.3927520513534546
1761399516784035800,3.682035888671875,0.5618892312049866,-8.565930366516113,-0.8906430602073669
1761399516804184800,3.702184814453125,0.8364742398262024,-7.98832893371582,-0.5437830686569214
1761399516824359000,3.72235888671875,1.3391817808151245,-7.334187984466553,-1.285910725593567
1761399516834437000,3.73243701171875,1.5890765190124512,-7.076886177062988,-1.4174422025680542
1761399516844504300,3.74250439453125,1.581370234489441,-6.88953971862793,-1.508721113204956
1761399516854598700,3.7525986328125,1.4888942241668701,-6.72995138168335,-1.6619501113891602
1761399516864674800,3.7626748046875,1.2689268589019775,-6.5365447998046875,-1.9541175365447998
1761399516874761700,3.77276171875,1.0951228141784668,-6.346729278564453,-2.2863879203796387
1761399516884842200,3.78284228515625,0.9212439060211182,-6.056656837463379,-2.5872342586517334
1761399516894923300,3.79292333984375,0.9269301295280457,-5.782670497894287,-2.810194253921509
1761399516905001200,3.803001220703125,1.1149498224258423,-5.579687118530273,-2.847379207611084
1761399516915071500,3.813071533203125,1.4117560386657715,-5.219359874725342,-2.8895769119262695
1761399516925157600,3.82315771484375,1.8492215871810913,-4.93811559677124,-2.776301383972168
1761399516935245600,3.83324560546875,2.163086414337158,-5.011138916015625,-2.8221652507781982
1761399516945313800,3.843313720703125,2.483759880065918,-5.335254192352295,-2.9123966693878174
1761399516955407000,3.853406982421875,2.9123966693878174,-5.682039260864258,-3.156680107116699
1761399516965486800,3.86348681640625,3.484985113143921,-6.169259071350098,-3.7492449283599854
1761399516975566300,3.87356640625,3.973327398300171,-6.88564920425415,-4.563647747039795
1761399516985633500,3.883633544921875,4.01963996887207,-7.8932342529296875,-5.516390323638916
1761399516995729700,3.893729736328125,4.736629009246826,-9.146748542785645,-6.495469093322754
1761399517005810200,3.90381005859375,5.293280601501465,-10.50014591217041,-7.019575119018555
1761399517015878100,3.913878173828125,5.563526153564453,-11.635147094726562,-7.2637834548950195
1761399517025952300,3.9239521484375,5.839308261871338,-12.352509498596191,-7.383942604064941
1761399517036027100,3.934027099609375,5.602282524108887,-12.079944610595703,-6.940267086029053
1761399517046118700,3.94411865234375,5.012485504150391,-10.940678596496582,-5.809605121612549
1761399517056214300,3.95421435546875,4.847959041595459,-9.988309860229492,-4.2975921630859375
1761399517066294500,3.96429443359375,4.529605388641357,-8.983643531799316,-3.22102427482605
1761399517076364300,3.9743642578125,3.65385103225708,-7.658377647399902,-2.5609729290008545
1761399517086455600,3.98445556640625,3.005995035171509,-5.95370626449585,-2.438270092010498
1761399517096535800,3.994535888671875,3.5465610027313232,-4.482170104980469,-2.5849149227142334
1761399517106614800,4.00461474609375,4.747926235198975,-4.983904838562012,-2.441711664199829
1761399517116695600,4.014695556640625,4.508131980895996,-9.304166793823242,-3.4740614891052246
1761399517126778000,4.024778076171875,3.250577688217163,-15.071200370788574,-5.824718475341797
1761399517136830000,4.034829833984375,2.4083423614501953,-19.393707275390625,-5.895048141479492
1761399517146948600,4.044948486328125,-0.2801215946674347,-20.82761001586914,-5.297844409942627
1761399517157020200,4.055020263671875,-1.6282068490982056,-16.77654457092285,-4.889184474945068
1761399517167098600,4.0650986328125,-0.4857984781265259,-10.376470565795898,-4.4397478103637695
1761399517177181700,4.075181640625,0.20208558440208435,-6.059051036834717,-3.0532805919647217
1761399517187240000,4.085239990234375,-0.12098200619220734,-3.977367639541626,-1.418714165687561
1761399517197342500,4.095342529296875,-0.6858639717102051,-3.4140567779541016,-0.1982698291540146
1761399517207423700,4.105423828125,-1.6514005661010742,-4.0148515701293945,0.04563947021961212
1761399517217491200,4.1154912109375,-2.086172580718994,-5.236942291259766,-0.7288099527359009
1761399517227585000,4.1255849609375,-1.7467197179794312,-7.071274757385254,-2.182539224624634
1761399517237663700,4.135663818359375,-1.345017671585083,-9.977835655212402,-3.8615481853485107
1761399517247734300,4.145734375,-0.6367080211639404,-13.206341743469238,-5.52125358581543
1761399517257827300,4.155827392578125,-0.07369652390480042,-14.83971118927002,-6.088230609893799
1761399517267895300,4.165895263671875,0.14036007225513458,-13.861978530883789,-5.27764368057251
1761399517277987600,4.175987548828125,0.24121582508087158,-10.644695281982422,-4.1739912033081055
1761399517288068400,4.186068359375,0.6397007703781128,-8.30937671661377,-3.24721097946167
1761399517298136300,4.19613623046875,1.0784382820129395,-7.37556266784668,-2.2566847801208496
1761399517308230100,4.206230224609375,0.9709236025810242,-7.346308708190918,-1.9235913753509521
1761399517318310700,4.216310546875,0.9475801587104797,-7.846247673034668,-2.257133722305298
1761399517328391200,4.22639111328125,1.2469301223754883,-8.544307708740234,-2.74540114402771
1761399517338459100,4.236459228515625,1.3732242584228516,-9.090110778808594,-3.1263785362243652
1761399517348552400,4.246552490234375,1.2402713298797607,-9.258228302001953,-3.4993503093719482
1761399517358631200,4.256631103515625,1.1924620866775513,-8.987908363342285,-3.7735612392425537
1761399517368714000,4.2667138671875,1.2116156816482544,-8.383970260620117,-3.835137128829956
1761399517378782000,4.276781982421875,1.1793687343597412,-7.744269847869873,-3.5826234817504883
1761399517388875300,4.286875244140625,0.9347113370895386,-7.373168468475342,-3.2050130367279053
1761399517398945500,4.296945556640625,0.5850082039833069,-7.247098922729492,-2.9123218059539795
1761399517409036300,4.307036376953125,0.21689970791339874,-7.386860370635986,-2.879476547241211
1761399517419115300,4.317115234375,0.044517189264297485,-7.714641571044922,-3.1815199851989746
1761399517429195300,4.3271953125,0.060229137539863586,-8.047959327697754,-3.6355204582214355
1761399517439279000,4.337279052734375,0.12577040493488312,-8.32441520690918,-4.07470703125
1761399517449346300,4.34734619140625,0.18704700469970703,-8.517746925354004,-4.439598083496094
1761399517459439400,4.357439453125,0.14357727766036987,-8.488417625427246,-4.512696266174316
1761399517469507800,4.3675078125,0.1470937728881836,-8.463876724243164,-4.4024882316589355
1761399517479609000,4.377609130859375,0.21278467774391174,-8.56884765625,-4.129549026489258
1761399517489679400,4.387679443359375,0.31296706199645996,-8.88675308227539,-3.7433342933654785
1761399517499762200,4.39776220703125,0.28079497814178467,-9.113977432250977,-3.365424633026123
1761399517509833000,4.4078330078125,0.14425064623355865,-9.260473251342773,-3.0482676029205322
1761399517519923500,4.41792333984375,-0.09075520932674408,-9.162460327148438,-2.736722230911255
1761399517530004200,4.428004150390625,-0.35149872303009033,-9.020604133605957,-2.5911247730255127
1761399517540085000,4.4380849609375,-0.4693383574485779,-8.737489700317383,-2.4578723907470703
1761399517550152700,4.448152587890625,-0.38815996050834656,-8.675165176391602,-2.4373722076416016
1761399517560244500,4.458244384765625,-0.12599486112594604,-8.832584381103516,-2.5782558917999268
1761399517570326800,4.468326904296875,0.18472762405872345,-9.234062194824219,-2.7870752811431885
1761399517580407600,4.478407470703125,0.060229137539863586,-9.479018211364746,-3.190498113632202
1761399517590488600,4.488488525390625,-0.4140472710132599,-9.436222076416016,-3.6121022701263428
1761399517600576300,4.498576171875,-0.7883657217025757,-9.362525939941406,-4.008267879486084
1761399517610647600,4.5086474609375,-0.9510966539382935,-9.243413925170898,-4.397400379180908
1761399517620713700,4.518713623046875,-1.151236891746521,-8.934637069702148,-4.535216331481934
1761399517630810400,4.528810302734375,-1.3646949529647827,-8.801384925842285,-4.460697174072266
1761399517640891400,4.538891357421875,-1.6568623781204224,-9.093926429748535,-4.260332107543945
1761399517650960600,4.548960693359375,-1.9439421892166138,-9.58556079864502,-4.058994770050049
1761399517661052700,4.559052734375,-1.9809774160385132,-10.010457038879395,-3.8443398475646973
1761399517671133400,4.569133544921875,-1.712153434753418,-10.227655410766602,-3.805359125137329
1761399517681194800,4.57919482421875,-1.2820202112197876,-10.265812873840332,-4.031910419464111
1761399517691297300,4.58929736328125,-0.9213935732841492,-10.152612686157227,-4.399569988250732
1761399517701375000,4.599375,-0.7904606461524963,-10.073080062866211,-5.190479755401611
1761399517711449900,4.609449951171875,-0.895581066608429,-10.11213493347168,-6.047604084014893
1761399517721537000,4.619537109375,-0.8613888621330261,-10.088492393493652,-7.365087985992432
1761399517731592000,4.629592041015625,-0.7702595591545105,-9.762581825256348,-7.80412483215332
1761399517741698300,4.6396982421875,-0.7966706156730652,-9.244686126708984,-8.362946510314941
1761399517751763700,4.649763671875,-0.9230395555496216,-8.940248489379883,-8.630797386169434
1761399517761843700,4.65984375,-0.8492682576179504,-9.060182571411133,-7.996259689331055
1761399517771928600,4.669928466796875,-0.3767126798629761,-9.585261344909668,-6.575375556945801
1761399517782023400,4.6800234375,0.08978256583213806,-10.185906410217285,-5.279738426208496
1761399517792089600,4.690089599609375,-0.06150105595588684,-10.290129661560059,-4.015899181365967
1761399517802181400,4.700181396484375,-0.12943652272224426,-10.482114791870117,-2.966789960861206
1761399517812267500,4.710267578125,-0.021173721179366112,-11.097872734069824,-2.163759708404541
1761399517822343200,4.72034326171875,0.363918662071228,-11.711761474609375,-1.372999906539917
1761399517832423700,4.730423583984375,0.7044938206672668,-11.80139446258545,-0.49155953526496887
1761399517842492000,4.740491943359375,1.027711033821106,-11.878232955932617,0.0802057534456253
1761399517852584700,4.750584716796875,1.1608885526657104,-12.044405937194824,0.5683236122131348
1761399517862653700,4.76065380859375,0.6306477189064026,-12.288390159606934,0.5905448198318481
1761399517872746500,4.77074658203125,-0.09464578330516815,-12.273426055908203,0.3157353401184082
1761399517882810400,4.780810302734375,-0.3817255198955536,-11.881450653076172,-0.5287444591522217
1761399517892907500,4.790907470703125,-0.011971008032560349,-11.522619247436523,-1.6248399019241333
1761399517902975700,4.800975830078125,0.5672013759613037,-11.406949996948242,-2.759467124938965
1761399517913068500,4.811068603515625,1.114800214767456,-11.42056655883789,-4.115857124328613
1761399517923150300,4.821150390625,1.5199439525604248,-11.075502395629883,-5.036876678466797
1761399517933211100,4.831211181640625,1.3874398469924927,-10.081384658813477,-5.3191680908203125
1761399517943309000,4.84130908203125,0.9659855961799622,-9.063250541687012,-5.082665920257568
1761399517953391400,4.851391357421875,0.33660978078842163,-8.293514251708984,-4.721739768981934
1761399517963472000,4.861471923828125,0.04571428894996643,-7.674763202667236,-4.2894368171691895
1761399517973553200,4.87155322265625,0.31610944867134094,-7.672144412994385,-3.9077861309051514
1761399517983632600,4.881632568359375,0.4108300507068634,-7.86270809173584,-3.291503667831421
1761399517993714200,4.891714111328125,0.6073790192604065,-8.094870567321777,-2.7620110511779785
1761399518003793200,4.901793212890625,0.8071452379226685,-8.350301742553711,-2.236034631729126
1761399518013869800,4.911869873046875,0.7560440301895142,-8.337284088134766,-2.2176294326782227
1761399518023956000,4.9219560546875,0.7941267490386963,-8.23463249206543,-2.000131130218506
1761399518034037000,4.932037109375,0.732850193977356,-7.8419084548950195,-2.0865468978881836
1761399518044130600,4.942130615234375,0.8982745409011841,-7.463474750518799,-2.05085825920105
1761399518054193200,4.952193115234375,1.1852046251296997,-7.229666233062744,-1.754351258277893
1761399518064266800,4.962266845703125,1.428590178489685,-7.116839408874512,-1.3104513883590698
1761399518074358000,4.97235791015625,1.470638394355774,-7.054290771484375,-1.1431565284729004
1761399518084440300,4.9824404296875,1.4389152526855469,-6.943933010101318,-1.1338789463043213
1761399518094521000,4.99252099609375,1.5437363386154175,-7.491382122039795,-0.5220108032226562
1761399518104579300,5.002579345703125,1.549871563911438,-7.748534679412842,-0.45684361457824707
1761399518114681600,5.012681640625,1.5229367017745972,-7.618948459625244,-0.7050924301147461
1761399518124763000,5.022762939453125,1.5444844961166382,-7.1945013999938965,-0.9174281358718872
1761399518134841300,5.03284130859375,1.6193782091140747,-7.014337539672852,-0.7119008898735046
1761399518144929500,5.042929443359375,1.5747861862182617,-6.660519599914551,-0.8425345420837402
1761399518155004700,5.053004638671875,1.6278326511383057,-6.384662628173828,-0.8787468671798706
1761399518165073000,5.063072998046875,1.7678935527801514,-6.122347831726074,-1.0017489194869995
1761399518175166000,5.073166015625,1.8602946996688843,-5.980715751647949,-1.404199242591858
1761399518185246700,5.083246826171875,2.0807857513427734,-6.047304630279541,-1.9524714946746826
1761399518195314400,5.093314453125,2.3202059268951416,-6.305728912353516,-2.5357589721679688
1761399518205406500,5.103406494140625,2.5998785495758057,-6.73765754699707,-3.2059857845306396
1761399518215487700,5.11348779296875,3.016394853591919,-7.341520309448242,-3.9922564029693604
1761399518225567500,5.1235673828125,3.5855414867401123,-8.084695816040039,-4.930484294891357
1761399518235636500,5.133636474609375,4.201674461364746,-8.918551445007324,-6.065186500549316
1761399518245729300,5.143729248046875,4.835389614105225,-9.791088104248047,-7.4601826667785645
1761399518255799800,5.1537998046875,5.159280300140381,-10.40572452545166,-8.846426010131836
1761399518265879300,5.16387939453125,4.971185684204102,-10.48982048034668,-9.87922477722168
1761399518275972900,5.173972900390625,4.675726413726807,-10.203413963317871,-10.37332820892334
1761399518286053600,5.1840537109375,3.8739678859710693,-9.819668769836426,-10.574665069580078
1761399518296124200,5.194124267578125,2.5301475524902344,-9.000178337097168,-10.162787437438965
1761399518306214700,5.204214599609375,1.5616928339004517,-7.886051654815674,-8.939126014709473
1761399518316293000,5.214293212890625,2.05549693107605,-7.068282127380371,-7.348702907562256
1761399518326358800,5.22435888671875,3.79952335357666,-6.827065944671631,-6.4420485496521
1761399518336423400,5.23442333984375,5.557989597320557,-8.324789047241211,-5.8716301918029785
1761399518346537000,5.244536865234375,4.013504981994629,-11.981707572937012,-6.254103660583496
1761399518356617700,5.25461767578125,2.7433810234069824,-14.937125205993652,-7.3010430335998535
1761399518366709500,5.26470947265625,3.4346320629119873,-15.037981033325195,-6.4957685470581055
1761399518376778800,5.27477880859375,1.884087085723877,-13.455488204956055,-4.309263706207275
1761399518386858000,5.28485791015625,-1.448117971420288,-10.797176361083984,-2.1489455699920654
1761399518396927200,5.29492724609375,-0.5331587791442871,-8.095993041992188,-0.32007482647895813
1761399518407021600,5.305021484375,2.631078004837036,-6.7865142822265625,1.7628806829452515
1761399518417099800,5.315099853515625,2.37654447555542,-6.8459954261779785,2.247706413269043
1761399518427182300,5.325182373046875,-0.0003740940010175109,-7.32431173324585,0.7723544836044312
1761399518437240000,5.335239990234375,-0.9273790717124939,-7.993865489959717,0.36990416049957275
1761399518447341300,5.34534130859375,-1.1714379787445068,-9.104475975036621,0.41202715039253235
1761399518457430300,5.35543017578125,-1.7245733737945557,-9.948058128356934,-0.15075989067554474
1761399518467505200,5.365505126953125,-2.4880993366241455,-10.586187362670898,-1.2829179763793945
1761399518477585700,5.375585693359375,-2.9980642795562744,-11.465757369995117,-2.501192569732666
1761399518487666000,5.385666015625,-2.9722516536712646,-11.898882865905762,-3.447052001953125
1761399518497734100,5.395734130859375,-2.197054147720337,-10.894740104675293,-3.805359125137329
1761399518507827700,5.40582763671875,-1.222614049911499,-9.477521896362305,-3.818751811981201
1761399518517906200,5.41590625,-0.5452046394348145,-8.980650901794434,-3.7516391277313232
1761399518527989200,5.4259892578125,0.11671733111143112,-8.99621295928955,-3.252298593521118
1761399518538050600,5.436050537109375,0.2626888155937195,-9.044096946716309,-2.8104934692382812
1761399518548135000,5.446135009765625,0.5540332198143005,-9.12968921661377,-2.4762778282165527
1761399518558218500,5.456218505859375,0.9127894043922424,-9.229348182678223,-2.159195899963379
1761399518568311600,5.4663115234375,0.7053168416023254,-9.384073257446289,-1.864858627319336
1761399518578390300,5.476390380859375,0.0071826050989329815,-9.321524620056152,-1.4311341047286987
1761399518588472300,5.486472412109375,-0.6273556351661682,-9.230171203613281,-1.1036521196365356
1761399518598553600,5.4965537109375,-0.9371803402900696,-8.858471870422363,-0.9430910348892212
1761399518608633900,5.5066337890625,-1.116820216178894,-8.255132675170898,-1.0013748407363892
1761399518618714400,5.51671435546875,-1.6589573621749878,-8.37529182434082,-1.9011458158493042
1761399518628783000,5.526783203125,-2.0614824295043945,-8.237475395202637,-2.583942174911499
1761399518638874400,5.536874267578125,-2.313472270965576,-8.26014518737793,-3.545438528060913
1761399518648944000,5.546944091796875,-2.280851125717163,-8.228571891784668,-4.663231372833252
1761399518659035600,5.55703564453125,-1.8965070247650146,-8.049904823303223,-5.613729476928711
1761399518669106200,5.567106201171875,-1.2016648054122925,-7.798663139343262,-6.319345951080322
1761399518679198700,5.57719873046875,-0.6034136414527893,-7.625831604003906,-6.540210723876953
1761399518689280000,5.587280029296875,0.017657237127423286,-7.6291985511779785,-6.482675075531006
1761399518699347700,5.59734765625,0.3621978163719177,-7.864354133605957,-6.057854175567627
1761399518709438200,5.607438232421875,0.45916298031806946,-8.108787536621094,-5.3481974601745605
1761399518719521300,5.617521240234375,0.359354704618454,-8.421829223632812,-4.618489742279053
1761399518729602600,5.6276025390625,0.2314893752336502,-8.791358947753906,-4.1793036460876465
1761399518739648000,5.63764794921875,0.11335048824548721,-9.083227157592773,-4.146158695220947
1761399518749751600,5.64775146484375,0.2655319273471832,-8.91226577758789,-3.86311936378479
1761399518759844000,5.657843994140625,0.0653168186545372,-9.026439666748047,-3.7906198501586914
1761399518769922800,5.6679228515625,0.25902268290519714,-9.10761833190918,-3.92596697807312
1761399518779998500,5.67799853515625,0.08933365345001221,-9.264288902282715,-3.946317672729492
1761399518790085400,5.68808544921875,-0.08918401598930359,-8.949601173400879,-3.7666778564453125
1761399518800166700,5.698166748046875,-0.20350714027881622,-8.654740333557129,-3.7993736267089844
1761399518810247200,5.7082470703125,-0.48968905210494995,-8.799365043640137,-4.407575607299805
1761399518820305200,5.71830517578125,-1.0553940534591675,-8.757466316223145,-4.859705924987793
1761399518830408700,5.72840869140625,-0.9484031200408936,-8.666411399841309,-5.074585437774658
1761399518840488000,5.738488037109375,-0.405892014503479,-8.98124885559082,-4.620285511016846
1761399518850541800,5.748541748046875,-0.4719569981098175,-9.497498512268066,-3.980809211730957
1761399518860648400,5.7586484375,-1.227626919746399,-9.8877534866333,-3.6216790676116943
1761399518870720800,5.768720703125,-1.7883189916610718,-9.994296073913574,-3.708618402481079
1761399518880812000,5.77881201171875,-1.7539771795272827,-9.941847801208496,-3.7131075859069824
1761399518890884900,5.788884765625,-1.2789525985717773,-9.862165451049805,-3.6082115173339844
1761399518900969000,5.798968994140625,-0.8143278360366821,-9.966463088989258,-3.2916531562805176
1761399518911041300,5.809041259765625,-0.6332663297653198,-10.021828651428223,-3.1791257858276367
1761399518921118200,5.8191181640625,-0.5957821011543274,-9.936909675598145,-3.3632547855377197
1761399518931207400,5.82920751953125,-0.4729296565055847,-9.731905937194824,-3.8855648040771484
1761399518941295900,5.8392958984375,-0.5188683867454529,-9.462259292602539,-4.688220977783203
1761399518951365000,5.849365234375,-0.9294739961624146,-9.313295364379883,-5.70740270614624
1761399518961442300,5.8594423828125,-0.9971101880073547,-8.832808494567871,-6.284704685211182
1761399518971537400,5.869537353515625,-0.16467618942260742,-9.108964920043945,-7.813178062438965
1761399518981608400,5.8796083984375,0.3819499909877777,-8.951171875,-7.924807548522949
1761399518991698700,5.88969873046875,-0.04324526712298393,-8.937479972839355,-7.940145492553711
1761399519001776600,5.899776611328125,-0.3824737071990967,-9.28882884979248,-7.596876621246338
1761399519011860500,5.909860595703125,-0.14073416590690613,-9.71237850189209,-6.422071933746338
1761399519021928200,5.91992822265625,0.5692214369773865,-10.33674144744873,-4.874444961547852
1761399519032020000,5.93002001953125,1.5836148262023926,-11.071087837219238,-3.449894905090332
1761399519042099500,5.940099365234375,1.8177227973937988,-11.477877616882324,-2.1983261108398438
1761399519052191700,5.950191650390625,1.0677391290664673,-11.781268119812012,-1.2437877655029297
1761399519062251300,5.960251220703125,0.4092588424682617,-12.372411727905273,-0.43866264820098877
1761399519072331300,5.970331298828125,0.08641571551561356,-12.98652458190918,0.4437503218650818
1761399519082417000,5.9804169921875,0.2438344806432724,-13.723040580749512,0.5895721912384033
1761399519092517000,5.99051708984375,0.4114286005496979,-14.152649879455566,-0.14335282146930695
1761399519102586000,6.000586181640625,0.22026655077934265,-13.2024507522583,-1.1954548358917236
1761399519112654600,6.010654541015625,0.617030680179596,-11.6174898147583,-2.550124168395996
1761399519122747100,6.0207470703125,1.5829414129257202,-10.734028816223145,-4.035202503204346
1761399519132828400,6.030828369140625,1.9305496215820312,-10.469769477844238,-5.252803802490234
1761399519142909000,6.040908935546875,1.8346319198608398,-10.126425743103027,-5.960065841674805
1761399519152978200,6.050978271484375,1.5488988161087036,-9.57897663116455,-6.645854949951172
1761399519163068400,6.061068359375,1.4652514457702637,-9.233089447021484,-6.101922512054443
1761399519173138400,6.071138427734375,1.6648679971694946,-8.834304809570312,-5.097854137420654
1761399519183218400,6.081218505859375,1.3749451637268066,-8.379556655883789,-4.5480852127075195
1761399519193312300,6.091312255859375,1.3095535039901733,-8.011672019958496,-3.8133647441864014
1761399519203375400,6.101375244140625,1.268328309059143,-7.7061872482299805,-3.1343092918395996
1761399519213473800,6.111473876953125,0.9350106120109558,-7.340098857879639,-2.404601573944092
1761399519223529700,6.12152978515625,0.4711340069770813,-7.008726119995117,-1.9278560876846313
1761399519233633800,6.1316337890625,0.18659809231758118,-6.693140506744385,-1.6665887832641602
1761399519243715600,6.141715576171875,0.13998597860336304,-6.570063591003418,-1.5260791778564453
1761399519253802800,6.151802734375,0.40948331356048584,-6.692990779876709,-1.5310919284820557
1761399519263864600,6.161864501953125,0.6820482015609741,-6.931363582611084,-1.592667818069458
1761399519273957000,6.17195703125,1.1646294593811035,-6.970194339752197,-1.6255881786346436
1761399519284042200,6.182042236328125,2.011728048324585,-6.882956027984619,-1.399261236190796
1761399519294111000,6.192111083984375,2.409838914871216,-6.8914103507995605,-0.8845078945159912
1761399519304199000,6.202198974609375,2.1499931812286377,-6.583381175994873,-0.8259247541427612
1761399519314280000,6.212280029296875,2.1600189208984375,-6.323236465454102,-0.7422773241996765
1761399519324360200,6.222360107421875,1.759663462638855,-5.780201435089111,-0.5982511639595032
1761399519334441500,6.23244140625,1.1860276460647583,-5.1606268882751465,-0.7305307984352112
1761399519344522200,6.242522216796875,0.8952817916870117,-4.794164657592773,-0.707336962223053
1761399519354592300,6.25259228515625,0.916081428527832,-4.616768836975098,-0.7837269902229309
1761399519364683300,6.262683349609375,0.9755623936653137,-4.515838623046875,-0.9843161702156067
1761399519374763500,6.272763427734375,1.2203694581985474,-4.541351795196533,-1.6380079984664917
1761399519384851700,6.282851806640625,1.576432228088379,-4.679691791534424,-2.4093151092529297
1761399519394925300,6.29292529296875,2.004171371459961,-5.051541328430176,-3.207033157348633
1761399519405005600,6.303005615234375,2.5538649559020996,-5.722965240478516,-4.219705581665039
1761399519415084300,6.313084228515625,3.19596004486084,-6.793323040008545,-5.494917392730713
1761399519425179400,6.323179443359375,4.149226188659668,-8.111780166625977,-6.954557418823242
1761399519435242000,6.333241943359375,5.281758785247803,-9.575834274291992,-8.399457931518555
1761399519445317000,6.343317138671875,6.015730857849121,-11.218181610107422,-9.943793296813965
1761399519455409400,6.353409423828125,5.732766151428223,-12.683058738708496,-11.808128356933594
1761399519465480000,6.36347998046875,5.225195407867432,-13.080720901489258,-12.975825309753418
1761399519475568600,6.373568603515625,5.037999153137207,-11.828478813171387,-12.323854446411133
1761399519485636000,6.383635986328125,4.606518745422363,-10.092009544372559,-10.641552925109863
1761399519495731500,6.3937314453125,3.95986008644104,-9.076044082641602,-8.942642211914062
1761399519505812700,6.403812744140625,3.591676712036133,-8.057685852050781,-7.61296272277832
1761399519515892700,6.413892822265625,3.4100165367126465,-6.727332592010498,-6.583905220031738
1761399519525974000,6.42397412109375,3.963301658630371,-5.6318359375,-5.946523666381836
1761399519536047000,6.434047119140625,4.464662551879883,-6.2014312744140625,-5.631311893463135
1761399519546123300,6.444123291015625,3.9327754974365234,-9.76400375366211,-6.587122440338135
1761399519556187000,6.454186767578125,4.40892219543457,-13.775039672851562,-6.850334644317627
1761399519566296300,6.46429638671875,4.641833305358887,-16.023269653320312,-5.110947132110596
1761399519576377300,6.47437744140625,3.950657367706299,-15.856124877929688,-3.2474353313446045
1761399519586457900,6.484457763671875,1.5817443132400513,-13.772794723510742,-1.9484312534332275
1761399519596536600,6.49453662109375,-2.136301279067993,-9.783905029296875,-0.768538773059845
1761399519606617300,6.504617431640625,-1.8140567541122437,-6.2308349609375,0.2644096612930298
1761399519616682800,6.514682861328125,-0.23784898221492767,-4.73071813583374,0.44696754217147827
1761399519626780700,6.52478076171875,-0.8708160519599915,-4.104709148406982,-0.25258827209472656
1761399519636848600,6.5348486328125,-1.5430630445480347,-4.839354991912842,-0.4833294749259949
1761399519646942000,6.54494189453125,-1.338283896446228,-7.085939407348633,-0.07212532311677933
1761399519657011200,6.55501123046875,-1.2408698797225952,-9.039608001708984,-0.16048632562160492
1761399519667101000,6.565100830078125,-1.525106430053711,-11.008988380432129,-1.1391162872314453
1761399519677184000,6.57518408203125,-2.4717140197753906,-12.550405502319336,-2.553640604019165
1761399519687251700,6.585251708984375,-2.931924343109131,-13.539435386657715,-3.990760087966919
1761399519697345300,6.59534521484375,-2.193612575531006,-12.947094917297363,-4.539032459259033
1761399519707425500,6.605425537109375,-0.8815151453018188,-10.229451179504395,-4.098124980926514
1761399519717496600,6.61549658203125,-0.501285970211029,-8.568997383117676,-3.7717654705047607
1761399519727574800,6.62557470703125,-0.38239890336990356,-8.109235763549805,-3.208080530166626
1761399519737668000,6.635668212890625,0.03007715940475464,-8.091130256652832,-2.45749831199646
1761399519747735600,6.645735595703125,0.4093336760997772,-8.304662704467773,-2.0427029132843018
1761399519757803500,6.655803466796875,0.4324526786804199,-8.759186744689941,-2.3174376487731934
1761399519767884000,6.665884033203125,0.1472434103488922,-9.06295108795166,-2.516904592514038
1761399519777965800,6.6759658203125,-0.16467618942260742,-9.114950180053711,-2.5156326293945312
1761399519788043000,6.68604296875,-0.44996029138565063,-8.998382568359375,-2.501192569732666
1761399519798120400,6.696120361328125,-0.6983587145805359,-8.746393203735352,-2.4188170433044434
1761399519808195600,6.706195556640625,-0.7289596199989319,-8.439261436462402,-2.3498342037200928
1761399519818286600,6.71628662109375,-0.815599799156189,-8.2127103805542,-2.311901092529297
1761399519828377000,6.726377197265625,-0.9703998565673828,-8.312967300415039,-2.612971782684326
1761399519838447600,6.736447509765625,-1.145176649093628,-8.337657928466797,-2.9408278465270996
1761399519848554500,6.746554443359375,-1.2500725984573364,-8.397363662719727,-3.4398694038391113
1761399519858633700,6.7566337890625,-1.2423661947250366,-8.366312980651855,-3.965695858001709
1761399519868705300,6.766705322265625,-1.1058967113494873,-8.228422164916992,-4.50835657119751
1761399519878784000,6.776783935546875,-0.7101801037788391,-8.139837265014648,-4.971035957336426
1761399519888878000,6.786878173828125,-0.14118307828903198,-8.155473709106445,-5.37438440322876
1761399519898957800,6.796957763671875,0.3768623173236847,-8.32336711883545,-5.519308090209961
1761399519909038800,6.807038818359375,0.5475988388061523,-8.569296836853027,-5.4462103843688965
1761399519919117300,6.817117431640625,0.6171054840087891,-8.714221000671387,-5.226916313171387
1761399519929201200,6.827201171875,0.6720224618911743,-8.712499618530273,-4.9240498542785645
1761399519939281200,6.83728125,0.5371242165565491,-8.522909164428711,-4.796184539794922
1761399519949360600,6.847360595703125,0.1811363250017166,-8.266205787658691,-4.678569316864014
1761399519959442400,6.8574423828125,-0.16340427100658417,-8.174627304077148,-4.4886794090271
1761399519969522700,6.867522705078125,-0.21203649044036865,-8.366762161254883,-4.204741954803467
1761399519979603700,6.877603759765625,-0.07571662962436676,-8.684144020080566,-3.773261785507202
1761399519989671400,6.88767138671875,0.2736871838569641,-9.177573204040527,-3.2899324893951416
1761399519999764700,6.8977646484375,0.22011691331863403,-9.711854934692383,-3.345597505569458
1761399520009845200,6.90784521484375,-0.12367548048496246,-9.602319717407227,-3.5464861392974854
1761399520019929000,6.91792919921875,-0.24196401238441467,-9.14457893371582,-4.193294525146484
1761399520030007300,6.92800732421875,-0.3737947344779968,-8.86251163482666,-4.780771732330322
1761399520040079000,6.9380791015625,-0.7603834867477417,-8.7669677734375,-5.530980110168457
1761399520050155800,6.94815576171875,-1.0723779201507568,-8.513108253479004,-5.6512885093688965
1761399520060226000,6.95822607421875,-1.0550199747085571,-8.561590194702148,-5.251606464385986
1761399520070329600,6.96832958984375,-1.2012907266616821,-9.113603591918945,-4.729670524597168
1761399520080410000,6.97841015625,-1.447818636894226,-9.576432228088379,-4.457405090332031
1761399520090492000,6.988491943359375,-1.415871024131775,-9.699584007263184,-4.481795787811279
1761399520100562700,6.998562744140625,-1.1084405183792114,-9.620949745178223,-4.716278076171875
1761399520110650000,7.008650146484375,-0.9181015491485596,-9.48769760131836,-4.98046350479126
1761399520120728600,7.018728515625,-0.8904185891151428,-9.514632225036621,-5.350217819213867
1761399520130813700,7.028813720703125,-1.0041431188583374,-9.720009803771973,-5.621286392211914
1761399520140900900,7.03890087890625,-0.8236053586006165,-10.070535659790039,-6.085761547088623
1761399520150974200,7.04897412109375,-0.477792888879776,-10.587010383605957,-6.594903469085693
1761399520161055200,7.05905517578125,-0.42519524693489075,-11.058218955993652,-6.709151744842529
1761399520171135700,7.0691357421875,-0.44008418917655945,-11.303250312805176,-6.288670063018799
1761399520181203200,7.079203125,0.5583727359771729,-11.374777793884277,-5.450250625610352
1761399520191297800,7.0892978515625,0.9998036623001099,-11.323526382446289,-4.580556869506836
1761399520201378000,7.0993779296875,0.8612392544746399,-10.667814254760742,-3.4970309734344482
1761399520211458800,7.109458740234375,0.3770867586135864,-10.362403869628906,-2.771064043045044
1761399520221539800,7.119539794921875,0.6533926129341125,-10.770915031433105,-1.9818004369735718
1761399520231607600,7.129607666015625,1.2869582176208496,-11.452289581298828,-1.0948235988616943
1761399520241701000,7.139701171875,1.482010841369629,-12.049344062805176,-0.08028057217597961
1761399520251768300,7.149768310546875,0.9246855974197388,-12.604350090026855,0.9056816101074219
1761399520261861600,7.159861572265625,0.2422632873058319,-12.846163749694824,1.589151382446289
1761399520271929900,7.169929931640625,0.15442600846290588,-12.669516563415527,1.6139163970947266
1761399520282025500,7.180025390625,0.6348375678062439,-11.928811073303223,0.9616460800170898
1761399520292104200,7.190104248046875,0.9789292216300964,-11.063980102539062,-0.13766659796237946
1761399520302175700,7.20017578125,1.1484686136245728,-10.718017578125,-1.3649942874908447
1761399520312258000,7.210258056640625,1.4764742851257324,-10.941651344299316,-2.836306095123291
1761399520322332400,7.22033251953125,1.420809030532837,-11.07827091217041,-3.8856396675109863
1761399520332415500,7.23041552734375,1.0819547176361084,-10.781614303588867,-4.484489440917969
1761399520342507500,7.240507568359375,0.9661352038383484,-9.75517463684082,-4.857236862182617
1761399520352575200,7.2505751953125,1.4310592412948608,-8.733000755310059,-4.95233154296875
1761399520362656500,7.260656494140625,1.8234838247299194,-8.298677444458008,-4.948366165161133
1761399520372747000,7.2707470703125,1.9159599542617798,-8.123826026916504,-4.239083766937256
1761399520382830000,7.280830078125,1.5858592987060547,-7.996633529663086,-3.026270866394043
1761399520392910600,7.29091064453125,1.0591349601745605,-7.812803745269775,-2.1571757793426514
1761399520402980400,7.30098046875,0.6949918866157532,-7.642516136169434,-1.6120458841323853
1761399520413072100,7.311072021484375,0.5353285074234009,-7.469086170196533,-1.2981061935424805
1761399520423152400,7.32115234375,0.516623854637146,-7.359177589416504,-1.3152397871017456
1761399520433214700,7.331214599609375,0.6978349685668945,-7.294758319854736,-1.4899415969848633
1761399520443312600,7.341312744140625,0.9998036623001099,-7.249343395233154,-1.6085294485092163
1761399520453384000,7.351384033203125,1.356614589691162,-7.0492777824401855,-1.5937153100967407
1761399520463475200,7.36147509765625,1.7799392938613892,-6.685583591461182,-1.411157488822937
1761399520473543200,7.371543212890625,2.0296096801757812,-6.201805591583252,-1.0489596128463745
1761399520483636700,7.38163671875,2.1168484687805176,-5.837363243103027,-0.902090311050415
1761399520493720800,7.391720947265625,2.185457229614258,-5.515567302703857,-0.7030723094940186
1761399520503796500,7.40179638671875,2.074052095413208,-5.265747547149658,-0.8705915808677673
1761399520513878500,7.41187841796875,1.799242615699768,-5.062838554382324,-1.0748469829559326
1761399520523958800,7.421958740234375,1.6921768188476562,-4.835689067840576,-1.090633749961853
1761399520534017800,7.432017822265625,1.536778211593628,-4.7310919761657715,-1.0423007011413574
1761399520544120300,7.442120361328125,1.6618752479553223,-4.8185553550720215,-0.9486275911331177
1761399520554201000,7.452201171875,1.889249563217163,-4.856413841247559,-1.0528502464294434
1761399520564267000,7.46226708984375,2.0860979557037354,-4.964900970458984,-1.4321067333221436
1761399520574349600,7.472349609375,2.294917106628418,-5.411943435668945,-2.1477484703063965
1761399520584430600,7.4824306640625,2.7036523818969727,-6.226794719696045,-3.162515878677368
1761399520594523600,7.492523681640625,3.482665538787842,-7.413421154022217,-4.510077476501465
1761399520604592000,7.502592041015625,4.577040195465088,-8.791808128356934,-6.149133205413818
1761399520614684700,7.5126845703125,5.39286470413208,-10.507328033447266,-7.952789783477783
1761399520624765700,7.522765625,5.508085250854492,-12.524218559265137,-10.044050216674805
1761399520634822700,7.53282275390625,5.411569118499756,-14.186318397521973,-11.906365394592285
1761399520644927200,7.54292724609375,5.873874664306641,-13.489680290222168,-12.316447257995605
1761399520655007700,7.5530078125,5.9391913414001465,-10.928258895874023,-11.355698585510254
1761399520665094700,7.5630947265625,6.26240873336792,-9.047389030456543,-9.515081405639648
1761399520675168800,7.573168701171875,6.7993083000183105,-7.868992805480957,-7.46497106552124
1761399520685249800,7.583249755859375,6.686182498931885,-6.907196998596191,-5.564947605133057
1761399520695316700,7.593316650390625,5.566593647003174,-6.0417680740356445,-4.498106479644775
1761399520705411300,7.603411376953125,4.483816146850586,-5.612757205963135,-4.018517971038818
1761399520715489800,7.61348974609375,3.3599627017974854,-7.107487201690674,-3.9285857677459717
1761399520725557500,7.6235576171875,3.0474445819854736,-10.550947189331055,-4.430694580078125
1761399520735640300,7.633640380859375,4.013504981994629,-13.483171463012695,-3.8632688522338867
1761399520745733000,7.643733154296875,4.326771259307861,-15.287501335144043,-2.4203133583068848
1761399520755812600,7.6538125,1.340977430343628,-15.464447975158691,-1.701978087425232
1761399520765899000,7.66389892578125,-2.674921751022339,-12.60539722442627,-1.486051082611084
1761399520775975700,7.6739755859375,-2.42240834236145,-8.93620777130127,-1.4072668552398682
1761399520786069800,7.68406982421875,-0.5342062711715698,-7.626280784606934,-1.2205939292907715
1761399520796137200,7.69413720703125,-0.2651578485965729,-7.676109790802002,-1.7099837064743042
1761399520806204700,7.70420458984375,-1.5145570039749146,-7.799635887145996,-2.347888946533203
1761399520816285400,7.714285400390625,-1.687986969947815,-8.250269889831543,-1.952770709991455
1761399520826376700,7.724376708984375,-1.5383493900299072,-8.314239501953125,-1.029431939125061
1761399520836447000,7.734447021484375,-1.1933598518371582,-8.272340774536133,-0.535702645778656
1761399520846540300,7.744540283203125,-1.1670985221862793,-8.927903175354004,-1.0832266807556152
1761399520856613000,7.754613037109375,-1.7804630994796753,-10.126351356506348,-2.38926362991333
1761399520866701300,7.764701416015625,-2.006415843963623,-11.113360404968262,-3.588608980178833
1761399520876780300,7.7747802734375,-1.8245313167572021,-10.912696838378906,-4.527734756469727
1761399520886863600,7.784863525390625,-1.7309329509735107,-10.047192573547363,-5.163619518280029
1761399520896931600,7.794931640625,-1.3616273403167725,-9.270947456359863,-5.139453411102295
1761399520907024600,7.805024658203125,-0.797792911529541,-8.764723777770996,-4.6783447265625
1761399520917105400,7.81510546875,-0.3536684811115265,-8.439486503601074,-3.9011270999908447
1761399520927185400,7.825185302734375,0.2172738015651703,-8.55148983001709,-2.8895769119262695
1761399520937266700,7.8352666015625,0.5654056668281555,-8.975787162780762,-2.2269067764282227
1761399520947326500,7.845326416015625,0.35022681951522827,-9.383625030517578,-1.8390462398529053
1761399520957415000,7.855414794921875,-0.15502455830574036,-9.632396697998047,-1.673995852470398
1761399520967508000,7.865508056640625,-0.7687631845474243,-9.390657424926758,-1.735721468925476
1761399520977588700,7.875588623046875,-1.2400468587875366,-8.88869857788086,-2.1378724575042725
1761399520987662300,7.885662353515625,-1.612195611000061,-8.511985778808594,-2.718466281890869
1761399520997749800,7.895749755859375,-1.8111387491226196,-8.310124397277832,-3.311779499053955
1761399521007828700,7.905828857421875,-1.6855180263519287,-8.3074312210083,-4.023755073547363
1761399521017898800,7.915898681640625,-1.3867665529251099,-8.452055931091309,-4.691213607788086
1761399521027991800,7.92599169921875,-0.838569164276123,-8.609923362731934,-4.908412933349609
1761399521038060000,7.93606005859375,-0.2388216257095337,-8.666037559509277,-4.78354024887085
1761399521048157400,7.946157470703125,0.0330699123442173,-8.570194244384766,-4.497582912445068
1761399521058234000,7.956234130859375,0.08357260376214981,-8.482806205749512,-4.211625099182129
1761399521068302600,7.966302490234375,-0.04563947021961212,-8.407089233398438,-4.1157073974609375
1761399521078370300,7.976370361328125,-0.23657704889774323,-8.310498237609863,-4.194192409515381
1761399521088476200,7.98647607421875,-0.41053077578544617,-8.321721076965332,-4.45942497253418
1761399521098552300,7.99655224609375,-0.5015104413032532,-8.352023124694824,-4.784213542938232
1761399521108637400,8.006637451171875,-0.5895721912384033,-8.418387413024902,-5.023409366607666
1761399521118718000,8.016718017578125,-0.572588324546814,-8.494402885437012,-4.898985385894775
1761399521128789000,8.0267890625,-0.4174889326095581,-8.578125,-4.539705753326416
1761399521138877700,8.036877685546875,-0.3728969097137451,-8.565256118774414,-3.954547882080078
1761399521148960500,8.04696044921875,-0.25236383080482483,-8.382699012756348,-3.558906078338623
1761399521159040500,8.05704052734375,-0.3977367579936981,-8.834380149841309,-3.9194579124450684
1761399521169108500,8.0671083984375,-0.27151742577552795,-8.884882926940918,-4.0843586921691895
1761399521179202300,8.077202392578124,-0.19707272946834564,-8.916306495666504,-4.36500358581543
1761399521189282800,8.08728271484375,-0.039130233228206635,-8.928352355957031,-4.6722846031188965
1761399521199338200,8.097338134765625,0.06322188675403595,-8.596904754638672,-4.606443881988525
1761399521209431000,8.10743115234375,0.1637035459280014,-8.544905662536621,-4.674978256225586
1761399521229593000,8.127593017578125,-0.6218938827514648,-8.860491752624512,-5.035080909729004
1761399521239673000,8.137673095703125,-1.1379191875457764,-9.060482025146484,-5.443965911865234
1761399521249767000,8.147766845703124,-2.009408712387085,-8.9249849319458,-5.67156457901001
1761399521259837000,8.1578369140625,-1.6300772428512573,-8.46746826171875,-5.479504585266113
1761399521269926000,8.16792578125,-1.0124480724334717,-8.912117004394531,-5.136535167694092
1761399521280008400,8.178008544921875,-1.2259061336517334,-9.552565574645996,-4.853346347808838
1761399521290090000,8.188090087890625,-1.2061538696289062,-9.815703392028809,-4.546439170837402
1761399521300170000,8.198169921875,-0.9883564114570618,-9.767744064331055,-4.36343240737915
1761399521310231800,8.208231689453125,-0.956782877445221,-9.573589324951172,-4.520701885223389
1761399521320331500,8.21833154296875,-1.0957213640213013,-9.47422981262207,-4.681262969970703
1761399521330409700,8.22840966796875,-0.7096563577651978,-9.53273868560791,-4.661959648132324
1761399521340481500,8.2384814453125,-0.08544307202100754,-9.784354209899902,-4.799551486968994
1761399521350571300,8.2485712890625,-0.3911527097225189,-10.038214683532715,-5.301136493682861
1761399521360652000,8.258652099609375,-0.7530512809753418,-10.478971481323242,-5.7818474769592285
1761399521370738400,8.268738525390624,0.21098902821540833,-11.255815505981445,-5.760898113250732
1761399521380815400,8.2788154296875,0.7149685025215149,-11.923797607421875,-4.897414207458496
1761399521390896000,8.288896240234376,0.9469816088676453,-11.840374946594238,-3.4012627601623535
1761399521400972500,8.29897265625,1.124451756477356,-11.500099182128906,-2.1187937259674072
1761399521411044400,8.30904443359375,1.1341782808303833,-11.372308731079102,-1.072826862335205
1761399521421138200,8.31913818359375,1.2412439584732056,-11.365275382995605,-0.09217676520347595
1761399521431213000,8.329213134765626,1.3361141681671143,-11.677569389343262,0.8035539388656616
1761399521441286700,8.33928662109375,1.1452513933181763,-12.30477523803711,1.6034417152404785
1761399521451367200,8.3493671875,0.9944915175437927,-13.13773250579834,1.7345243692398071
1761399521461456400,8.359456298828125,1.1815385818481445,-13.327098846435547,1.1152490377426147
1761399521471541000,8.369541015625,1.6205004453659058,-12.61579704284668,0.028505964204669
1761399521481612000,8.379612060546876,1.5179238319396973,-11.532645225524902,-1.0895862579345703
1761399521491702500,8.38970263671875,1.0901848077774048,-10.763283729553223,-1.6492308378219604
1761399521501783000,8.399782958984375,1.1931354999542236,-10.549975395202637,-2.3714568614959717
1761399521511852300,8.409852294921874,1.581594705581665,-10.883143424987793,-3.7551558017730713
1761399521521942800,8.41994287109375,1.8504186868667603,-10.99776554107666,-4.639888286590576
1761399521532025900,8.43002587890625,1.6893337965011597,-10.480169296264648,-4.844442844390869
1761399521542105900,8.44010595703125,1.659181833267212,-9.778593063354492,-4.631882667541504
1761399521552173800,8.450173828125,1.7934067249298096,-9.021651268005371,-4.3476457595825195
1761399521562267400,8.460267333984374,1.8542344570159912,-8.396988868713379,-3.931279182434082
1761399521572348000,8.470347900390625,1.7706618309020996,-7.906551837921143,-3.2386066913604736
1761399521582403600,8.480403564453125,1.382950782775879,-7.5021562576293945,-2.461014986038208
1761399521592508200,8.490508056640625,0.8928127884864807,-7.219191551208496,-1.8407670259475708
1761399521602590000,8.50058984375,0.6847416758537292,-6.991368293762207,-1.43996262550354
1761399521612670700,8.510670654296876,0.7648726105690002,-6.991816997528076,-1.235183596611023
1761399521622740000,8.520739990234375,1.0084826946258545,-7.025111675262451,-1.0323498249053955
1761399521632832000,8.53083203125,0.9096469879150391,-7.075913429260254,-1.2632406949996948
1761399521642900000,8.54089990234375,1.4348750114440918,-7.215226173400879,-1.4003835916519165
1761399521652981200,8.550981201171876,2.050035238265991,-7.170035362243652,-1.1931354999542236
1761399521663074000,8.561073974609375,2.405574083328247,-6.9689226150512695,-1.1023802757263184
1761399521673142000,8.57114208984375,2.480841875076294,-6.478784561157227,-1.1725603342056274
1761399521683223600,8.5812236328125,2.3219268321990967,-5.885322093963623,-1.305662989616394
1761399521693315800,8.59131591796875,2.0814590454101562,-5.433491230010986,-1.4918869733810425
1761399521703384600,8.601384521484375,1.9242647886276245,-5.192275524139404,-1.6635960340499878
1761399521713474300,8.611474365234375,1.92635977268219,-5.058125019073486,-1.8241572380065918
1761399521723545900,8.6215458984375,1.818171739578247,-5.152546405792236,-1.9610756635665894
1761399521733635600,8.631635498046874,1.9441665410995483,-5.266046524047852,-1.82692551612854
1761399521743708000,8.6417080078125,2.0027496814727783,-5.39293909072876,-1.795127511024475
1761399521753800000,8.651800048828125,2.2351369857788086,-5.595025062561035,-1.8798972368240356
1761399521763881000,8.661880859375,2.4961049556732178,-5.970390796661377,-2.2316205501556396
1761399521773959700,8.671959716796875,2.8017396926879883,-6.550835132598877,-2.929530143737793
1761399521784040200,8.682040283203126,3.3646016120910645,-7.2468743324279785,-3.7987003326416016
1761399521794122500,8.69212255859375,4.217386245727539,-7.888969421386719,-4.890755653381348
1761399521804203000,8.702203125,5.468506336212158,-8.53069019317627,-6.21115779876709
1761399521814284300,8.7122841796875,6.104615688323975,-9.380183219909668,-7.372570037841797
1761399521824364500,8.722364501953125,5.900809288024902,-10.34138011932373,-8.647557258605957
1761399521834432800,8.732432861328125,5.915399074554443,-10.905064582824707,-9.524807929992676
1761399521844524000,8.74252392578125,6.083816051483154,-10.623372077941895,-9.456498146057129
1761399521854593300,8.75259326171875,6.206593990325928,-9.884686470031738,-8.570419311523438
1761399521864681700,8.762681640625,6.2637553215026855,-9.159242630004883,-7.659724712371826
1761399521874768400,8.772768310546875,6.268319129943848,-8.855703353881836,-6.638522624969482
1761399521884837600,8.782837646484374,6.094964027404785,-8.728137016296387,-5.438803195953369
1761399521894927400,8.79292724609375,5.65959358215332,-8.175450325012207,-4.36343240737915
1761399521905009700,8.803009765625,4.958990097045898,-6.959495544433594,-3.4800469875335693
1761399521915088600,8.813088623046875,4.582951068878174,-6.734440326690674,-2.88995099067688
1761399521925171500,8.82317138671875,4.293925762176514,-9.07911205291748,-3.342754602432251
1761399521935217200,8.833217041015626,4.093935489654541,-12.424560546875,-3.7089924812316895
1761399521945332700,8.843332763671874,4.096254825592041,-16.24420928955078,-3.4765305519104004
1761399521955413000,8.8534130859375,3.420192003250122,-19.24466896057129,-3.1450083255767822
1761399521965471700,8.8634716796875,2.262969493865967,-18.87656021118164,-2.799644708633423
1761399521975570400,8.8735703125,1.371279001235962,-14.912434577941895,-2.416647434234619
1761399521985639700,8.8836396484375,0.5631611347198486,-9.107318878173828,-1.5554081201553345
1761399521995736000,8.893736083984376,-0.2371755987405777,-6.205770969390869,-0.44936174154281616
1761399522005806300,8.903806396484375,-1.1231050491333008,-5.699023246765137,0.23261165618896484
1761399522015896800,8.913896728515626,-2.103231430053711,-5.285799026489258,-0.019228432327508926
1761399522025965000,8.923965087890625,-3.1063270568847656,-4.485162734985352,-0.41217678785324097
1761399522036052000,8.934052001953125,-3.8938698768615723,-3.6261680126190186,-0.40551790595054626
1761399522046137000,8.94413720703125,-4.611232280731201,-3.881749153137207,-0.52552729845047
1761399522056220400,8.954220458984375,-4.577713489532471,-6.069825172424316,-1.3138929605484009
1761399522066301000,8.964301025390625,-3.8121676445007324,-9.75861644744873,-2.312350034713745
1761399522076381000,8.974380859375,-2.8498482704162598,-12.40188980102539,-3.08111310005188
1761399522086449400,8.984449462890625,-1.8046295642852783,-12.844966888427734,-3.3090860843658447
1761399522096540400,8.99454052734375,-0.8770260214805603,-12.265869140625,-3.856235980987549
1761399522106609000,9.00460888671875,-0.03576338663697243,-10.823138236999512,-5.021688461303711
1761399522126784300,9.0247841796875,1.0679636001586914,-7.8617353439331055,-6.816591739654541
1761399522136852000,9.03485205078125,0.5613654851913452,-7.447314262390137,-7.206921100616455
1761399522146945500,9.044945556640625,-0.02431611157953739,-7.704241752624512,-6.921263217926025
1761399522157024800,9.055024658203125,0.03456628695130348,-8.370353698730469,-6.151003360748291
1761399522167107800,9.06510791015625,0.31521162390708923,-9.08105754852295,-5.145064830780029
1761399522177183000,9.075182861328125,0.6186018586158752,-9.416918754577637,-4.084957122802734
1761399522187268400,9.085268310546875,0.8826374411582947,-9.549872398376465,-3.3564462661743164
1761399522197349000,9.09534912109375,1.020678162574768,-9.39013385772705,-2.8162546157836914
1761399522207417000,9.1054169921875,0.8837596774101257,-9.096919059753418,-2.561795711517334
1761399522217510100,9.11551025390625,0.4769698679447174,-8.789712905883789,-2.751835584640503
1761399522227576300,9.125576416015624,-0.04085106775164604,-8.587178230285645,-3.2846202850341797
1761399522237672200,9.135672119140626,-0.4704606235027313,-8.498443603515625,-3.9404070377349854
1761399522247752200,9.145752197265624,-0.614486813545227,-8.328155517578125,-4.476558685302734
1761399522257833000,9.1558330078125,-0.6366332173347473,-8.13100814819336,-4.7620673179626465
1761399522267902700,9.16590283203125,-0.5803694725036621,-7.923909664154053,-4.809128284454346
1761399522277981700,9.175981689453126,-0.5170727372169495,-7.845275402069092,-4.651933670043945
1761399522288055000,9.186054931640625,-0.45759180188179016,-7.926753044128418,-4.405256271362305
1761399522298155800,9.19615576171875,-0.3001730442047119,-8.136395454406738,-4.134487152099609
1761399522308247300,9.206247314453124,-0.14859014749526978,-8.288801193237305,-3.9136219024658203
1761399522318316800,9.21631689453125,0.042272623628377914,-8.359055519104004,-3.793088912963867
1761399522328398000,9.226398193359374,0.18368016183376312,-8.303765296936035,-3.8046109676361084
1761399522338446600,9.236446533203125,0.19550153613090515,-8.259247779846191,-3.861847400665283
1761399522348559400,9.246559326171875,0.09973346441984177,-8.303390502929688,-3.8418707847595215
1761399522358637800,9.256637939453125,-0.030226796865463257,-8.378658294677734,-3.7718403339385986
1761399522368721000,9.266720947265625,-0.16325463354587555,-8.460959434509277,-3.6886417865753174
1761399522378797600,9.276797607421875,-0.21196167171001434,-8.554781913757324,-3.6377649307250977
1761399522388881700,9.286881591796876,-0.13085809350013733,-8.692672729492188,-3.6540756225585938
1761399522398963000,9.296962890625,-0.06950666755437851,-8.756643295288086,-3.7691469192504883
1761399522409030400,9.307030517578125,-0.07870937883853912,-8.813131332397461,-4.122216701507568
1761399522419122200,9.3171220703125,-0.1941547989845276,-8.923788070678711,-4.565817356109619
1761399522429200400,9.327200439453126,-0.43177932500839233,-8.912640571594238,-4.7189717292785645
1761399522439281200,9.33728125,-0.6308721303939819,-8.75312614440918,-4.585120677947998
1761399522449365500,9.347365478515625,-0.45923781394958496,-8.690129280090332,-4.419621467590332
1761399522459446300,9.3574462890625,-0.1992424726486206,-8.880542755126953,-4.319888114929199
1761399522469508000,9.367508056640625,-0.08484452217817307,-9.214533805847168,-4.182744979858398
1761399522479606000,9.37760595703125,-0.01975216343998909,-9.477521896362305,-3.896937370300293
1761399522489688300,9.387688232421874,-0.02371755987405777,-9.73893928527832,-3.7166240215301514
1761399522499769300,9.397769287109375,0.02364274114370346,-9.805976867675781,-3.758896589279175
1761399522509836000,9.4078359375,-0.011971008032560349,-9.57089614868164,-4.074407577514648
1761399522519930600,9.4179306640625,-0.12255319952964783,-9.250073432922363,-4.674230098724365
1761399522530011100,9.42801123046875,-0.14926351606845856,-8.822334289550781,-5.008296012878418
1761399522540068600,9.438068603515624,0.14282909035682678,-8.244882583618164,-5.118429183959961
1761399522550170600,9.448170654296876,0.7993640899658203,-7.710002899169922,-5.416282653808594
1761399522560235000,9.458235107421874,0.6127659678459167,-7.369053363800049,-5.7020158767700195
1761399522570334000,9.468333984375,-0.16071078181266785,-7.207145690917969,-5.828459739685059
1761399522580398800,9.47839892578125,-1.2790274620056152,-7.3069539070129395,-6.008623123168945
1761399522590504200,9.488504150390625,-2.3588123321533203,-8.062100410461426,-6.6705451011657715
1761399522600556500,9.498556640625,-1.983147144317627,-9.200094223022461,-7.591714382171631
1761399522610641700,9.5086416015625,-0.9234884977340698,-10.16488265991211,-7.831733226776123
1761399522620736300,9.518736328125,-0.37581485509872437,-11.29255199432373,-7.541585922241211
1761399522630817500,9.528817626953124,0.24361002445220947,-12.60779094696045,-7.266925811767578
1761399522640910300,9.538910400390625,1.2265046834945679,-13.388226509094238,-6.231134414672852
1761399522650976800,9.548976806640624,1.584213376045227,-13.422792434692383,-4.753537654876709
1761399522661059800,9.559059814453125,0.9897779226303101,-13.344232559204102,-3.3558478355407715
1761399522671143700,9.569143798828126,0.3341407775878906,-13.281683921813965,-2.3885154724121094
1761399522681217500,9.579217529296875,-0.2205658257007599,-12.879682540893555,-1.4816367626190186
1761399522691301600,9.589301513671876,-1.0601075887680054,-12.369717597961426,-0.586579442024231
1761399522701383000,9.5993828125,-1.7679682970046997,-12.111443519592285,-0.7451204657554626
1761399522711449900,9.609449951171875,-2.0242226123809814,-11.31649398803711,-1.9802292585372925
1761399522721531000,9.61953076171875,-1.4537293910980225,-10.144906044006348,-3.8174798488616943
1761399522731627800,9.629627685546875,-0.021697452291846275,-9.683572769165039,-5.868188381195068
1761399522741695500,9.639695556640625,1.2516437768936157,-9.917681694030762,-7.161431312561035
1761399522751785700,9.64978564453125,1.5493477582931519,-9.972074508666992,-7.8057708740234375
1761399522761866200,9.6598662109375,1.283815860748291,-9.286659240722656,-8.481010437011719
1761399522771939800,9.66993994140625,0.9728689193725586,-8.665140151977539,-8.304886817932129
1761399522782028000,9.680028076171874,0.8223334550857544,-8.169914245605469,-8.03995418548584
1761399522792108500,9.690108642578124,0.5054758191108704,-7.7842230796813965,-7.565752029418945
1761399522802174500,9.700174560546875,-0.2439092993736267,-7.605106830596924,-6.2532806396484375
1761399522812270000,9.71027001953125,-0.7455693483352661,-7.584905624389648,-5.140725135803223
1761399522822350300,9.720350341796875,-1.0831518173217773,-7.322441577911377,-4.673257350921631
1761399522832431000,9.73043115234375,-1.2018144130706787,-7.1169891357421875,-3.9882164001464844
1761399522842511600,9.74051171875,-1.110759973526001,-6.926200866699219,-3.280879259109497
1761399522852592000,9.750592041015626,-0.8497171401977539,-6.999672889709473,-2.6595091819763184
1761399522862647600,9.7606474609375,-0.4952256679534912,-7.074865818023682,-2.6645967960357666
1761399522872728600,9.770728515625,-0.2662801146507263,-7.269769191741943,-2.8436381816864014
1761399522892914700,9.790914794921875,0.5088427066802979,-7.842133045196533,-3.459172487258911
1761399522902996000,9.800995849609375,0.6734440326690674,-8.161983489990234,-3.294945240020752
1761399522913086700,9.811086669921876,0.8465747833251953,-8.328081130981445,-3.2463130950927734
1761399522923156700,9.82115673828125,1.0258406400680542,-8.050128936767578,-3.195361375808716
1761399522933213200,9.831213134765624,1.1481693983078003,-7.255329132080078,-3.5287539958953857
1761399522943316200,9.841316162109376,1.1260977983474731,-6.7737202644348145,-3.6123266220092773
1761399522953399300,9.8513994140625,0.9436147212982178,-6.551209449768066,-3.4612674713134766
1761399522963480000,9.86147998046875,0.8242787718772888,-6.49060583114624,-3.567061185836792
1761399522973547800,9.8715478515625,0.8140285611152649,-6.675707817077637,-3.8220436573028564
1761399522983640800,9.881640869140625,0.8033294677734375,-6.973262310028076,-4.19000244140625
1761399522993722400,9.891722412109376,1.0143184661865234,-7.325359344482422,-4.835614204406738
1761399523003787800,9.901787841796875,1.0130466222763062,-7.704092025756836,-5.08610725402832
1761399523013858000,9.911858154296874,1.1415104866027832,-8.027383804321289,-5.493645668029785
1761399523023938800,9.921938720703125,1.2425906658172607,-8.059481620788574,-5.427430629730225
1761399523034018300,9.932018310546875,1.3504793643951416,-7.719953536987305,-5.042787551879883
1761399523044099600,9.942099609375,1.4605379104614258,-7.269469738006592,-4.571877956390381
1761399523054180400,9.952180419921875,1.5444844961166382,-6.815618991851807,-4.240131378173828
1761399523064255200,9.962255126953124,1.7105075120925903,-6.327725410461426,-4.108375072479248
1761399523074343200,9.97234326171875,1.908478021621704,-5.842375755310059,-4.114360809326172
1761399523084431600,9.982431640625,2.027888774871826,-5.457881927490234,-4.306719779968262
1761399523094512000,9.99251220703125,1.970876932144165,-5.21329927444458,-4.692111492156982
1761399523104584400,10.00258447265625,1.7717092037200928,-5.215394496917725,-5.185766220092773
1761399523114689500,10.012689453125,1.3908815383911133,-5.567940711975098,-5.774664878845215
1761399523124768300,10.022768310546875,0.9802759289741516,-6.224101543426514,-6.395810604095459
1761399523134835000,10.0328349609375,0.6174047589302063,-7.120505332946777,-6.954033851623535
1761399523144909600,10.04290966796875,0.3993079662322998,-8.158391952514648,-7.432948589324951
1761399523155012400,10.053012451171876,0.46627077460289,-9.238027572631836,-7.8150482177734375
1761399523165080800,10.063080810546875,0.908524751663208,-10.198775291442871,-8.151433944702148
1761399523175173400,10.07317333984375,1.7164181470870972,-10.899004936218262,-8.351873397827148
1761399523185255000,10.0832548828125,2.7836334705352783,-10.992079734802246,-8.321796417236328
1761399523195332600,10.09333251953125,3.2497546672821045,-10.547880172729492,-8.033294677734375
1761399523205403100,10.103403076171874,3.0817863941192627,-9.892541885375977,-7.328651428222656
1761399523215495000,10.113494873046875,2.8143839836120605,-8.987683296203613,-6.61083984375
1761399523225564200,10.123564208984375,2.4601171016693115,-8.044443130493164,-5.957596778869629
1761399523235645400,10.1336455078125,1.92598557472229,-6.9997477531433105,-5.2178635597229
1761399523245736000,10.14373583984375,1.5491232872009277,-6.251260757446289,-4.25629186630249
1761399523255817200,10.153817138671876,1.5147066116333008,-6.427833080291748,-3.278036117553711
1761399523265899500,10.1638994140625,0.9687538743019104,-8.609848976135254,-3.563694477081299
1761399523275980800,10.173980712890625,0.08821137249469757,-12.750171661376953,-5.04218864440918
1761399523286061300,10.184061279296875,-0.5743839740753174,-16.781858444213867,-6.5167927742004395
1761399523296141600,10.1941416015625,-0.3098994791507721,-18.623672485351562,-6.317774772644043
1761399523306222000,10.20422216796875,0.5333832502365112,-16.565107345581055,-5.021164894104004
1761399523316300800,10.21430078125,0.9980080127716064,-12.84279727935791,-3.9573910236358643
1761399523326390500,10.224390625,0.9356839656829834,-9.38317584991455,-3.3021278381347656
1761399523336451600,10.23445166015625,0.6337900757789612,-6.627075672149658,-2.9308769702911377
1761399523346545000,10.244544921875,-0.20627543330192566,-4.4811224937438965,-3.0440778732299805
1761399523356600000,10.25460009765625,-0.9421183466911316,-3.341108560562134,-3.1768813133239746
1761399523366713900,10.2647138671875,-1.433902382850647,-3.311779499053955,-2.9746460914611816
1761399523376785200,10.27478515625,-1.779789686203003,-4.27858829498291,-2.8027124404907227
1761399523386873000,10.284873046875,-2.110788106918335,-5.91053581237793,-3.0614356994628906
1761399523396948700,10.29494873046875,-2.2394015789031982,-7.973963737487793,-3.463287591934204
1761399523407028700,10.30502880859375,-2.0207061767578125,-10.241796493530273,-3.7918169498443604
1761399523417109800,10.31510986328125,-1.582492470741272,-12.252552032470703,-4.75653076171875
1761399523427164700,10.32516455078125,-0.7378630638122559,-13.137134552001953,-5.8029465675354
1761399523437269000,10.33526904296875,-0.10437223315238953,-12.165462493896484,-5.43491268157959
1761399523447352300,10.345352294921875,0.13213001191616058,-10.210073471069336,-4.6704888343811035
1761399523457432600,10.3554326171875,0.37416884303092957,-8.627506256103516,-4.263400077819824
1761399523467512600,10.3655126953125,0.7000795602798462,-7.755118370056152,-3.9491608142852783
1761399523477581300,10.375581298828125,0.9787047505378723,-7.593883991241455,-3.667917013168335
1761399523487674400,10.38567431640625,1.0875661373138428,-7.904082775115967,-3.3466451168060303
1761399523497755100,10.395755126953125,1.0440216064453125,-8.391676902770996,-3.216235876083374
1761399523507833900,10.405833740234375,0.9749638438224792,-8.730681419372559,-3.3896658420562744
1761399523517916400,10.41591650390625,0.8102876543998718,-8.7838773727417,-3.867309093475342
1761399523527991600,10.425991455078124,0.6065560579299927,-8.751405715942383,-4.400318145751953
1761399523538078000,10.436077880859376,0.3620481789112091,-8.768913269042969,-4.604947566986084
1761399523548158500,10.446158447265624,0.23373393714427948,-8.788142204284668,-4.604124546051025
1761399523558238700,10.45623876953125,0.08978256583213806,-8.73921012878418,-4.372410774230957
1761399523568317700,10.466317626953124,-0.066962830722332,-8.526500701904297,-4.272527694702148
1761399523578400300,10.476400146484375,-0.22198738157749176,-8.251091957092285,-4.174814224243164
1761399523588445400,10.486445556640625,-0.5871031284332275,-8.167071342468262,-4.360065937042236
1761399523598561500,10.4965615234375,-0.8889970183372498,-8.198195457458496,-4.481795787811279
1761399523608642000,10.50664208984375,-0.9037362933158875,-8.171260833740234,-4.178630352020264
1761399523618711300,10.516711181640625,-0.8444798588752747,-8.365565299987793,-4.262876033782959
1761399523628803300,10.52680322265625,-0.5594201683998108,-8.608800888061523,-4.397250652313232
1761399523638882600,10.536882568359376,-0.3446902334690094,-8.794950485229492,-4.522796630859375
1761399523648965400,10.54696533203125,-0.31214404106140137,-8.78657054901123,-4.485462188720703
1761399523659033300,10.557033447265624,-0.4479401707649231,-8.775946617126465,-4.480299472808838
1761399523669118700,10.56711865234375,-0.6469581723213196,-8.764798164367676,-4.243647575378418
1761399523679207200,10.577207275390625,-0.8891466856002808,-8.744372367858887,-3.9606828689575195
1761399523689279500,10.587279541015626,-0.9275286793708801,-8.62623405456543,-3.3330280780792236
1761399523699366400,10.597366455078125,-1.1421090364456177,-8.737937927246094,-3.1238346099853516
1761399523709437700,10.607437744140626,-1.2341361045837402,-8.892065048217773,-3.24721097946167
1761399523719529200,10.617529296875,-1.2090718746185303,-8.932766914367676,-3.328688621520996
1761399523729610500,10.627610595703125,-1.0270377397537231,-8.791059494018555,-3.273397445678711
1761399523739668700,10.637668701171876,-0.7495347857475281,-8.65406608581543,-3.3028759956359863
1761399523749759200,10.64775927734375,-0.4520552158355713,-8.732701301574707,-3.6735284328460693
1761399523759850500,10.6578505859375,-0.13706804811954498,-8.919672966003418,-4.123488903045654
1761399523769932800,10.667932861328126,0.06733692437410355,-9.147272109985352,-4.575918197631836
1761399523780013300,10.678013427734374,0.21854571998119354,-9.46375560760498,-4.77964973449707
1761399523790102800,10.688102783203124,0.10048165172338486,-9.759289741516113,-5.397578239440918
1761399523800161800,10.698161865234376,-0.16826748847961426,-9.921871185302734,-6.045658588409424
1761399523810255600,10.708255615234375,-0.5427355766296387,-10.015918731689453,-7.100903034210205
1761399523820329700,10.718329833984376,-1.1913398504257202,-10.275689125061035,-7.509039402008057
1761399523830414800,10.728414794921875,-1.4303858280181885,-10.475081443786621,-7.186346054077148
1761399523840499700,10.738499755859374,-0.8798691034317017,-10.556933403015137,-6.582109451293945
1761399523850576000,10.748575927734375,-0.5248538851737976,-10.654870986938477,-6.0354084968566895
1761399523860626000,10.7586259765625,-0.419209748506546,-10.753706932067871,-5.120748519897461
1761399523870744300,10.768744384765625,-0.02768295630812645,-10.495805740356445,-4.060715675354004
1761399523880820500,10.778820556640625,0.42527008056640625,-10.363077163696289,-2.9583353996276855
1761399523890896600,10.788896728515626,0.7358429431915283,-10.634520530700684,-2.3854479789733887
1761399523900961000,10.7989609375,0.7866448760032654,-10.947486877441406,-2.068739891052246
1761399523911062500,10.8090625,0.690727174282074,-11.110891342163086,-1.9129672050476074
1761399523921130200,10.819130126953125,0.6136638522148132,-11.026945114135742,-1.9443910121917725
1761399523931215600,10.829215576171874,0.5896469950675964,-10.640580177307129,-2.0614824295043945
1761399523941280300,10.8392802734375,0.6238391995429993,-10.146028518676758,-2.1866543292999268
1761399523951384600,10.849384521484374,0.6845172047615051,-9.624092102050781,-2.3242461681365967
1761399523961461500,10.85946142578125,0.7140706777572632,-9.393875122070312,-2.535609245300293
1761399523971533300,10.869533203125,0.8831611275672913,-9.692252159118652,-3.0178163051605225
1761399523981627100,10.879627197265625,1.100509762763977,-10.205135345458984,-3.4391210079193115
1761399523991694800,10.88969482421875,1.3164368867874146,-10.489521026611328,-3.4740614891052246
1761399524001788400,10.899788330078126,1.2868086099624634,-10.433856010437012,-3.36594820022583
1761399524011856400,10.9098564453125,1.1076923608779907,-10.348861694335938,-3.3186628818511963
1761399524021934300,10.919934326171875,0.7993640899658203,-9.906009674072266,-3.089792013168335
1761399524032030200,10.9300302734375,0.5253028273582458,-9.290026664733887,-2.9456911087036133
1761399524042110700,10.94011083984375,0.32770636677742004,-8.644864082336426,-2.703951597213745
1761399524052191700,10.950191650390625,0.18869301676750183,-8.315286636352539,-2.878279447555542
1761399524062272000,10.96027197265625,0.08043020963668823,-8.221240043640137,-3.110741376876831
1761399524072332500,10.97033251953125,0.04893149808049202,-8.334515571594238,-3.3180642127990723
1761399524082418700,10.980418701171875,0.11522095650434494,-8.678756713867188,-3.6052937507629395
1761399524092514300,10.990514404296874,0.4051438271999359,-9.227926254272461,-3.9675662517547607
1761399524102594800,11.0005947265625,0.9881319403648376,-9.78405475616455,-4.171597003936768
1761399524112656600,11.01065673828125,1.4386159181594849,-9.9633207321167,-4.366949081420898
1761399524122756400,11.02075634765625,1.4721348285675049,-9.755623817443848,-4.3697919845581055
1761399524132837400,11.03083740234375,1.0402058362960815,-9.564461708068848,-4.080692291259766
1761399524142904800,11.04090478515625,1.1100865602493286,-9.516427993774414,-3.2778117656707764
1761399524152996400,11.050996337890625,1.3104513883590698,-9.263765335083008,-2.7100119590759277
1761399524163079000,11.061078857421874,1.2698994874954224,-8.931344985961914,-2.4996962547302246
1761399524173159400,11.071159423828124,1.225008249282837,-8.795923233032227,-2.378265380859375
1761399524183240200,11.081240234375,1.2352584600448608,-8.79345417022705,-2.2088754177093506
1761399524193320700,11.09132080078125,1.3402292728424072,-8.77968692779541,-2.3809587955474854
1761399524203391200,11.10139111328125,1.4867244958877563,-8.533084869384766,-2.6826281547546387
1761399524213480700,11.111480712890625,1.6045640707015991,-8.601618766784668,-2.674248456954956
1761399524223562500,11.1215625,1.519195795059204,-8.461856842041016,-2.6966192722320557
1761399524233651500,11.1316513671875,1.4583680629730225,-8.064793586730957,-3.01519775390625
1761399524243713800,11.1417138671875,1.3680617809295654,-7.627552509307861,-3.0591912269592285
1761399524253802200,11.15180224609375,1.4039748907089233,-7.365237712860107,-2.882768392562866
1761399524263885300,11.16188525390625,1.4547020196914673,-7.096339225769043,-2.767622232437134
1761399524273966300,11.17196630859375,1.5134347677230835,-6.72763204574585,-2.7497406005859375
1761399524284044800,11.182044921875,1.6712275743484497,-6.3576531410217285,-2.837353467941284
1761399524294127900,11.1921279296875,1.908552885055542,-5.970091342926025,-2.9331963062286377
1761399524304201500,11.202201416015624,2.0749499797821045,-5.468132019042969,-3.062483310699463
1761399524324369200,11.222369140625,1.873013973236084,-4.630236625671387,-3.676072359085083
1761399524334450200,11.2324501953125,1.730259656906128,-4.5982890129089355,-4.028169631958008
1761399524344510200,11.24251025390625,1.7697639465332031,-4.864194869995117,-4.346822738647461
1761399524354606000,11.252606201171876,2.0085856914520264,-5.133991241455078,-4.696526050567627
1761399524364692500,11.2626923828125,2.2841432094573975,-5.363759994506836,-5.167360782623291
1761399524374764800,11.272764892578126,2.629431962966919,-5.798232555389404,-5.754239559173584
1761399524384853200,11.282853271484376,3.0975732803344727,-6.505868911743164,-6.389525890350342
1761399524394934300,11.292934326171874,3.645097255706787,-7.512929916381836,-7.0697784423828125
1761399524405000000,11.303,3.7642087936401367,-8.796670913696289,-7.926977157592773
1761399524415095600,11.313095458984375,3.8173301219940186,-10.24927806854248,-8.753874778747559
1761399524425176300,11.32317626953125,3.620781183242798,-11.25910758972168,-9.035343170166016
1761399524435246600,11.33324658203125,3.3494133949279785,-11.30766487121582,-8.467168807983398
1761399524445329400,11.343329345703125,3.3569700717926025,-10.369586944580078,-7.187169075012207
1761399524455417900,11.35341796875,3.247659683227539,-9.104101181030273,-5.832948684692383
1761399524465485800,11.36348583984375,3.6011037826538086,-8.216376304626465,-4.432265758514404
1761399524475577600,11.37357763671875,4.003105163574219,-9.7274169921875,-3.455132246017456
1761399524485658600,11.38365869140625,3.399242639541626,-14.838664054870605,-4.037896156311035
1761399524495727900,11.393727783203126,3.606191396713257,-19.513866424560547,-5.152097702026367
1761399524505808600,11.40380859375,4.0580220222473145,-20.740745544433594,-5.068599700927734
1761399524515902200,11.413902099609375,2.056020736694336,-16.373271942138672,-4.89995813369751
1761399524525981000,11.42398095703125,0.06097732484340668,-8.702698707580566,-4.5144171714782715
1761399524536066600,11.434066650390625,-0.21592706441879272,-3.2834980487823486,-3.812915802001953
1761399524546141400,11.444141357421875,-0.9316437244415283,-1.4588918685913086,-2.7136778831481934
1761399524556224800,11.454224853515624,-1.5214403867721558,-1.847051739692688,-2.2049100399017334
1761399524566306600,11.464306640625,-1.3254151344299316,-3.7259016036987305,-1.8136825561523438
1761399524576385800,11.4743857421875,-1.0197802782058716,-6.366182327270508,-1.3248165845870972
1761399524586454500,11.48445458984375,-1.379135012626648,-8.912117004394531,-1.7673697471618652
1761399524596545500,11.494545654296875,-1.5031098127365112,-11.258733749389648,-2.765302896499634
1761399524606620200,11.5046201171875,-1.3929016590118408,-12.64235782623291,-3.997793197631836
1761399524616715500,11.514715576171875,-1.3821277618408203,-12.883797645568848,-4.874819278717041
1761399524626780400,11.524780517578124,-0.8165724277496338,-12.110321044921875,-4.7253313064575195
1761399524636845000,11.534844970703125,-0.17574936151504517,-10.09365463256836,-3.8824973106384277
1761399524646951000,11.544950927734375,-0.25184008479118347,-8.603788375854492,-3.6436009407043457
1761399524657029400,11.555029296875,-0.07205050438642502,-7.98720645904541,-3.5417726039886475
1761399524667112400,11.565112548828125,0.45100775361061096,-7.787140846252441,-3.201795816421509
1761399524677180000,11.575179931640625,0.6204723119735718,-7.997381687164307,-3.216235876083374
1761399524687273000,11.58527294921875,0.5568763613700867,-8.342745780944824,-3.340958833694458
1761399524697354200,11.595354248046876,0.5894973278045654,-8.772504806518555,-3.409717321395874
1761399524707435000,11.60543505859375,0.4587889015674591,-9.063100814819336,-3.3103580474853516
1761399524717513500,11.615513427734374,0.22999300062656403,-9.228824615478516,-3.2287306785583496
1761399524727596500,11.625596435546875,0.08304887264966965,-9.324592590332031,-3.1866824626922607
1761399524737676800,11.6356767578125,0.08117840439081192,-9.23675537109375,-3.1011645793914795
1761399524747757600,11.645757568359375,0.2166004329919815,-8.86019229888916,-2.803011655807495
1761399524757838300,11.65583837890625,0.18076223134994507,-8.604985237121582,-2.7912650108337402
1761399524767908400,11.665908447265625,0.0636707991361618,-8.347908020019531,-2.767397880554199
1761399524777999600,11.67599951171875,-0.12180501222610474,-8.22228717803955,-2.898181200027466
1761399524788077800,11.686077880859376,-0.23358429968357086,-8.189665794372559,-3.1395466327667236
1761399524798161200,11.6961611328125,-0.1340004801750183,-8.207847595214844,-3.508104085922241
1761399524808241200,11.7062412109375,-0.035239655524492264,-8.257452011108398,-4.079121112823486
1761399524818322000,11.716322021484375,0.05155015364289284,-8.237924575805664,-4.628440856933594
1761399524828402700,11.726402587890625,0.11350012570619583,-8.22999382019043,-5.15045166015625
1761399524838478000,11.73647802734375,0.26500821113586426,-8.272490501403809,-5.442843437194824
1761399524848562400,11.7465625,0.6676082015037537,-8.4177885055542,-5.572579383850098
1761399524858654500,11.756654541015624,1.123329520225525,-8.650325775146484,-5.540855884552002
1761399524868712700,11.766712646484375,1.3146412372589111,-8.742352485656738,-5.559186935424805
1761399524878793200,11.776793212890626,1.3292309045791626,-8.653617858886719,-5.4805521965026855
1761399524888887000,11.786886962890625,1.215057373046875,-8.479738235473633,-5.38710355758667
1761399524898967600,11.796967529296875,1.0742484331130981,-8.333019256591797,-5.266570568084717
1761399524909048300,11.80704833984375,0.8211363554000854,-8.258798599243164,-5.097854137420654
1761399524919126800,11.817126708984375,0.5912181735038757,-8.242937088012695,-4.808903694152832
1761399524929209300,11.827209228515626,0.3208978474140167,-8.18644905090332,-4.403909683227539
1761399524939279000,11.837279052734376,0.24443303048610687,-8.130035400390625,-3.8803277015686035
1761399524949379800,11.8473798828125,0.09479542076587677,-8.232462882995605,-3.464559555053711
1761399524959451100,11.857451171875,-0.2745850086212158,-8.401253700256348,-3.2568624019622803
1761399524969523500,11.8675234375,-0.6771101951599121,-8.655338287353516,-3.2288801670074463
1761399524979611000,11.87761083984375,-0.9421932101249695,-8.789488792419434,-3.087397813796997
1761399524989693700,11.887693603515626,-0.8487445116043091,-8.95468807220459,-3.078120470046997
1761399524999774000,11.89777392578125,-0.45332711935043335,-8.966060638427734,-3.100341558456421
1761399525009831000,11.907830810546875,-0.30294132232666016,-9.245359420776367,-3.4864065647125244
1761399525019935200,11.917935302734374,-0.4272153675556183,-9.45103645324707,-3.637615442276001
1761399525030016500,11.9280166015625,-0.7269394993782043,-9.586907386779785,-3.422436475753784
1761399525040095200,11.93809521484375,-1.0726771354675293,-10.112060546875,-3.450643301010132
1761399525050177300,11.94817724609375,-1.22411048412323,-10.118868827819824,-3.370213031768799
1761399525060258000,11.958258056640625,-1.0491840839385986,-9.851615905761719,-3.4041059017181396
1761399525070338600,11.968338623046876,-0.9044845104217529,-9.594538688659668,-3.685424566268921
1761399525080407000,11.978406982421875,-0.410979688167572,-9.39941120147705,-4.0650553703308105
1761399525090502400,11.98850244140625,-0.040701430290937424,-9.26451301574707,-4.640636444091797
1761399525100579000,11.9985791015625,0.0933738648891449,-9.048062324523926,-5.230806827545166
1761399525110651600,12.008651611328125,0.05611410364508629,-8.873510360717773,-5.787458896636963
1761399525120731000,12.01873095703125,-0.23852235078811646,-8.713547706604004,-6.299593448638916
1761399525130811600,12.028811767578125,-0.7701099514961243,-8.50442886352539,-6.938770771026611
1761399525140890600,12.038890625,-1.2528408765792847,-8.551040649414062,-7.815272808074951
1761399525150983700,12.048983642578126,-1.5120131969451904,-8.687734603881836,-8.418312072753906
1761399525171133700,12.0691337890625,-0.5752069354057312,-9.050905227661133,-8.562788009643555
1761399525181211100,12.079211181640625,-0.4323778748512268,-9.206229209899902,-8.287005424499512
1761399525191293700,12.089293701171876,-0.031274259090423584,-9.56977367401123,-7.787515163421631
1761399525201387500,12.099387451171875,0.6477063894271851,-10.085799217224121,-6.747833251953125
1761399525211456500,12.10945654296875,1.4040496349334717,-10.53561019897461,-5.3284454345703125
1761399525221538600,12.11953857421875,2.03312611579895,-10.635343551635742,-3.8703019618988037
1761399525231628800,12.12962890625,2.152686595916748,-10.740838050842285,-2.906785249710083
1761399525241706000,12.1397060546875,1.9160346984863281,-11.087024688720703,-2.2107460498809814
1761399525251797200,12.14979736328125,1.4136264324188232,-11.406126976013184,-1.7372177839279175
1761399525261850400,12.159850341796876,0.4114286005496979,-11.634697914123535,-1.4499136209487915
1761399525271952100,12.1699521484375,-0.7229741215705872,-11.784859657287598,-1.514257788658142
1761399525282024700,12.180024658203125,-1.778592586517334,-11.261651039123535,-2.1071219444274902
1761399525292113700,12.19011376953125,-2.177077531814575,-10.02108097076416,-3.3272669315338135
1761399525302191900,12.20019189453125,-1.4767735004425049,-9.128118515014648,-4.931382179260254
1761399525312262100,12.21026220703125,0.18584990501403809,-9.272967338562012,-6.563329696655273
1761399525322355200,12.220355224609374,1.190890908241272,-9.578303337097168,-7.1752729415893555
1761399525332436000,12.23043603515625,1.5334113836288452,-9.73430061340332,-6.996006965637207
1761399525342514700,12.2405146484375,1.6015713214874268,-9.746346473693848,-6.630367279052734
1761399525352596700,12.2505966796875,1.0793360471725464,-9.544185638427734,-6.3273515701293945
1761399525362676000,12.260676025390625,0.5119102597236633,-8.929399490356445,-5.706879138946533
1761399525372758800,12.2707587890625,0.2472013235092163,-8.235006332397461,-5.282057762145996
1761399525382831900,12.280831787109374,0.28625673055648804,-7.841310024261475,-4.620883941650391
1761399525392920000,12.290920166015624,0.025513211265206337,-7.730428218841553,-4.040215492248535
1761399525402988800,12.30098876953125,-0.16572365164756775,-7.825373649597168,-3.272125482559204
1761399525413068500,12.311068603515626,-0.23994390666484833,-7.950844764709473,-2.7076923847198486
1761399525423161600,12.32116162109375,-0.39377135038375854,-8.06898307800293,-2.3413796424865723
1761399525433249000,12.3312490234375,-0.40880993008613586,-8.183530807495117,-2.191218376159668
1761399525443323600,12.34132373046875,-0.40619128942489624,-8.327557563781738,-2.1572506427764893
1761399525453391400,12.351391357421875,-0.34521394968032837,-8.414871215820312,-2.1506664752960205
1761399525463484700,12.361484619140626,-0.07638999819755554,-8.718934059143066,-2.2102222442626953
1761399525473575200,12.3715751953125,0.30196869373321533,-8.943241119384766,-2.313621759414673
1761399525483645700,12.381645751953124,0.31842881441116333,-9.146449089050293,-2.3184101581573486
1761399525493725000,12.391724853515624,0.7445967197418213,-9.221417427062988,-2.0695629119873047
1761399525503794200,12.401794189453126,1.317035436630249,-8.754473686218262,-1.991227626800537
1761399525513888000,12.411887939453125,1.846228837966919,-8.64815616607666,-1.2280009984970093
1761399525523968500,12.421968505859375,2.062455177307129,-8.141857147216797,-0.6883329749107361
1761399525534049800,12.4320498046875,2.0418050289154053,-7.382969856262207,-0.6533926129341125
1761399525544142300,12.442142333984375,1.8714426755905151,-6.924704551696777,-0.328230082988739
1761399525554199300,12.45219921875,1.8237082958221436,-6.817265033721924,-0.21031565964221954
1761399525564289500,12.46228955078125,1.8789246082305908,-6.808810234069824,-0.5204395651817322
1761399525574371600,12.47237158203125,1.9402011632919312,-6.802151679992676,-1.0619032382965088
1761399525584440000,12.482440185546874,2.080336809158325,-6.812625885009766,-1.7533786296844482
1761399525594532900,12.492532958984375,2.2647652626037598,-6.754641532897949,-2.519298791885376
1761399525604613600,12.502613525390625,2.5400984287261963,-6.65632963180542,-3.2808046340942383
1761399525614682000,12.51268212890625,2.7703158855438232,-6.581585884094238,-3.991957187652588
1761399525624773000,12.522773193359376,2.948160171508789,-6.485742568969727,-4.741866111755371
1761399525634856200,12.532856201171874,3.227308988571167,-6.4270100593566895,-5.643208026885986
1761399525644939300,12.542939208984375,3.4297688007354736,-6.432696342468262,-6.672116279602051
1761399525655017500,12.553017578125,3.5812020301818848,-6.647725582122803,-7.598073959350586
1761399525665098000,12.563097900390625,3.7550060749053955,-7.002216815948486,-8.46634578704834
1761399525675178500,12.573178466796875,3.8213703632354736,-7.474547863006592,-9.364620208740234
1761399525685247500,12.58324755859375,3.7066731452941895,-8.124873161315918,-10.229151725769043
1761399525695317800,12.59331787109375,3.1723921298980713,-8.691699981689453,-10.816629409790039
1761399525705420800,12.6034208984375,2.420762300491333,-8.996512413024902,-10.918532371520996
1761399525715487500,12.613487548828125,2.056469678878784,-8.71496868133545,-10.256011962890625
1761399525725580300,12.623580322265624,2.4979753494262695,-7.8483428955078125,-9.36469554901123
1761399525735661000,12.6336611328125,3.0802900791168213,-6.850783824920654,-8.78312873840332
1761399525745739500,12.643739501953124,3.4305918216705322,-5.605424880981445,-8.278326034545898
1761399525755821800,12.65382177734375,3.66851544380188,-4.431143760681152,-7.556250095367432
1761399525765904600,12.663904541015626,4.251728057861328,-4.5714287757873535,-6.765939235687256
1761399525775972400,12.673972412109375,2.883591413497925,-8.514305114746094,-7.591115951538086
1761399525786052900,12.684052978515625,1.4968998432159424,-14.82392406463623,-8.657134056091309
1761399525796129800,12.6941298828125,0.6423194408416748,-19.995624542236328,-7.648576736450195
1761399525806225000,12.704224853515624,-0.3531447649002075,-20.73790168762207,-6.136039733886719
1761399525816306000,12.714305908203125,-1.7284640073776245,-16.491859436035156,-3.5300259590148926
1761399525826375700,12.724375732421874,-1.7779940366744995,-10.431985855102539,-0.9773580431938171
1761399525836456400,12.73445654296875,1.1525837182998657,-6.09316873550415,1.128267526626587
1761399525846550300,12.74455029296875,1.6710779666900635,-4.225841045379639,1.2711714506149292
1761399525856619500,12.75461962890625,-0.9751882553100586,-3.4105403423309326,-0.21390695869922638
1761399525866711800,12.7647119140625,-2.3219268321990967,-3.2525978088378906,-0.45160630345344543
1761399525876790000,12.7747900390625,-2.376993417739868,-4.342258930206299,0.20956747233867645
1761399525886870300,12.784870361328124,-2.998962163925171,-6.758681774139404,-0.20702363550662994
1761399525896940800,12.79494091796875,-4.1122660636901855,-10.201319694519043,-1.497423529624939
1761399525907033900,12.805033935546875,-3.8373067378997803,-13.85958480834961,-2.251896381378174
1761399525917101800,12.815101806640625,-3.194089412689209,-15.620819091796875,-3.517456293106079
1761399525927195000,12.82519482421875,-1.9567362070083618,-14.92724895477295,-5.152022838592529
1761399525937274000,12.835274169921876,-0.3321206569671631,-10.64275074005127,-5.112742900848389
1761399525947356700,12.845356689453125,0.48736968636512756,-7.633912086486816,-4.453664302825928
1761399525957436700,12.855436767578125,0.6468085646629333,-7.446042060852051,-3.1512932777404785
1761399525967489300,12.8654892578125,0.3271826207637787,-8.272490501403809,-2.1086182594299316
1761399525977598200,12.87559814453125,0.1595136821269989,-9.141436576843262,-1.2015899419784546
1761399525987679200,12.88567919921875,0.28895020484924316,-9.72165584564209,-0.9817723631858826
1761399525997758000,12.895758056640625,0.2994248569011688,-9.564087867736816,-1.1458499431610107
1761399526007840800,12.9058408203125,-0.021847089752554893,-9.213412284851074,-1.4383167028427124
