time,seconds_elapsed,z,y,x
1761315349004340000,0.215340087890625,0.006108472589403391,0.021990500390529633,0.005497625097632408
1761315349023262000,0.234261962890625,0.007941014133393764,0.01710372418165207,0.006108472589403391
1761315349042183700,0.25318359375,0.007330167107284069,0.014660334214568138,0.008551862090826035
1761315349061105400,0.27210546875,0.00916270911693573,0.004886778071522713,0.011606098152697086
1761315349080027100,0.291027099609375,0.01588202826678753,0.0018325417768210173,0.012216945178806782
1761315349098949000,0.30994921875,0.022601349279284477,0.004886778071522713,0.008551862090826035
1761315349117870800,0.328870849609375,0.023212196305394173,0.0018325417768210173,0.005497625097632408
1761315349136792600,0.34779248046875,0.018936265259981155,-0.0012216945178806782,0.0036650835536420345
1761315349155714300,0.36671435546875,0.013438640162348747,-0.0030542362947016954,0.0030542362947016954
1761315349174636300,0.38563623046875,0.012216945178806782,-0.004275931045413017,0.0018325417768210173
1761315349193558000,0.40455810546875,0.013438640162348747,0,0.0030542362947016954
1761315349212479700,0.423479736328125,0.012827792204916477,-0.0006108472589403391,0.0024433890357613564
1761315349231401700,0.442401611328125,0.009773556143045425,-0.0006108472589403391,0.0024433890357613564
1761315349250323500,0.461323486328125,0.008551862090826035,-0.0006108472589403391,0.0012216945178806782
1761315349269245200,0.4802451171875,0.01038440316915512,-0.0036650835536420345,-0.0006108472589403391
1761315349288167000,0.4991669921875,0.011606098152697086,-0.005497625097632408,-0.0018325417768210173
1761315349307088600,0.518088623046875,0.012827792204916477,-0.005497625097632408,-0.0018325417768210173
1761315349326010600,0.5370107421875,0.012827792204916477,-0.0012216945178806782,-0.0018325417768210173
1761315349344932400,0.555932373046875,0.01038440316915512,-0.007330167107284069,-0.007330167107284069
1761315349363854000,0.57485400390625,0.009773556143045425,-0.010995250195264816,-0.008551862090826035
1761315349382775800,0.59377587890625,0.01038440316915512,-0.015271181240677834,-0.007941014133393764
1761315349401697800,0.61269775390625,0.008551862090826035,-0.01588202826678753,-0.004275931045413017
1761315349420619500,0.63161962890625,0.00916270911693573,-0.01588202826678753,-0.004886778071522713
1761315349439541200,0.650541259765625,0.01038440316915512,-0.020157959312200546,-0.005497625097632408
1761315349458463200,0.669463134765625,0.00916270911693573,-0.01588202826678753,-0.004886778071522713
1761315349477385000,0.688385009765625,0.005497625097632408,-0.006719320081174374,-0.004275931045413017
1761315349496306700,0.707306640625,0.004275931045413017,-0.004275931045413017,-0.0024433890357613564
1761315349515228400,0.726228515625,0.0030542362947016954,-0.0024433890357613564,0.0006108472589403391
1761315349534150400,0.745150390625,0.0018325417768210173,0,0.004886778071522713
1761315349553072000,0.764072021484375,-0.0012216945178806782,0.006719320081174374,0.009773556143045425
1761315349571993900,0.782993896484375,-0.004275931045413017,0.013438640162348747,0.013438640162348747
1761315349590915600,0.80191552734375,-0.004275931045413017,0.021379653364419937,0.01710372418165207
1761315349609837600,0.820837646484375,-0.004886778071522713,0.02626643143594265,0.02504473738372326
1761315349628759300,0.83975927734375,-0.007330167107284069,0.02993151545524597,0.02870982140302658
1761315349647681000,0.858680908203125,-0.009773556143045425,0.042759306728839874,0.034818295389413834
1761315349666602800,0.877602783203125,-0.012827792204916477,0.04886778071522713,0.0397050715982914
1761315349685524700,0.896524658203125,-0.015271181240677834,0.05131116881966591,0.04092676565051079
1761315349704446500,0.915446533203125,-0.017714571207761765,0.05864133685827255,0.04214845970273018
1761315349723368200,0.9343681640625,-0.017714571207761765,0.05803048983216286,0.04031591862440109
1761315349742290000,0.9532900390625,-0.016492875292897224,0.06047387793660164,0.038483377546072006
1761315349761212000,0.9722119140625,-0.017714571207761765,0.05925218388438225,0.037261683493852615
1761315349780133600,0.991133544921875,-0.01710372418165207,0.053143709897994995,0.037261683493852615
1761315349799055400,1.010055419921875,-0.017714571207761765,0.0525328628718853,0.0390942245721817
1761315349817977300,1.028977294921875,-0.016492875292897224,0.04825693368911743,0.036039989441633224
1761315349836899000,1.047899169921875,-0.014660334214568138,0.043981000781059265,0.03420744836330414
1761315349855820800,1.06682080078125,-0.014049487188458443,0.0397050715982914,0.030542362481355667
1761315349874742500,1.085742431640625,-0.014049487188458443,0.03237490355968475,0.02748812735080719
1761315349893664500,1.10466455078125,-0.012216945178806782,0.03542914241552353,0.029320668429136276
1761315349912586200,1.123586181640625,-0.013438640162348747,0.03665083646774292,0.02870982140302658
1761315349931508000,1.142508056640625,-0.017714571207761765,0.03298575058579445,0.02748812735080719
1761315349950429700,1.1614296875,-0.01588202826678753,0.037261683493852615,0.02626643143594265
1761315349969351700,1.1803515625,-0.01038440316915512,0.04031591862440109,0.022601349279284477
1761315349988273400,1.1992734375,-0.011606098152697086,0.036039989441633224,0.01832541823387146
1761315350007195100,1.218195068359375,-0.01588202826678753,0.03176405653357506,0.017714571207761765
1761315350026116900,1.237116943359375,-0.01832541823387146,0.031153209507465363,0.01710372418165207
1761315350045038800,1.256038818359375,-0.016492875292897224,0.031153209507465363,0.014049487188458443
1761315350063960600,1.274960693359375,-0.014049487188458443,0.02748812735080719,0.00916270911693573
1761315350082882300,1.29388232421875,-0.012216945178806782,0.015271181240677834,0.0030542362947016954
1761315350101804000,1.312803955078125,-0.00916270911693573,0.004275931045413017,-0.0006108472589403391
1761315350120726000,1.33172607421875,-0.006719320081174374,0,-0.0036650835536420345
1761315350139647700,1.350647705078125,-0.0030542362947016954,-0.0024433890357613564,-0.006108472589403391
1761315350158569500,1.369569580078125,0.0006108472589403391,-0.005497625097632408,-0.006719320081174374
1761315350177491200,1.3884912109375,0.0012216945178806782,-0.0006108472589403391,-0.0012216945178806782
1761315350196413200,1.4074130859375,-0.0036650835536420345,-0.0030542362947016954,0.0006108472589403391
1761315350215335000,1.4263349609375,-0.006108472589403391,0.0024433890357613564,0.0030542362947016954
1761315350234256600,1.445256591796875,-0.004886778071522713,0.01038440316915512,0.0036650835536420345
1761315350253178400,1.464178466796875,-0.004275931045413017,0.012827792204916477,0.0036650835536420345
1761315350272100400,1.483100341796875,-0.005497625097632408,0.014660334214568138,0.006719320081174374
1761315350291022000,1.50202197265625,-0.004886778071522713,0.01710372418165207,0.007941014133393764
1761315350309943800,1.52094384765625,-0.0030542362947016954,0.013438640162348747,0.007330167107284069
1761315350328865800,1.53986572265625,-0.0024433890357613564,0.015271181240677834,0.007941014133393764
1761315350347787500,1.55878759765625,-0.0012216945178806782,0.014049487188458443,0.007330167107284069
1761315350366709200,1.577709228515625,-0.0018325417768210173,0.01588202826678753,0.00916270911693573
1761315350385631000,1.596630859375,-0.0018325417768210173,0.014660334214568138,0.009773556143045425
1761315350404553000,1.615552978515625,-0.0018325417768210173,0.014049487188458443,0.01038440316915512
1761315350423474700,1.634474609375,-0.0018325417768210173,0.014049487188458443,0.01038440316915512
1761315350442396400,1.653396484375,-0.0018325417768210173,0.007941014133393764,0.007330167107284069
1761315350461318100,1.672318115234375,0,0.0006108472589403391,0.0030542362947016954
1761315350480240000,1.691240234375,0.0018325417768210173,0.0018325417768210173,-0.0030542362947016954
1761315350499161900,1.710161865234375,0.0006108472589403391,-0.004275931045413017,-0.0036650835536420345
1761315350518083600,1.72908349609375,-0.004275931045413017,0.004275931045413017,0.004275931045413017
1761315350537005300,1.74800537109375,-0.005497625097632408,0.020157959312200546,0.005497625097632408
1761315350555927300,1.76692724609375,-0.006108472589403391,0.021990500390529633,0.008551862090826035
1761315350574849000,1.78584912109375,-0.006108472589403391,0.01954711228609085,0.00916270911693573
1761315350593770800,1.804770751953125,-0.0036650835536420345,0.013438640162348747,0.006719320081174374
1761315350612692500,1.8236923828125,0.0006108472589403391,0.00916270911693573,0.0018325417768210173
1761315350631614500,1.842614501953125,0.0030542362947016954,0.004275931045413017,-0.0006108472589403391
1761315350650536200,1.8615361328125,0.0036650835536420345,-0.0012216945178806782,0.0006108472589403391
1761315350669458000,1.8804580078125,0.004275931045413017,-0.0012216945178806782,0.0036650835536420345
1761315350688380000,1.8993798828125,0.007330167107284069,0.006108472589403391,0.008551862090826035
1761315350707301600,1.918301513671875,0.007330167107284069,0.00916270911693573,0.010995250195264816
1761315350726223400,1.937223388671875,0.004275931045413017,0.004275931045413017,0.012216945178806782
1761315350745145000,1.95614501953125,-0.0012216945178806782,0.00916270911693573,0.015271181240677834
1761315350764067000,1.975067138671875,-0.0030542362947016954,0.022601349279284477,0.01588202826678753
1761315350782988800,1.99398876953125,-0.0036650835536420345,0.031153209507465363,0.012827792204916477
1761315350801910500,2.01291064453125,-0.004886778071522713,0.03542914241552353,0.009773556143045425
1761315350820832500,2.03183251953125,-0.006719320081174374,0.02870982140302658,0.005497625097632408
1761315350839754200,2.050754150390625,-0.006108472589403391,0.016492875292897224,0.0036650835536420345
1761315350858676000,2.069676025390625,-0.004275931045413017,0.011606098152697086,0.0036650835536420345
1761315350877597700,2.08859765625,-0.0018325417768210173,0.00916270911693573,0.0006108472589403391
1761315350896519700,2.107519775390625,-0.0006108472589403391,0.0036650835536420345,-0.0024433890357613564
1761315350915441400,2.12644140625,0.0012216945178806782,-0.0018325417768210173,-0.0024433890357613564
1761315350934363100,2.145363037109375,0.0024433890357613564,-0.006719320081174374,0
1761315350953284900,2.164284912109375,0.004275931045413017,-0.0030542362947016954,0.0024433890357613564
1761315350972206800,2.183206787109375,0.006108472589403391,0.0006108472589403391,0.0024433890357613564
1761315350991128600,2.202128662109375,0.006719320081174374,0.007330167107284069,0.0036650835536420345
1761315351010050300,2.22105029296875,0.007941014133393764,0.010995250195264816,0.0036650835536420345
1761315351028972300,2.23997216796875,0.005497625097632408,0.011606098152697086,0.007941014133393764
1761315351047894000,2.25889404296875,-0.0018325417768210173,0.016492875292897224,0.011606098152697086
1761315351066815700,2.277815673828125,-0.007941014133393764,0.02076880633831024,0.012827792204916477
1761315351085737500,2.296737548828125,-0.008551862090826035,0.020157959312200546,0.009773556143045425
1761315351104659500,2.315659423828125,-0.004275931045413017,0.01038440316915512,0.0006108472589403391
1761315351123581200,2.334581298828125,0,0.004886778071522713,-0.004886778071522713
1761315351142503000,2.3535029296875,0.0018325417768210173,-0.0012216945178806782,-0.007330167107284069
1761315351161425000,2.3724248046875,0.0024433890357613564,-0.0030542362947016954,-0.0012216945178806782
1761315351180346600,2.3913466796875,0.0030542362947016954,0,0.0018325417768210173
1761315351199268400,2.410268310546875,0.006108472589403391,0.0018325417768210173,0.004275931045413017
1761315351218190300,2.4291904296875,0.006719320081174374,0.006719320081174374,0.006108472589403391
1761315351237112000,2.448112060546875,0.0012216945178806782,0.007941014133393764,0.004886778071522713
1761315351256033800,2.46703369140625,-0.0024433890357613564,0.007330167107284069,0.0024433890357613564
1761315351274955500,2.48595556640625,-0.004886778071522713,0.006719320081174374,-0.0018325417768210173
1761315351293877500,2.50487744140625,-0.004275931045413017,0.007941014133393764,-0.008551862090826035
1761315351312799200,2.52379931640625,0,0.004275931045413017,-0.01588202826678753
1761315351331721000,2.542720947265625,0.0012216945178806782,0.0018325417768210173,-0.016492875292897224
1761315351350643000,2.561642822265625,-0.0006108472589403391,-0.0036650835536420345,-0.01710372418165207
1761315351369564700,2.580564697265625,0.0012216945178806782,-0.014049487188458443,-0.02076880633831024
1761315351388486400,2.599486328125,0.0036650835536420345,-0.028098974376916885,-0.023212196305394173
1761315351407408400,2.618408447265625,0.008551862090826035,-0.034818295389413834,-0.023823043331503868
1761315351426330000,2.637330078125,0.013438640162348747,-0.0397050715982914,-0.01832541823387146
1761315351445251800,2.656251953125,0.016492875292897224,-0.031153209507465363,-0.008551862090826035
1761315351464173600,2.675173583984375,0.021990500390529633,-0.023823043331503868,0.0006108472589403391
1761315351483095600,2.694095458984375,0.023212196305394173,-0.018936265259981155,0.004886778071522713
1761315351502017300,2.713017333984375,0.01954711228609085,-0.0018325417768210173,0.004886778071522713
1761315351520939300,2.731939208984375,0.012827792204916477,0.005497625097632408,-0.006108472589403391
1761315351539861000,2.750861083984375,0.0030542362947016954,0.0036650835536420345,-0.01710372418165207
1761315351558782700,2.76978271484375,-0.006719320081174374,0.004275931045413017,-0.029320668429136276
1761315351577704400,2.788704345703125,-0.01832541823387146,0.0030542362947016954,-0.04092676565051079
1761315351596626400,2.80762646484375,-0.022601349279284477,-0.008551862090826035,-0.047646086663007736
1761315351615548200,2.826548095703125,-0.026877280324697495,-0.01954711228609085,-0.051922015845775604
1761315351634470000,2.845469970703125,-0.024433890357613564,-0.03176405653357506,-0.05986303091049194
1761315351653392000,2.864391845703125,-0.01954711228609085,-0.04092676565051079,-0.06352811306715012
1761315351672313600,2.883313720703125,-0.017714571207761765,-0.037261683493852615,-0.061084724962711334
1761315351691235300,2.9022353515625,-0.016492875292897224,-0.026877280324697495,-0.05131116881966591
1761315351710157300,2.9211572265625,-0.012827792204916477,-0.02504473738372326,-0.04153761267662048
1761315351729079000,2.9400791015625,-0.007941014133393764,-0.01588202826678753,-0.031153209507465363
1761315351748000800,2.959000732421875,-0.0006108472589403391,-0.004886778071522713,-0.022601349279284477
1761315351766922800,2.9779228515625,0.004275931045413017,0.0036650835536420345,-0.011606098152697086
1761315351785844500,2.996844482421875,0.007941014133393764,0.008551862090826035,0.0030542362947016954
1761315351804766200,3.01576611328125,0.01038440316915512,0.007941014133393764,0.012827792204916477
1761315351823688200,3.034688232421875,0.012216945178806782,0.009773556143045425,0.02076880633831024
1761315351842610000,3.05360986328125,0.009773556143045425,0.01832541823387146,0.023823043331503868
1761315351861531600,3.07253173828125,0.004275931045413017,0.022601349279284477,0.01954711228609085
1761315351880453600,3.09145361328125,0.0012216945178806782,0.02076880633831024,0.012827792204916477
1761315351899375400,3.110375244140625,-0.0006108472589403391,0.016492875292897224,0.007941014133393764
1761315351918297000,3.129297119140625,-0.0024433890357613564,0.01710372418165207,0.0012216945178806782
1761315351937219000,3.148218994140625,-0.006108472589403391,0.012216945178806782,-0.004275931045413017
1761315351956140800,3.167140869140625,-0.010995250195264816,0.007330167107284069,-0.006108472589403391
1761315351975062500,3.1860625,-0.012216945178806782,-0.0030542362947016954,-0.011606098152697086
1761315351993984500,3.204984619140625,-0.008551862090826035,-0.0018325417768210173,-0.013438640162348747
1761315352012906200,3.22390625,-0.004275931045413017,-0.007330167107284069,-0.014660334214568138
1761315352031828000,3.242827880859375,-0.0036650835536420345,-0.007941014133393764,-0.012216945178806782
1761315352050750000,3.26175,0,-0.01038440316915512,-0.01038440316915512
1761315352069671700,3.280671630859375,0.006719320081174374,-0.007941014133393764,-0.004886778071522713
1761315352088593400,3.299593505859375,0.005497625097632408,0.0012216945178806782,0.004886778071522713
1761315352107515400,3.318515380859375,0.0006108472589403391,0.014049487188458443,0.012827792204916477
1761315352126437000,3.33743701171875,-0.005497625097632408,0.01954711228609085,0.01710372418165207
1761315352145358800,3.35635888671875,-0.008551862090826035,0.024433890357613564,0.017714571207761765
1761315352164280800,3.37528076171875,-0.007941014133393764,0.031153209507465363,0.012827792204916477
1761315352183202600,3.39420263671875,-0.007330167107284069,0.034818295389413834,0.010995250195264816
1761315352202124500,3.41312451171875,-0.011606098152697086,0.034818295389413834,0.010995250195264816
1761315352221046300,3.43204638671875,-0.014660334214568138,0.037261683493852615,0.013438640162348747
1761315352239968000,3.450968017578125,-0.01588202826678753,0.04153761267662048,0.01710372418165207
1761315352258890000,3.469889892578125,-0.01588202826678753,0.04214845970273018,0.017714571207761765
1761315352277811700,3.488811767578125,-0.015271181240677834,0.038483377546072006,0.01588202826678753
1761315352296733400,3.5077333984375,-0.010995250195264816,0.036039989441633224,0.014049487188458443
1761315352315655400,3.526655517578125,-0.006719320081174374,0.036039989441633224,0.011606098152697086
1761315352334577200,3.5455771484375,-0.004886778071522713,0.028098974376916885,0.004275931045413017
1761315352353499000,3.564498779296875,-0.004275931045413017,0.022601349279284477,0.0024433890357613564
1761315352372420900,3.5834208984375,-0.0036650835536420345,0.021990500390529633,0.0030542362947016954
1761315352391342600,3.602342529296875,-0.0006108472589403391,0.02076880633831024,0.004886778071522713
1761315352410264600,3.6212646484375,0.0018325417768210173,0.01832541823387146,0.007941014133393764
1761315352429186300,3.640186279296875,0,0.01710372418165207,0.008551862090826035
1761315352448108000,3.65910791015625,-0.004886778071522713,0.015271181240677834,0.007330167107284069
1761315352467029800,3.67802978515625,-0.007330167107284069,0.016492875292897224,0.007330167107284069
1761315352485951700,3.69695166015625,-0.008551862090826035,0.01954711228609085,0.004275931045413017
1761315352504873500,3.71587353515625,-0.00916270911693573,0.022601349279284477,0
1761315352523795500,3.73479541015625,-0.009773556143045425,0.024433890357613564,-0.0012216945178806782
1761315352542717200,3.75371728515625,-0.01038440316915512,0.016492875292897224,-0.004886778071522713
1761315352561639000,3.772638916015625,-0.01038440316915512,0.018936265259981155,-0.004886778071522713
1761315352580561000,3.791560791015625,-0.014049487188458443,0.016492875292897224,-0.004275931045413017
1761315352599482600,3.810482666015625,-0.022601349279284477,0.018936265259981155,-0.006719320081174374
1761315352618404400,3.829404296875,-0.02993151545524597,0.020157959312200546,-0.017714571207761765
1761315352637326300,3.848326416015625,-0.03176405653357506,0.02626643143594265,-0.021379653364419937
1761315352656248000,3.867248046875,-0.03237490355968475,0.03787253051996231,-0.013438640162348747
1761315352675170000,3.886170166015625,-0.03542914241552353,0.05008947476744652,0.0018325417768210173
1761315352694091800,3.905091796875,-0.038483377546072006,0.054365407675504684,0.014049487188458443
1761315352713013800,3.924013671875,-0.0390942245721817,0.0525328628718853,0.017714571207761765
1761315352731935500,3.942935546875,-0.03542914241552353,0.046424392610788345,0.014049487188458443
1761315352750857200,3.961857177734375,-0.028098974376916885,0.03420744836330414,0.008551862090826035
1761315352769779200,3.980779296875,-0.01832541823387146,0.01710372418165207,0.0006108472589403391
1761315352788701000,3.999700927734375,-0.008551862090826035,0.0024433890357613564,-0.0006108472589403391
1761315352807622700,4.01862255859375,0.0012216945178806782,0.0006108472589403391,0.006108472589403391
1761315352826544600,4.037544677734375,0.004886778071522713,0.01832541823387146,0.01832541823387146
1761315352845466400,4.05646630859375,0.004275931045413017,0.03176405653357506,0.028098974376916885
1761315352864388000,4.07538818359375,-0.0024433890357613564,0.033596597611904144,0.03665083646774292
1761315352883310000,4.09431005859375,-0.01038440316915512,0.033596597611904144,0.0397050715982914
1761315352902231800,4.113231689453125,-0.012827792204916477,0.031153209507465363,0.03237490355968475
1761315352921153800,4.13215380859375,-0.009773556143045425,0.02870982140302658,0.02504473738372326
1761315352940075500,4.151075439453125,-0.009773556143045425,0.03665083646774292,0.022601349279284477
1761315352958997200,4.169997314453125,-0.010995250195264816,0.037261683493852615,0.020157959312200546
1761315352977919200,4.188919189453125,-0.014049487188458443,0.033596597611904144,0.021379653364419937
1761315352996841000,4.207841064453125,-0.014660334214568138,0.036039989441633224,0.018936265259981155
1761315353015763000,4.226762939453125,-0.014660334214568138,0.02993151545524597,0.007941014133393764
1761315353034684700,4.2456845703125,-0.01588202826678753,0.015271181240677834,-0.007330167107284069
1761315353053606400,4.2646064453125,-0.014660334214568138,0.0012216945178806782,-0.01954711228609085
1761315353072528400,4.2835283203125,-0.009773556143045425,-0.00916270911693573,-0.023212196305394173
1761315353091450000,4.3024501953125,-0.007941014133393764,-0.010995250195264816,-0.02076880633831024
1761315353110372000,4.3213720703125,-0.006719320081174374,-0.007941014133393764,-0.014049487188458443
1761315353129293800,4.3402939453125,-0.006719320081174374,-0.006719320081174374,-0.00916270911693573
1761315353148215600,4.359215576171875,-0.004275931045413017,-0.004275931045413017,-0.0036650835536420345
1761315353167137500,4.378137451171875,-0.0024433890357613564,-0.0012216945178806782,-0.0012216945178806782
1761315353186059300,4.397059326171875,-0.0030542362947016954,0.004886778071522713,0.0012216945178806782
1761315353204981200,4.415981201171875,-0.0018325417768210173,0.0024433890357613564,0.0012216945178806782
1761315353223903000,4.434903076171875,0.004275931045413017,-0.006719320081174374,0.0036650835536420345
1761315353242824700,4.45382470703125,0.00916270911693573,-0.006719320081174374,0.006719320081174374
1761315353261746700,4.47274658203125,0.013438640162348747,-0.0030542362947016954,0.006719320081174374
1761315353280668400,4.49166845703125,0.01710372418165207,-0.0024433890357613564,0.011606098152697086
1761315353299590400,4.51059033203125,0.017714571207761765,0.0012216945178806782,0.01710372418165207
1761315353318512000,4.52951220703125,0.015271181240677834,0.0006108472589403391,0.02076880633831024
1761315353337433900,4.548433837890625,0.013438640162348747,0.006108472589403391,0.024433890357613564
1761315353356355800,4.56735595703125,0.007941014133393764,0.007941014133393764,0.023823043331503868
1761315353375277600,4.586277587890625,0.0024433890357613564,0.013438640162348747,0.021990500390529633
1761315353394199600,4.605199462890625,0.0012216945178806782,0.009773556143045425,0.015271181240677834
1761315353413121300,4.624121337890625,0.0030542362947016954,0.009773556143045425,0.01038440316915512
1761315353432043000,4.64304296875,0.006108472589403391,0.009773556143045425,0.008551862090826035
1761315353450965000,4.661965087890625,0.007330167107284069,0.007330167107284069,0.011606098152697086
1761315353469886700,4.68088671875,0.006719320081174374,0.012827792204916477,0.01954711228609085
1761315353488808700,4.69980859375,0.0036650835536420345,0.018936265259981155,0.026877280324697495
1761315353507730400,4.71873046875,0.004886778071522713,0.021379653364419937,0.02993151545524597
1761315353526652200,4.737652099609375,0.006108472589403391,0.018936265259981155,0.03176405653357506
1761315353545574100,4.75657421875,0.00916270911693573,0.013438640162348747,0.030542362481355667
1761315353564496000,4.775495849609375,0.011606098152697086,0.008551862090826035,0.028098974376916885
1761315353583417900,4.79441796875,0.012827792204916477,0.007330167107284069,0.02626643143594265
1761315353602339600,4.813339599609375,0.009773556143045425,0.01588202826678753,0.026877280324697495
1761315353621261600,4.832261474609375,0.004275931045413017,0.01954711228609085,0.028098974376916885
1761315353640183300,4.851183349609375,0.0006108472589403391,0.011606098152697086,0.02748812735080719
1761315353659105000,4.87010498046875,-0.0012216945178806782,0.014049487188458443,0.02626643143594265
1761315353678027000,4.889027099609375,-0.0024433890357613564,0.01710372418165207,0.02076880633831024
1761315353696948700,4.90794873046875,-0.004275931045413017,0.022601349279284477,0.017714571207761765
1761315353715870700,4.92687060546875,-0.005497625097632408,0.023823043331503868,0.020157959312200546
1761315353734792400,4.94579248046875,-0.005497625097632408,0.020157959312200546,0.01954711228609085
1761315353753714400,4.96471435546875,-0.0030542362947016954,0.02076880633831024,0.02076880633831024
1761315353772636200,4.98363623046875,0,0.024433890357613564,0.02504473738372326
1761315353791558000,5.002557861328125,0.0006108472589403391,0.029320668429136276,0.029320668429136276
1761315353810479900,5.02147998046875,-0.0012216945178806782,0.02626643143594265,0.029320668429136276
1761315353829401600,5.040401611328125,-0.0006108472589403391,0.016492875292897224,0.022601349279284477
1761315353848323600,5.059323486328125,0.0006108472589403391,0.00916270911693573,0.015271181240677834
1761315353867245300,5.078245361328125,0.0018325417768210173,0.0012216945178806782,0.006719320081174374
1761315353886167000,5.0971669921875,0.004275931045413017,-0.0018325417768210173,-0.0006108472589403391
1761315353905089000,5.116089111328125,0.0030542362947016954,-0.004886778071522713,-0.006719320081174374
1761315353924010800,5.1350107421875,0.0024433890357613564,-0.004886778071522713,-0.006108472589403391
1761315353942932700,5.1539326171875,0.0012216945178806782,-0.0036650835536420345,0
1761315353961854500,5.1728544921875,0.0006108472589403391,0,0.0024433890357613564
1761315353980776400,5.1917763671875,-0.0006108472589403391,0.0036650835536420345,0.004275931045413017
1761315353999698200,5.2106982421875,-0.0024433890357613564,0.004886778071522713,0.006108472589403391
1761315354018620000,5.229619873046875,-0.004275931045413017,0.007330167107284069,0.006108472589403391
1761315354037542000,5.2485419921875,-0.0030542362947016954,0.00916270911693573,0.0018325417768210173
1761315354056463600,5.267463623046875,-0.0024433890357613564,0.007941014133393764,-0.0024433890357613564
1761315354075385600,5.286385498046875,-0.0006108472589403391,0.004886778071522713,-0.004886778071522713
1761315354094307300,5.305307373046875,-0.0012216945178806782,0.0018325417768210173,-0.004275931045413017
1761315354113229300,5.324229248046875,-0.0030542362947016954,0.004275931045413017,-0.0018325417768210173
1761315354132151000,5.343151123046875,-0.005497625097632408,0.007330167107284069,0.0006108472589403391
1761315354151072800,5.36207275390625,-0.0036650835536420345,0.009773556143045425,0.004275931045413017
1761315354169994800,5.380994873046875,-0.004275931045413017,0.012827792204916477,0.006108472589403391
1761315354188916500,5.39991650390625,-0.007330167107284069,0.012827792204916477,0.0024433890357613564
1761315354207838500,5.41883837890625,-0.009773556143045425,0.009773556143045425,0
1761315354226760200,5.43776025390625,-0.00916270911693573,0.009773556143045425,-0.0036650835536420345
1761315354245682200,5.45668212890625,-0.007941014133393764,0.006719320081174374,-0.006719320081174374
1761315354264604000,5.47560400390625,-0.007941014133393764,0.007941014133393764,-0.008551862090826035
1761315354283526000,5.49452587890625,-0.009773556143045425,0.006719320081174374,-0.007941014133393764
1761315354302447600,5.513447509765625,-0.012216945178806782,0.004275931045413017,-0.008551862090826035
1761315354321369300,5.532369384765625,-0.010995250195264816,-0.0006108472589403391,-0.009773556143045425
1761315354340291300,5.551291259765625,-0.004886778071522713,-0.006719320081174374,-0.011606098152697086
1761315354359213000,5.570213134765625,0.0036650835536420345,-0.013438640162348747,-0.012827792204916477
1761315354378135000,5.589135009765625,0.007330167107284069,-0.014049487188458443,-0.012216945178806782
1761315354397056800,5.608056884765625,0.007330167107284069,-0.012827792204916477,-0.008551862090826035
1761315354415978800,5.626978759765625,0.005497625097632408,-0.012827792204916477,-0.006108472589403391
1761315354434900500,5.645900390625,0.004886778071522713,-0.011606098152697086,-0.0030542362947016954
1761315354453822200,5.664822265625,0.0024433890357613564,-0.005497625097632408,0.0030542362947016954
1761315354472744200,5.683744140625,0.0012216945178806782,0.0012216945178806782,0.007941014133393764
1761315354491666000,5.702666015625,-0.0012216945178806782,0.01038440316915512,0.00916270911693573
1761315354510588000,5.721587890625,-0.0036650835536420345,0.01588202826678753,0.010995250195264816
1761315354529509600,5.740509521484375,-0.0036650835536420345,0.02076880633831024,0.012827792204916477
1761315354548431600,5.759431640625,-0.0030542362947016954,0.023212196305394173,0.014660334214568138
1761315354567353300,5.778353271484375,-0.0030542362947016954,0.028098974376916885,0.015271181240677834
1761315354586275000,5.797275146484375,-0.0024433890357613564,0.030542362481355667,0.015271181240677834
1761315354605197000,5.816197021484375,0,0.02626643143594265,0.018936265259981155
1761315354624118800,5.835118896484375,0.0006108472589403391,0.02504473738372326,0.023212196305394173
1761315354643040800,5.854040771484375,0.0012216945178806782,0.02626643143594265,0.02626643143594265
1761315354661962500,5.87296240234375,0.0018325417768210173,0.024433890357613564,0.025655584409832954
1761315354680884500,5.891884521484375,0.0030542362947016954,0.022601349279284477,0.023212196305394173
1761315354699806200,5.91080615234375,0.0012216945178806782,0.022601349279284477,0.02076880633831024
1761315354718728200,5.929728271484375,-0.0018325417768210173,0.018936265259981155,0.012216945178806782
1761315354737650000,5.94864990234375,-0.0018325417768210173,0.014049487188458443,0.005497625097632408
1761315354756571600,5.967571533203125,0,0.010995250195264816,0.0006108472589403391
1761315354775493600,5.98649365234375,0.0024433890357613564,0.00916270911693573,-0.0012216945178806782
1761315354794415400,6.005415283203125,0.0036650835536420345,0.00916270911693573,0.0012216945178806782
1761315354813337300,6.02433740234375,0.0030542362947016954,0.012216945178806782,0.006108472589403391
1761315354832259000,6.043259033203125,0.0018325417768210173,0.01710372418165207,0.014049487188458443
1761315354851181000,6.06218115234375,0.0012216945178806782,0.021379653364419937,0.021379653364419937
1761315354870102800,6.081102783203125,0.0018325417768210173,0.020157959312200546,0.023212196305394173
1761315354889024800,6.100024658203125,0.0024433890357613564,0.018936265259981155,0.01832541823387146
1761315354907946500,6.118946533203125,0.0018325417768210173,0.01710372418165207,0.013438640162348747
1761315354926868500,6.137868408203125,0.0030542362947016954,0.009773556143045425,0.00916270911693573
1761315354945790200,6.156790283203125,0.004275931045413017,0.006719320081174374,0.004886778071522713
1761315354964712000,6.1757119140625,0.0024433890357613564,0.007330167107284069,0.005497625097632408
1761315354983634000,6.194634033203125,0.004275931045413017,0.007330167107284069,0.00916270911693573
1761315355002555600,6.2135556640625,0.004886778071522713,0.007330167107284069,0.01038440316915512
1761315355021477600,6.2324775390625,0.006719320081174374,0.0036650835536420345,0.008551862090826035
1761315355040399400,6.2513994140625,0.008551862090826035,-0.0012216945178806782,0.008551862090826035
1761315355059321300,6.2703212890625,0.007941014133393764,-0.0030542362947016954,0.01038440316915512
1761315355078243000,6.2892431640625,0.010995250195264816,-0.0030542362947016954,0.012216945178806782
1761315355097165000,6.3081650390625,0.010995250195264816,-0.0012216945178806782,0.01588202826678753
1761315355116086800,6.327086669921875,0.010995250195264816,-0.0012216945178806782,0.013438640162348747
1761315355135008500,6.346008544921875,0.010995250195264816,0.0012216945178806782,0.009773556143045425
1761315355153930500,6.364930419921875,0.005497625097632408,-0.0012216945178806782,0.006108472589403391
1761315355172852200,6.383852294921875,-0.0006108472589403391,-0.0024433890357613564,0
1761315355191774200,6.402774169921875,-0.0012216945178806782,-0.00916270911693573,-0.007941014133393764
1761315355210696000,6.421696044921875,0,-0.009773556143045425,-0.010995250195264816
1761315355229618000,6.440617919921875,0,-0.0024433890357613564,-0.009773556143045425
1761315355248539600,6.45953955078125,-0.0018325417768210173,-0.0024433890357613564,-0.004275931045413017
1761315355267461600,6.478461669921875,-0.0012216945178806782,0,0.004275931045413017
1761315355286383400,6.49738330078125,0.0024433890357613564,0.006719320081174374,0.009773556143045425
1761315355305305300,6.516305419921875,0.004275931045413017,0.006719320081174374,0.009773556143045425
1761315355324227000,6.53522705078125,0.006108472589403391,0.006108472589403391,0.01038440316915512
1761315355343149000,6.554149169921875,0.004275931045413017,0.006719320081174374,0.014049487188458443
1761315355362070800,6.57307080078125,0.004886778071522713,0.00916270911693573,0.017714571207761765
1761315355380992800,6.59199267578125,0.007941014133393764,0.007941014133393764,0.018936265259981155
1761315355399914500,6.61091455078125,0.009773556143045425,0.010995250195264816,0.01954711228609085
1761315355418836200,6.629836181640625,0.01038440316915512,0.012216945178806782,0.014660334214568138
1761315355437758200,6.64875830078125,0.006719320081174374,0.010995250195264816,0.012827792204916477
1761315355456680000,6.667679931640625,0.0024433890357613564,0.007941014133393764,0.010995250195264816
1761315355475602000,6.686601806640625,-0.0006108472589403391,0.005497625097632408,0.007941014133393764
1761315355494523600,6.705523681640625,0,0.007330167107284069,0.006719320081174374
1761315355513445600,6.724445556640625,0.0024433890357613564,0.007941014133393764,0.0036650835536420345
1761315355532367400,6.743367431640625,0.0036650835536420345,0.007941014133393764,0.0018325417768210173
1761315355551289300,6.762289306640625,0.0024433890357613564,0.006719320081174374,0.004275931045413017
1761315355570211000,6.781211181640625,-0.0006108472589403391,0.0030542362947016954,0.006719320081174374
1761315355589133000,6.800133056640625,0,0.005497625097632408,0.007941014133393764
1761315355608054800,6.8190546875,0.0024433890357613564,0.008551862090826035,0.006108472589403391
1761315355626976500,6.8379765625,0.005497625097632408,0.005497625097632408,0.0036650835536420345
1761315355645899000,6.85689892578125,0.006719320081174374,0.0012216945178806782,0.0036650835536420345
1761315355664820700,6.87582080078125,0.006719320081174374,0.0036650835536420345,0.00916270911693573
1761315355683742700,6.89474267578125,0.004886778071522713,0.006719320081174374,0.014049487188458443
1761315355702664400,6.91366455078125,0.0030542362947016954,0.006719320081174374,0.016492875292897224
1761315355721586400,6.93258642578125,0.004275931045413017,0.0030542362947016954,0.014660334214568138
1761315355740508200,6.951508056640625,0.004275931045413017,0.006719320081174374,0.012216945178806782
1761315355759430100,6.97043017578125,0.0030542362947016954,0.0030542362947016954,0.004886778071522713
1761315355778351900,6.989351806640625,0.0018325417768210173,-0.0024433890357613564,0
1761315355797273900,7.00827392578125,0.0018325417768210173,-0.008551862090826035,-0.0012216945178806782
1761315355816195600,7.027195556640625,0.004886778071522713,-0.008551862090826035,-0.0006108472589403391
1761315355835117600,7.04611767578125,0.007330167107284069,-0.0006108472589403391,0.0024433890357613564
1761315355854039300,7.065039306640625,0.006719320081174374,0.0030542362947016954,0.00916270911693573
1761315355872961300,7.083961181640625,0.005497625097632408,0.004275931045413017,0.015271181240677834
1761315355891883000,7.102883056640625,0.007330167107284069,0.004886778071522713,0.017714571207761765
1761315355910805000,7.121804931640625,0.012216945178806782,0.012216945178806782,0.01954711228609085
1761315355929726700,7.140726806640625,0.012827792204916477,0.021990500390529633,0.023212196305394173
1761315355948648700,7.159648681640625,0.00916270911693573,0.02870982140302658,0.028098974376916885
1761315355967570400,7.1785703125,0.0030542362947016954,0.024433890357613564,0.030542362481355667
1761315355986492400,7.197492431640625,0,0.02076880633831024,0.02504473738372326
1761315356005414100,7.2164140625,0.0012216945178806782,0.01710372418165207,0.017714571207761765
1761315356024336000,7.2353359375,0.0012216945178806782,0.015271181240677834,0.011606098152697086
1761315356043257900,7.2542578125,0.0006108472589403391,0.01832541823387146,0.01038440316915512
1761315356062179600,7.2731796875,0.0012216945178806782,0.01710372418165207,0.011606098152697086
1761315356081101600,7.2921015625,0.0018325417768210173,0.01588202826678753,0.013438640162348747
1761315356100023300,7.311023193359375,0.0036650835536420345,0.012827792204916477,0.014049487188458443
1761315356118945300,7.3299453125,0.0036650835536420345,0.011606098152697086,0.014660334214568138
1761315356137867000,7.348866943359375,0.007330167107284069,0.01038440316915512,0.014049487188458443
1761315356156789000,7.3677890625,0.00916270911693573,0.012827792204916477,0.01710372418165207
1761315356175710700,7.386710693359375,0.007941014133393764,0.01038440316915512,0.01588202826678753
1761315356194632700,7.4056328125,0.006108472589403391,0.00916270911693573,0.015271181240677834
1761315356213554400,7.424554443359375,0.0036650835536420345,0.010995250195264816,0.012216945178806782
1761315356232476400,7.443476318359375,0.0030542362947016954,0.01038440316915512,0.006108472589403391
1761315356251398100,7.462398193359375,0.004275931045413017,0.008551862090826035,0.004275931045413017
1761315356270320000,7.481320068359375,0.0018325417768210173,0.010995250195264816,0.0012216945178806782
1761315356289241900,7.500241943359375,-0.004886778071522713,0.014660334214568138,-0.004275931045413017
1761315356308163800,7.519163818359375,-0.007941014133393764,0.010995250195264816,-0.008551862090826035
1761315356327085600,7.53808544921875,-0.007941014133393764,0.008551862090826035,-0.010995250195264816
1761315356346007300,7.55700732421875,-0.007330167107284069,0.006719320081174374,-0.01038440316915512
1761315356364929300,7.57592919921875,-0.006108472589403391,-0.0012216945178806782,-0.006108472589403391
1761315356383851000,7.59485107421875,-0.0024433890357613564,-0.0030542362947016954,-0.0006108472589403391
1761315356402773000,7.61377294921875,0,0.0030542362947016954,0.0030542362947016954
1761315356421694700,7.63269482421875,0,0.00916270911693573,0.009773556143045425
1761315356440616700,7.65161669921875,0.0024433890357613564,0.00916270911693573,0.01710372418165207
1761315356459538400,7.670538330078125,0.005497625097632408,0.0018325417768210173,0.01710372418165207
1761315356478460400,7.68946044921875,0.005497625097632408,0.004275931045413017,0.016492875292897224
1761315356497382100,7.708382080078125,0.0030542362947016954,0.007941014133393764,0.014049487188458443
1761315356516304100,7.72730419921875,-0.0012216945178806782,0.006719320081174374,0.01038440316915512
1761315356535225900,7.746225830078125,-0.004275931045413017,0.013438640162348747,0.0036650835536420345
1761315356554147800,7.76514794921875,-0.007941014133393764,0.01954711228609085,0.0012216945178806782
1761315356573069600,7.784069580078125,-0.011606098152697086,0.017714571207761765,0.0024433890357613564
1761315356591991600,7.802991455078125,-0.015271181240677834,0.01588202826678753,0.008551862090826035
1761315356610913300,7.821913330078125,-0.010995250195264816,0.017714571207761765,0.011606098152697086
1761315356629835000,7.8408349609375,-0.0012216945178806782,0.01954711228609085,0.012216945178806782
1761315356648757000,7.859757080078125,0.006108472589403391,0.022601349279284477,0.017714571207761765
1761315356667678700,7.8786787109375,0.007941014133393764,0.017714571207761765,0.021990500390529633
1761315356686600700,7.8976005859375,0.006719320081174374,0.01038440316915512,0.022601349279284477
1761315356705522400,7.9165224609375,0.006719320081174374,0.00916270911693573,0.02076880633831024
1761315356724444400,7.9354443359375,0.005497625097632408,0.006108472589403391,0.01954711228609085
1761315356743366100,7.9543662109375,0.004886778071522713,0.00916270911693573,0.018936265259981155
1761315356762288000,7.9732880859375,0.0024433890357613564,0.012216945178806782,0.01588202826678753
1761315356781209900,7.9922099609375,0,0.008551862090826035,0.012216945178806782
1761315356800131800,8.0111318359375,-0.004886778071522713,0.008551862090826035,0.008551862090826035
1761315356819053600,8.030053466796875,-0.009773556143045425,0.012827792204916477,0.0030542362947016954
1761315356837975600,8.0489755859375,-0.010995250195264816,0.014660334214568138,-0.0006108472589403391
1761315356856897300,8.067897216796876,-0.008551862090826035,0.014049487188458443,-0.0018325417768210173
1761315356875819300,8.0868193359375,-0.006108472589403391,0.009773556143045425,-0.0006108472589403391
1761315356894741000,8.105740966796875,-0.005497625097632408,0.014660334214568138,0.0036650835536420345
1761315356913663000,8.1246630859375,-0.004275931045413017,0.007330167107284069,0.004886778071522713
1761315356932584700,8.143584716796875,0,0.005497625097632408,0.008551862090826035
1761315356951506700,8.162506591796875,0.005497625097632408,0.0036650835536420345,0.007330167107284069
1761315356970428400,8.181428466796875,0.007941014133393764,0.004275931045413017,0.005497625097632408
1761315356989350400,8.200350341796875,0.006719320081174374,0.0024433890357613564,0.004275931045413017
1761315357008272100,8.219272216796876,0.004275931045413017,-0.0024433890357613564,0.0030542362947016954
1761315357027193900,8.23819384765625,0.004275931045413017,-0.005497625097632408,0.0006108472589403391
1761315357046115800,8.25711572265625,0.004275931045413017,-0.0024433890357613564,0.0006108472589403391
1761315357065037600,8.27603759765625,0.0036650835536420345,0.0024433890357613564,0.0006108472589403391
1761315357083959600,8.29495947265625,0.0024433890357613564,0.005497625097632408,0.0018325417768210173
1761315357102881300,8.31388134765625,0.0012216945178806782,0.00916270911693573,0.004886778071522713
1761315357121803300,8.33280322265625,0.0012216945178806782,0.012216945178806782,0.00916270911693573
1761315357140725000,8.35172509765625,-0.0006108472589403391,0.012827792204916477,0.010995250195264816
1761315357159647000,8.37064697265625,-0.0012216945178806782,0.012216945178806782,0.009773556143045425
1761315357178568700,8.389568603515626,-0.0030542362947016954,0.010995250195264816,0.007330167107284069
1761315357197490700,8.40849072265625,-0.0030542362947016954,0.011606098152697086,0.004275931045413017
1761315357216412400,8.427412353515624,-0.0024433890357613564,0.004275931045413017,0.0012216945178806782
1761315357235334400,8.44633447265625,0.0024433890357613564,-0.0024433890357613564,0
1761315357254256000,8.465256103515625,0.006108472589403391,-0.0006108472589403391,0
1761315357273178000,8.48417822265625,0.01038440316915512,0.0036650835536420345,0.004886778071522713
1761315357292099800,8.503099853515625,0.014049487188458443,0.006108472589403391,0.012216945178806782
1761315357311021600,8.522021484375,0.012827792204916477,0.0036650835536420345,0.018936265259981155
1761315357329943600,8.540943603515625,0.01038440316915512,0.007941014133393764,0.02504473738372326
1761315357348865300,8.559865234375,0.008551862090826035,0.013438640162348747,0.025655584409832954
1761315357367787300,8.578787353515626,0.004275931045413017,0.012216945178806782,0.021379653364419937
1761315357386709000,8.597708984375,0.0036650835536420345,0.006108472589403391,0.015271181240677834
1761315357405631000,8.616630859375,0.007941014133393764,0.007941014133393764,0.009773556143045425
1761315357424552700,8.635552734375,0.009773556143045425,0.007941014133393764,0.006719320081174374
1761315357443474700,8.654474609375,0.01038440316915512,0.0030542362947016954,0.008551862090826035
1761315357462396400,8.673396484375,0.00916270911693573,0.0036650835536420345,0.015271181240677834
1761315357481318400,8.692318359375,0.010995250195264816,0.008551862090826035,0.02076880633831024
1761315357500240100,8.711240234375,0.015271181240677834,0.0012216945178806782,0.021990500390529633
1761315357519162000,8.730162109375,0.017714571207761765,0.004275931045413017,0.02504473738372326
1761315357538083800,8.749083740234376,0.01710372418165207,0.0018325417768210173,0.02076880633831024
1761315357557005800,8.768005859375,0.016492875292897224,-0.0030542362947016954,0.01710372418165207
1761315357575927600,8.786927490234374,0.015271181240677834,0,0.017714571207761765
1761315357594849300,8.805849365234375,0.012827792204916477,0.0012216945178806782,0.015271181240677834
1761315357613771300,8.824771240234375,0.011606098152697086,0.004275931045413017,0.014049487188458443
1761315357632693000,8.84369287109375,0.010995250195264816,0.0018325417768210173,0.012216945178806782
1761315357651615000,8.862614990234375,0.009773556143045425,0,0.012216945178806782
1761315357670536700,8.88153662109375,0.01038440316915512,0.0018325417768210173,0.014660334214568138
1761315357689458700,8.900458740234376,0.012216945178806782,0.009773556143045425,0.020157959312200546
1761315357708380400,8.91938037109375,0.012827792204916477,0.016492875292897224,0.023823043331503868
1761315357727302400,8.938302490234374,0.012216945178806782,0.016492875292897224,0.023823043331503868
1761315357746224000,8.95722412109375,0.012827792204916477,0.01038440316915512,0.025655584409832954
1761315357765146000,8.97614599609375,0.013438640162348747,0.01038440316915512,0.023212196305394173
1761315357784067800,8.99506787109375,0.012827792204916477,0.004886778071522713,0.02076880633831024
1761315357802989800,9.01398974609375,0.011606098152697086,0.0012216945178806782,0.016492875292897224
1761315357821911600,9.03291162109375,0.00916270911693573,-0.0036650835536420345,0.011606098152697086
1761315357840833500,9.05183349609375,0.00916270911693573,-0.007330167107284069,0.008551862090826035
1761315357859755300,9.07075537109375,0.009773556143045425,-0.004886778071522713,0.007330167107284069
1761315357878677000,9.089677001953126,0.007941014133393764,-0.0012216945178806782,0.0036650835536420345
1761315357897599000,9.108598876953126,0.004886778071522713,0.0006108472589403391,0.004275931045413017
1761315357916520700,9.127520751953124,0.006108472589403391,0.0018325417768210173,0.00916270911693573
1761315357935442700,9.146442626953124,0.007330167107284069,0.010995250195264816,0.013438640162348747
1761315357954364400,9.165364501953125,0.00916270911693573,0.015271181240677834,0.01832541823387146
1761315357973286400,9.184286376953125,0.004886778071522713,0.021990500390529633,0.02504473738372326
1761315357992208100,9.2032080078125,0.0030542362947016954,0.023823043331503868,0.02504473738372326
1761315358011130000,9.222130126953125,0.0030542362947016954,0.01954711228609085,0.024433890357613564
1761315358030051800,9.2410517578125,0.005497625097632408,0.016492875292897224,0.022601349279284477
1761315358048973800,9.259973876953126,0.008551862090826035,0.01588202826678753,0.018936265259981155
1761315358067895600,9.2788955078125,0.007941014133393764,0.010995250195264816,0.016492875292897224
1761315358086817500,9.297817626953124,0.006108472589403391,0.008551862090826035,0.015271181240677834
1761315358105739300,9.3167392578125,0.0036650835536420345,0.008551862090826035,0.013438640162348747
1761315358124661000,9.335660888671875,0.004886778071522713,0.007330167107284069,0.012216945178806782
1761315358143583000,9.3545830078125,0.004275931045413017,0.009773556143045425,0.01588202826678753
1761315358162504700,9.373504638671875,0.0036650835536420345,0.01038440316915512,0.013438640162348747
1761315358181426700,9.3924267578125,0.0036650835536420345,0.01038440316915512,0.012216945178806782
1761315358200348400,9.411348388671875,0.004275931045413017,0.016492875292897224,0.013438640162348747
1761315358219270400,9.4302705078125,0.0006108472589403391,0.018936265259981155,0.013438640162348747
1761315358238192000,9.449192138671876,-0.0012216945178806782,0.017714571207761765,0.012827792204916477
1761315358257114000,9.468114013671874,-0.0006108472589403391,0.01588202826678753,0.011606098152697086
1761315358276035800,9.487035888671874,0.0012216945178806782,0.008551862090826035,0.01038440316915512
1761315358294957800,9.505957763671875,0.0018325417768210173,0.015271181240677834,0.013438640162348747
1761315358313879600,9.524879638671875,0.0006108472589403391,0.01832541823387146,0.014049487188458443
1761315358332801500,9.543801513671875,-0.0012216945178806782,0.021379653364419937,0.01588202826678753
1761315358351723300,9.56272314453125,0,0.014660334214568138,0.015271181240677834
1761315358370645200,9.581645263671875,0,0.012827792204916477,0.014660334214568138
1761315358389567000,9.60056689453125,-0.0018325417768210173,0.012827792204916477,0.01038440316915512
1761315358408488700,9.61948876953125,-0.0018325417768210173,0.014049487188458443,0.004275931045413017
1761315358427410700,9.63841064453125,-0.0018325417768210173,0.010995250195264816,0.0018325417768210173
1761315358446332400,9.65733251953125,-0.0024433890357613564,0.006719320081174374,0.0012216945178806782
1761315358465254400,9.67625439453125,-0.004275931045413017,0.006719320081174374,0.0024433890357613564
1761315358484176100,9.695176025390625,-0.0024433890357613564,0.004886778071522713,0.0018325417768210173
1761315358503098000,9.71409814453125,-0.0012216945178806782,0.005497625097632408,0.0036650835536420345
1761315358522019800,9.733019775390625,-0.0006108472589403391,0.007330167107284069,0.004275931045413017
1761315358540941800,9.75194189453125,-0.0006108472589403391,0.006719320081174374,0.004275931045413017
1761315358559863600,9.770863525390626,-0.0012216945178806782,0.007941014133393764,0.004886778071522713
1761315358578785300,9.789785400390626,-0.0024433890357613564,0.005497625097632408,0.0024433890357613564
1761315358597707300,9.808707275390624,-0.0018325417768210173,0.0012216945178806782,-0.0024433890357613564
1761315358616629000,9.82762890625,0,-0.004275931045413017,-0.007941014133393764
1761315358635551000,9.846551025390625,-0.0006108472589403391,-0.007330167107284069,-0.011606098152697086
1761315358654472700,9.86547265625,-0.0012216945178806782,-0.006108472589403391,-0.009773556143045425
1761315358673394700,9.884394775390625,-0.0018325417768210173,-0.004275931045413017,-0.005497625097632408
1761315358692316400,9.90331640625,-0.0012216945178806782,0.004886778071522713,0
1761315358711238400,9.92223828125,-0.0024433890357613564,0.00916270911693573,0.004275931045413017
1761315358730160000,9.94116015625,-0.0024433890357613564,0.008551862090826035,0.0024433890357613564
1761315358749082000,9.96008203125,-0.0024433890357613564,0.004275931045413017,0.0018325417768210173
1761315358768003800,9.97900390625,-0.0024433890357613564,0.006719320081174374,0.0006108472589403391
1761315358786925800,9.99792578125,-0.0030542362947016954,0.004886778071522713,0.0006108472589403391
1761315358805847600,10.01684765625,-0.0006108472589403391,0.006719320081174374,0.0024433890357613564
1761315358824769300,10.035769287109375,0.0012216945178806782,0.014049487188458443,0.007330167107284069
1761315358843691300,10.054691162109375,0.0006108472589403391,0.01588202826678753,0.008551862090826035
1761315358862613000,10.073613037109375,-0.0012216945178806782,0.015271181240677834,0.011606098152697086
1761315358881535000,10.092534912109375,-0.0006108472589403391,0.011606098152697086,0.012827792204916477
1761315358900456700,10.111456787109375,-0.0012216945178806782,0.016492875292897224,0.012216945178806782
1761315358919378700,10.130378662109376,-0.0030542362947016954,0.021990500390529633,0.012216945178806782
1761315358938300400,10.149300537109376,-0.004275931045413017,0.021990500390529633,0.012216945178806782
1761315358957222100,10.16822216796875,-0.004886778071522713,0.018936265259981155,0.010995250195264816
1761315358976144100,10.18714404296875,-0.0036650835536420345,0.016492875292897224,0.007330167107284069
1761315358995065900,10.20606591796875,-0.0006108472589403391,0.012216945178806782,0.005497625097632408
1761315359013987800,10.22498779296875,0.0006108472589403391,0.014049487188458443,0.005497625097632408
1761315359032909600,10.24390966796875,-0.0006108472589403391,0.015271181240677834,0.006108472589403391
1761315359051831600,10.26283154296875,0.0006108472589403391,0.01038440316915512,0.006108472589403391
1761315359070753300,10.281753173828125,0.0030542362947016954,0.0036650835536420345,0.007330167107284069
1761315359089675300,10.30067529296875,0.004275931045413017,0.0012216945178806782,0.006108472589403391
1761315359108597000,10.319596923828126,0.0030542362947016954,-0.0006108472589403391,0.0030542362947016954
1761315359127519000,10.33851904296875,0.0030542362947016954,0,0.0018325417768210173
1761315359146440700,10.357440673828124,0.0036650835536420345,-0.004275931045413017,-0.0012216945178806782
1761315359165362400,10.376362548828125,0.0030542362947016954,-0.004886778071522713,-0.0018325417768210173
1761315359184284400,10.395284423828125,0.0030542362947016954,-0.006108472589403391,-0.0024433890357613564
1761315359203206100,10.4142060546875,0.0018325417768210173,-0.0036650835536420345,0
1761315359222128000,10.433128173828125,-0.0006108472589403391,0.006108472589403391,0.006108472589403391
1761315359241049900,10.4520498046875,-0.004275931045413017,0.01038440316915512,0.006108472589403391
1761315359259971800,10.470971923828126,-0.006108472589403391,0.010995250195264816,0.007330167107284069
1761315359278893600,10.4898935546875,-0.004275931045413017,0.015271181240677834,0.01038440316915512
1761315359297815600,10.508815673828124,-0.0030542362947016954,0.013438640162348747,0.007941014133393764
1761315359316737300,10.5277373046875,-0.0012216945178806782,0.0030542362947016954,0.0024433890357613564
1761315359335659000,10.546658935546875,0.0006108472589403391,0,0.006108472589403391
1761315359354581000,10.5655810546875,-0.0018325417768210173,0.0036650835536420345,0.007941014133393764
1761315359373502700,10.584502685546875,-0.006108472589403391,0.007941014133393764,0.008551862090826035
1761315359392424700,10.6034248046875,-0.006108472589403391,0.00916270911693573,0.006108472589403391
1761315359411346400,10.622346435546875,-0.004275931045413017,0.00916270911693573,0.004886778071522713
1761315359430268400,10.641268310546875,-0.0036650835536420345,0.004275931045413017,0.005497625097632408
1761315359449190100,10.660190185546876,-0.004886778071522713,0.005497625097632408,0.004886778071522713
1761315359468112000,10.67911181640625,-0.006108472589403391,0.009773556143045425,0.006108472589403391
1761315359487033900,10.698033935546874,-0.006719320081174374,0.012216945178806782,0.01038440316915512
1761315359505955600,10.71695556640625,-0.007941014133393764,0.01710372418165207,0.01038440316915512
1761315359524877600,10.735877685546875,-0.008551862090826035,0.010995250195264816,0.006719320081174374
1761315359543799300,10.75479931640625,-0.005497625097632408,0.0030542362947016954,0.0006108472589403391
1761315359562721300,10.77372119140625,-0.0024433890357613564,-0.00916270911693573,-0.007941014133393764
1761315359581643000,10.79264306640625,-0.0006108472589403391,-0.02076880633831024,-0.013438640162348747
1761315359600564700,10.811564697265625,0.0024433890357613564,-0.02076880633831024,-0.014049487188458443
1761315359619486700,10.83048681640625,0.0036650835536420345,-0.023823043331503868,-0.01710372418165207
1761315359638408400,10.849408447265626,0.0018325417768210173,-0.02993151545524597,-0.01588202826678753
1761315359657330400,10.868330322265624,0.0012216945178806782,-0.030542362481355667,-0.012216945178806782
1761315359676252200,10.887252197265624,0.0018325417768210173,-0.02748812735080719,-0.011606098152697086
1761315359695174100,10.906174072265625,0.0018325417768210173,-0.023212196305394173,-0.01038440316915512
1761315359714095900,10.925095947265625,0,-0.014049487188458443,-0.007330167107284069
1761315359733017600,10.944017578125,-0.004886778071522713,-0.006108472589403391,-0.0024433890357613564
1761315359751939600,10.962939697265625,-0.01038440316915512,0.004886778071522713,0.0012216945178806782
1761315359770861300,10.981861328125,-0.012216945178806782,0.01588202826678753,0.004275931045413017
1761315359789783300,11.000783203125,-0.014049487188458443,0.02076880633831024,0.007330167107284069
1761315359808705000,11.019705078125,-0.012827792204916477,0.021990500390529633,0.006719320081174374
1761315359827627000,11.038626953125,-0.00916270911693573,0.023823043331503868,0.004275931045413017
1761315359846548700,11.057548828125,-0.005497625097632408,0.01832541823387146,0.006108472589403391
1761315359865470700,11.076470703125,-0.004275931045413017,0.01832541823387146,0.012827792204916477
1761315359884392400,11.095392333984375,-0.0030542362947016954,0.025655584409832954,0.020157959312200546
1761315359903314200,11.114314208984375,-0.0018325417768210173,0.02870982140302658,0.025655584409832954
1761315359922236200,11.133236083984375,-0.0006108472589403391,0.033596597611904144,0.030542362481355667
1761315359941158000,11.152157958984375,0.0030542362947016954,0.031153209507465363,0.030542362481355667
1761315359960080000,11.171079833984376,0.0036650835536420345,0.028098974376916885,0.02993151545524597
1761315359979001600,11.190001708984376,0.0030542362947016954,0.029320668429136276,0.02626643143594265
1761315359997923600,11.208923583984374,0.0012216945178806782,0.028098974376916885,0.022601349279284477
1761315360016845300,11.22784521484375,0.0018325417768210173,0.02870982140302658,0.021379653364419937
1761315360035767000,11.24676708984375,0.0036650835536420345,0.022601349279284477,0.01710372418165207
1761315360054689000,11.26568896484375,0.006719320081174374,0.014660334214568138,0.011606098152697086
1761315360073610800,11.28461083984375,0.007941014133393764,0.006719320081174374,0.006108472589403391
1761315360092532700,11.30353271484375,0.007941014133393764,-0.0024433890357613564,0.0030542362947016954
1761315360111454500,11.322454345703125,0.00916270911693573,-0.011606098152697086,0
1761315360130376400,11.34137646484375,0.009773556143045425,-0.013438640162348747,-0.0006108472589403391
1761315360149298200,11.360298095703126,0.01038440316915512,-0.015271181240677834,-0.0030542362947016954
1761315360168220000,11.379219970703126,0.00916270911693573,-0.010995250195264816,-0.0036650835536420345
1761315360187142000,11.398141845703124,0.008551862090826035,-0.01038440316915512,-0.004275931045413017
1761315360206063600,11.417063720703124,0.007330167107284069,-0.008551862090826035,-0.0024433890357613564
1761315360224985600,11.435985595703125,0.006719320081174374,-0.004886778071522713,0.0024433890357613564
1761315360243907300,11.4549072265625,0.008551862090826035,0.0006108472589403391,0.007330167107284069
1761315360262829300,11.473829345703125,0.011606098152697086,0.004275931045413017,0.009773556143045425
1761315360281751000,11.4927509765625,0.012827792204916477,0.009773556143045425,0.01588202826678753
1761315360300672800,11.5116728515625,0.014660334214568138,0.011606098152697086,0.01832541823387146
1761315360319594800,11.5305947265625,0.013438640162348747,0.010995250195264816,0.021379653364419937
1761315360338516500,11.5495166015625,0.010995250195264816,0.012216945178806782,0.022601349279284477
1761315360357438500,11.5684384765625,0.00916270911693573,0.014049487188458443,0.022601349279284477
1761315360376360200,11.587360107421874,0.009773556143045425,0.01588202826678753,0.022601349279284477
1761315360395282000,11.606281982421875,0.01038440316915512,0.017714571207761765,0.022601349279284477
1761315360414204000,11.625203857421875,0.01038440316915512,0.017714571207761765,0.024433890357613564
1761315360433125600,11.644125732421875,0.006719320081174374,0.026877280324697495,0.028098974376916885
1761315360452047600,11.663047607421875,0.007330167107284069,0.02504473738372326,0.029320668429136276
1761315360470969300,11.68196923828125,0.007330167107284069,0.022601349279284477,0.03176405653357506
1761315360489891000,11.70089111328125,0.006719320081174374,0.03420744836330414,0.03298575058579445
1761315360508813000,11.71981298828125,0.0036650835536420345,0.05070032179355621,0.03542914241552353
1761315360527734800,11.73873486328125,-0.0006108472589403391,0.04825693368911743,0.03298575058579445
1761315360546656800,11.75765673828125,-0.0030542362947016954,0.04337015375494957,0.03298575058579445
1761315360565578500,11.77657861328125,-0.0006108472589403391,0.03542914241552353,0.030542362481355667
1761315360584500500,11.79550048828125,0.0012216945178806782,0.02993151545524597,0.023212196305394173
1761315360603422200,11.814422119140625,0.0018325417768210173,0.023212196305394173,0.01832541823387146
1761315360622344000,11.833343994140625,0.0036650835536420345,0.012827792204916477,0.012216945178806782
1761315360641266000,11.852265869140625,0.004275931045413017,0.0036650835536420345,0.006719320081174374
1761315360660187600,11.871187744140625,0.006719320081174374,-0.0018325417768210173,0.007330167107284069
1761315360679109400,11.890109375,0.00916270911693573,-0.0036650835536420345,0.006108472589403391
1761315360698031400,11.90903125,0.009773556143045425,-0.006719320081174374,0.007330167107284069
1761315360716953000,11.927953125,0.009773556143045425,-0.0030542362947016954,0.007330167107284069
1761315360735875000,11.946875,0.00916270911693573,-0.0006108472589403391,0.005497625097632408
1761315360754796800,11.965796875,0.00916270911693573,-0.0006108472589403391,0.004886778071522713
1761315360773718800,11.98471875,0.006719320081174374,0.0024433890357613564,0.008551862090826035
1761315360792640500,12.003640625,0.004886778071522713,0.007941014133393764,0.013438640162348747
1761315360811562200,12.022562255859375,0.006108472589403391,0.013438640162348747,0.017714571207761765
1761315360830484200,12.041484130859375,0.004886778071522713,0.023212196305394173,0.021990500390529633
1761315360849406000,12.060406005859376,0.004275931045413017,0.026877280324697495,0.02504473738372326
1761315360868328000,12.079327880859376,0.0030542362947016954,0.024433890357613564,0.026877280324697495
1761315360887249700,12.098249755859374,0.0024433890357613564,0.024433890357613564,0.026877280324697495
1761315360906171600,12.117171630859374,0.0036650835536420345,0.021990500390529633,0.024433890357613564
1761315360925093400,12.13609326171875,0.0030542362947016954,0.021379653364419937,0.023212196305394173
1761315360944015000,12.15501513671875,0.0018325417768210173,0.01954711228609085,0.02076880633831024
1761315360962937000,12.17393701171875,0.0024433890357613564,0.01710372418165207,0.01832541823387146
1761315360981858800,12.19285888671875,0.005497625097632408,0.009773556143045425,0.009773556143045425
1761315361000780800,12.21178076171875,0.006108472589403391,0.004275931045413017,0.007941014133393764
1761315361019702500,12.23070263671875,0.0030542362947016954,0.004886778071522713,0.007330167107284069
1761315361038624300,12.249624267578126,-0.0006108472589403391,0.004275931045413017,0.0036650835536420345
1761315361057546200,12.268546142578124,0.0012216945178806782,-0.0024433890357613564,0
1761315361076468000,12.287468017578124,0.005497625097632408,-0.004886778071522713,-0.0006108472589403391
1761315361095389700,12.3063896484375,0.007330167107284069,-0.0024433890357613564,0.0018325417768210173
1761315361114311700,12.325311767578125,0.007330167107284069,-0.0018325417768210173,0.0030542362947016954
1761315361133233400,12.3442333984375,0.006108472589403391,-0.0006108472589403391,0.004886778071522713
1761315361152155400,12.3631552734375,0.006108472589403391,0.0018325417768210173,0.007941014133393764
1761315361171077000,12.3820771484375,0.006108472589403391,0.0018325417768210173,0.007941014133393764
1761315361189999000,12.4009990234375,0.006108472589403391,0.0024433890357613564,0.007941014133393764
1761315361208920800,12.4199208984375,0.0030542362947016954,0.004275931045413017,0.006108472589403391
1761315361227842600,12.438842529296876,0.0024433890357613564,0.004886778071522713,0.004886778071522713
1761315361246764500,12.4577646484375,0,0.005497625097632408,0.004275931045413017
1761315361265686300,12.476686279296874,-0.0006108472589403391,0.007941014133393764,0.0030542362947016954
1761315361284608300,12.495608154296875,0.0006108472589403391,0.004886778071522713,0.0018325417768210173
1761315361303530000,12.514530029296875,-0.0024433890357613564,0.006719320081174374,0.004275931045413017
1761315361322451700,12.53345166015625,-0.0030542362947016954,0.010995250195264816,0.006108472589403391
1761315361341373700,12.552373779296875,-0.0018325417768210173,0.014049487188458443,0.007941014133393764
1761315361360295400,12.57129541015625,0,0.017714571207761765,0.008551862090826035
1761315361379217200,12.590217041015626,0,0.01710372418165207,0.009773556143045425
1761315361398139100,12.60913916015625,-0.0012216945178806782,0.01710372418165207,0.010995250195264816
1761315361417060900,12.628060791015624,-0.0024433890357613564,0.01588202826678753,0.01038440316915512
1761315361435982800,12.64698291015625,-0.0030542362947016954,0.016492875292897224,0.01038440316915512
1761315361454904600,12.665904541015625,-0.0024433890357613564,0.01588202826678753,0.00916270911693573
1761315361473826300,12.684826416015625,-0.0030542362947016954,0.016492875292897224,0.008551862090826035
1761315361492748300,12.703748291015625,-0.0036650835536420345,0.016492875292897224,0.008551862090826035
1761315361511670000,12.722669921875,-0.0012216945178806782,0.014660334214568138,0.006719320081174374
1761315361530592000,12.741592041015625,0.0012216945178806782,0.015271181240677834,0.007330167107284069
1761315361549513700,12.760513671875,0.0024433890357613564,0.020157959312200546,0.007941014133393764
1761315361568435700,12.779435791015626,-0.0012216945178806782,0.021379653364419937,0.006719320081174374
1761315361587357400,12.798357421875,-0.0036650835536420345,0.01588202826678753,0.005497625097632408
1761315361606279200,12.817279052734374,-0.0030542362947016954,0.012216945178806782,0.0030542362947016954
1761315361625201200,12.836201171875,0,0.007330167107284069,0
1761315361644123000,12.855122802734375,-0.0018325417768210173,0.006108472589403391,-0.0018325417768210173
1761315361663044600,12.874044677734375,-0.0024433890357613564,0.00916270911693573,0.0018325417768210173
1761315361681966600,12.892966552734375,-0.0006108472589403391,0.005497625097632408,-0.0018325417768210173
1761315361700888300,12.911888427734375,0.0030542362947016954,0.0030542362947016954,-0.0018325417768210173
1761315361719810000,12.93081005859375,0.0030542362947016954,0.004275931045413017,0.0024433890357613564
1761315361738732000,12.94973193359375,-0.0006108472589403391,0.0036650835536420345,0.0036650835536420345
1761315361757653800,12.96865380859375,-0.0030542362947016954,0.007330167107284069,0.004275931045413017
1761315361776575700,12.98757568359375,-0.0012216945178806782,0.006108472589403391,0.0018325417768210173
1761315361795497500,13.00649755859375,0.0012216945178806782,0.004275931045413017,0.0024433890357613564
1761315361814419500,13.02541943359375,0.0024433890357613564,0.007941014133393764,0.0030542362947016954
1761315361833341200,13.044341064453125,0.0018325417768210173,0.007330167107284069,0.0012216945178806782
1761315361852263000,13.063262939453125,0.0006108472589403391,0.004275931045413017,0
1761315361871185000,13.082184814453125,-0.0006108472589403391,0.006108472589403391,0.0024433890357613564
1761315361890106600,13.101106689453125,0,0.0018325417768210173,0.0006108472589403391
1761315361909028400,13.1200283203125,0.0006108472589403391,0.0012216945178806782,0.0018325417768210173
1761315361927950300,13.138950439453126,0.0024433890357613564,0.007330167107284069,0.004886778071522713
1761315361946872000,13.1578720703125,0.0030542362947016954,0.007941014133393764,0.004886778071522713
1761315361965794000,13.1767939453125,0.0030542362947016954,0.004886778071522713,0.006108472589403391
1761315361984715800,13.1957158203125,0.0030542362947016954,0.005497625097632408,0.01038440316915512
1761315362003637500,13.214637451171875,0.0030542362947016954,0.007941014133393764,0.012216945178806782
1761315362022559500,13.2335595703125,0.0012216945178806782,0.01038440316915512,0.011606098152697086
1761315362041481200,13.252481201171875,0.0018325417768210173,0.01038440316915512,0.009773556143045425
1761315362060403200,13.2714033203125,0.004886778071522713,0.012827792204916477,0.009773556143045425
1761315362079325000,13.290324951171876,0.005497625097632408,0.02076880633831024,0.012216945178806782
1761315362098246700,13.30924658203125,0.0024433890357613564,0.024433890357613564,0.01038440316915512
1761315362117168600,13.328168701171874,0.0012216945178806782,0.023212196305394173,0.006108472589403391
1761315362136090400,13.34709033203125,0.0036650835536420345,0.01832541823387146,0.0006108472589403391
1761315362155012000,13.36601220703125,0.009773556143045425,0.01588202826678753,-0.004886778071522713
1761315362173934000,13.38493408203125,0.012827792204916477,0.01038440316915512,-0.006108472589403391
1761315362192855800,13.403855712890625,0.013438640162348747,0.0030542362947016954,-0.0036650835536420345
1761315362211777800,13.42277783203125,0.013438640162348747,0.0012216945178806782,-0.0024433890357613564
1761315362230699500,13.441699462890625,0.014660334214568138,-0.0012216945178806782,-0.0024433890357613564
1761315362249621200,13.460621337890625,0.016492875292897224,-0.0024433890357613564,0
1761315362268543200,13.479543212890626,0.016492875292897224,-0.0006108472589403391,0.004275931045413017
1761315362287465000,13.49846484375,0.013438640162348747,0.0012216945178806782,0.007330167107284069
1761315362306387000,13.517386962890624,0.010995250195264816,0.0012216945178806782,0.006719320081174374
1761315362325308700,13.53630859375,0.00916270911693573,0.0036650835536420345,0.0036650835536420345
1761315362344230400,13.55523046875,0.006719320081174374,0.006719320081174374,0.0018325417768210173
1761315362363152400,13.57415234375,0.004886778071522713,0.006108472589403391,0.0036650835536420345
1761315362382074000,13.59307421875,0.004275931045413017,0.007330167107284069,0.005497625097632408
1761315362400995800,13.611995849609375,0.0036650835536420345,0.00916270911693573,0.006108472589403391
1761315362419917800,13.630917724609375,0.005497625097632408,0.009773556143045425,0.005497625097632408
1761315362438839600,13.649839599609376,0.006719320081174374,0.010995250195264816,0.007941014133393764
1761315362457761500,13.668761474609376,0.006719320081174374,0.011606098152697086,0.00916270911693573
1761315362476683300,13.687683349609374,0.004886778071522713,0.013438640162348747,0.01038440316915512
1761315362495605000,13.70660498046875,0.0024433890357613564,0.011606098152697086,0.007330167107284069
1761315362514527000,13.72552685546875,0.0012216945178806782,0.004886778071522713,0.005497625097632408
1761315362533448700,13.74444873046875,0.0024433890357613564,0.0018325417768210173,0.004886778071522713
1761315362552370400,13.763370361328125,0.004275931045413017,0.0024433890357613564,0.006108472589403391
1761315362571292400,13.78229248046875,0.004886778071522713,0.008551862090826035,0.00916270911693573
1761315362590214100,13.801214111328125,0.004886778071522713,0.014049487188458443,0.012827792204916477
1761315362609136000,13.82013623046875,0.0036650835536420345,0.014660334214568138,0.012827792204916477
1761315362628057900,13.839057861328126,0.0018325417768210173,0.01588202826678753,0.013438640162348747
1761315362646979600,13.8579794921875,-0.0012216945178806782,0.017714571207761765,0.012216945178806782
1761315362665901600,13.876901611328124,-0.005497625097632408,0.017714571207761765,0.009773556143045425
1761315362684823300,13.8958232421875,-0.007330167107284069,0.01588202826678753,0.007941014133393764
1761315362703745000,13.9147451171875,-0.004886778071522713,0.013438640162348747,0.004275931045413017
1761315362722667000,13.9336669921875,-0.0012216945178806782,0.01038440316915512,0.004275931045413017
1761315362741588700,13.952588623046875,0,0.00916270911693573,0.006108472589403391
1761315362760510700,13.9715107421875,0.0006108472589403391,0.007941014133393764,0.008551862090826035
1761315362779432400,13.990432373046875,0.004275931045413017,0.007941014133393764,0.00916270911693573
1761315362798354200,14.009354248046876,0.005497625097632408,0.0024433890357613564,0.01038440316915512
1761315362817276200,14.028276123046876,0.006719320081174374,0.008551862090826035,0.012827792204916477
1761315362836198000,14.047197998046874,0.006719320081174374,0.009773556143045425,0.012827792204916477
1761315362855119600,14.06611962890625,0.0030542362947016954,0.00916270911693573,0.014049487188458443
1761315362874041600,14.08504150390625,0,0.008551862090826035,0.011606098152697086
1761315362892963300,14.10396337890625,-0.0006108472589403391,0.007941014133393764,0.007941014133393764
1761315362911885000,14.122885009765625,-0.0012216945178806782,0.007941014133393764,0.0024433890357613564
1761315362930807000,14.14180712890625,-0.0030542362947016954,0.00916270911693573,0
1761315362949728800,14.160728759765625,-0.004275931045413017,0.00916270911693573,0.0012216945178806782
1761315362968650800,14.179650634765625,-0.0036650835536420345,0.011606098152697086,0.0024433890357613564
1761315362987572500,14.198572509765626,-0.0018325417768210173,0.012216945178806782,0.0024433890357613564
1761315363006494200,14.217494140625,-0.0012216945178806782,0.011606098152697086,0.0036650835536420345
1761315363025416200,14.236416259765624,-0.0006108472589403391,0.01038440316915512,0.004886778071522713
1761315363044338000,14.255337890625,0,0.009773556143045425,0.004275931045413017
1761315363063259600,14.274259765625,0.0012216945178806782,0.006719320081174374,0.0024433890357613564
1761315363082181600,14.293181640625,0.0036650835536420345,0.004275931045413017,0.004886778071522713
1761315363101103400,14.312103271484375,0.0030542362947016954,0.0024433890357613564,0.007330167107284069
1761315363120025300,14.331025390625,0.0012216945178806782,0.0036650835536420345,0.00916270911693573
1761315363138947000,14.349947021484375,0.0024433890357613564,0.009773556143045425,0.006108472589403391
1761315363157868800,14.368868896484376,0.004886778071522713,0.018936265259981155,0.009773556143045425
1761315363176790800,14.387790771484376,0.0030542362947016954,0.020157959312200546,0.010995250195264816
1761315363195712500,14.40671240234375,-0.0006108472589403391,0.021379653364419937,0.012827792204916477
1761315363214634200,14.42563427734375,-0.004275931045413017,0.014660334214568138,0.00916270911693573
1761315363233556200,14.44455615234375,-0.006108472589403391,-0.009773556143045425,-0.010995250195264816
1761315363252478000,14.46347802734375,-0.0030542362947016954,-0.005497625097632408,-0.009773556143045425
1761315363271400000,14.48239990234375,0.0036650835536420345,-0.0024433890357613564,-0.006719320081174374
