time,seconds_elapsed,z,y,x
1761399229479693600,0.117693603515625,-0.07661445438861847,-9.56737995147705,-1.5881038904190063
1761399229489782000,0.127781982421875,-0.039953239262104034,-9.550395965576172,-1.5557821989059448
1761399229499847000,0.137846923828125,0.007107786368578672,-9.520169258117676,-1.5604957342147827
1761399229509948700,0.14794873046875,-0.009576806798577309,-9.555258750915527,-1.5096938610076904
1761399229520024000,0.158024169921875,-0.0017956512747332454,-9.595885276794434,-1.5553332567214966
1761399229530093600,0.168093505859375,0.04174889251589775,-9.583391189575195,-1.591770052909851
1761399229540174000,0.178174072265625,0.06958148628473282,-9.581520080566406,-1.5901988744735718
1761399229550275000,0.188275146484375,0.08828619122505188,-9.573739051818848,-1.5919945240020752
1761399229560352500,0.1983525390625,0.11454758793115616,-9.535581588745117,-1.5896750688552856
1761399229570427400,0.208427490234375,0.14425064623355865,-9.558775901794434,-1.6086043119430542
1761399229580518000,0.218517822265625,0.18330606818199158,-9.595885276794434,-1.6201263666152954
1761399229590614000,0.228614013671875,0.17672201991081238,-9.575011253356934,-1.8665046691894531
1761399229600648700,0.238648681640625,0.2819172441959381,-9.578377723693848,-1.8281974792480469
1761399229610705200,0.248705078125,0.3164087235927582,-9.586832046508789,-1.8944120407104492
1761399229620851700,0.258851806640625,0.27144262194633484,-9.61563777923584,-1.7334768772125244
1761399229630925600,0.268925537109375,0.11394903808832169,-9.549946784973145,-1.5112650394439697
1761399229641018000,0.27901806640625,0.16392800211906433,-9.425822257995605,-1.6623241901397705
1761399229651098000,0.28909814453125,0.2844610810279846,-9.339181900024414,-1.9284546375274658
1761399229661179100,0.29917919921875,0.35658642649650574,-9.379659652709961,-2.045994997024536
1761399229671249400,0.30924951171875,0.35815760493278503,-9.401805877685547,-2.07629656791687
1761399229681326600,0.31932666015625,0.29396307468414307,-9.443329811096191,-2.0755484104156494
1761399229691429600,0.3294296875,0.2635118365287781,-9.475427627563477,-2.0066401958465576
1761399229701501400,0.33950146484375,0.3288286328315735,-9.447145462036133,-1.88550865650177
1761399229711569700,0.349569580078125,0.4330512285232544,-9.440337181091309,-1.8185458183288574
1761399229721663000,0.3596630859375,0.4528034031391144,-9.487547874450684,-1.8035072088241577
1761399229731725800,0.369725830078125,0.3959411084651947,-9.583091735839844,-1.76834237575531
1761399229741820700,0.379820556640625,0.3066074550151825,-9.686790466308594,-1.6390554904937744
1761399229751882000,0.389882080078125,0.23081600666046143,-9.700706481933594,-1.439139723777771
1761399229761985800,0.39998583984375,0.17163433134555817,-9.693299293518066,-1.2179752588272095
1761399229772054000,0.410053955078125,0.16482582688331604,-9.720309257507324,-1.0931026935577393
1761399229782147300,0.420147216796875,0.2381482571363449,-9.710956573486328,-1.1461492776870728
1761399229792228000,0.43022802734375,0.3256114423274994,-9.704821586608887,-1.395744800567627
1761399229802295800,0.4402958984375,0.4156184494495392,-9.668160438537598,-1.6710031032562256
1761399229812389400,0.450389404296875,0.47465047240257263,-9.59940242767334,-1.9115456342697144
1761399229822473700,0.4604736328125,0.46499887108802795,-9.59985065460205,-2.1104140281677246
1761399229832551000,0.470551025390625,0.36923080682754517,-9.595661163330078,-2.273967981338501
1761399229842643000,0.480642822265625,0.2511667311191559,-9.517251014709473,-2.32761287689209
1761399229852711700,0.490711669921875,0.13093291223049164,-9.38093090057373,-2.319906711578369
1761399229862780200,0.5007802734375,0.01219546515494585,-9.323695182800293,-2.2928221225738525
1761399229872873700,0.510873779296875,-0.10519523918628693,-9.405247688293457,-2.2964882850646973
1761399229882952200,0.5209521484375,-0.18457798659801483,-9.529820442199707,-2.3063645362854004
1761399229893034500,0.531034423828125,-0.21615152060985565,-9.592668533325195,-2.255786895751953
1761399229903115300,0.541115234375,-0.2536357343196869,-9.547327995300293,-2.174907684326172
1761399229913197000,0.551197021484375,-0.25154080986976624,-9.469816207885742,-2.1862802505493164
1761399229923277000,0.561277099609375,-0.24173955619335175,-9.469740867614746,-2.278456926345825
1761399229933332500,0.57133251953125,-0.21622633934020996,-9.491064071655273,-2.3582887649536133
1761399229943426000,0.581426025390625,-0.14784196019172668,-9.456274032592773,-2.3413047790527344
1761399229953519400,0.591519287109375,-0.08746317774057388,-9.411083221435547,-2.3079357147216797
1761399229963600000,0.601599853515625,-0.07743746042251587,-9.365294456481934,-2.2543654441833496
1761399229973680600,0.6116806640625,-0.10863690078258514,-9.361329078674316,-2.214486837387085
1761399229983751000,0.6217509765625,-0.18143559992313385,-9.384148597717285,-2.129417896270752
1761399229993829000,0.6318291015625,-0.23934535682201385,-9.420435905456543,-2.0125510692596436
1761399230003909600,0.64190966796875,-0.28707975149154663,-9.427767753601074,-1.9865888357162476
1761399230014009600,0.652009521484375,-0.3189525604248047,-9.426047325134277,-2.047865390777588
1761399230024083700,0.662083740234375,-0.3000982105731964,-9.43480110168457,-2.2007203102111816
1761399230034164500,0.67216455078125,-0.304063618183136,-9.401506423950195,-2.360234022140503
1761399230044245200,0.682245361328125,-0.3000982105731964,-9.3142671585083,-2.459144353866577
1761399230054337000,0.6923369140625,-0.35321956872940063,-9.20435905456543,-2.4944589138031006
1761399230064398600,0.702398681640625,-0.42190322279930115,-9.169118881225586,-2.4419360160827637
1761399230074479000,0.71247900390625,-0.5250783562660217,-9.221043586730957,-2.378190517425537
1761399230084567800,0.72256787109375,-0.6162824630737305,-9.222090721130371,-2.3430256843566895
1761399230094636000,0.732635986328125,-0.657657265663147,-9.174206733703613,-2.3867945671081543
1761399230104729600,0.7427294921875,-0.5986252427101135,-9.231517791748047,-2.5172786712646484
1761399230114810600,0.752810546875,-0.5590460896492004,-9.282693862915039,-2.6862194538116455
1761399230124877800,0.7628779296875,-0.5172224044799805,-9.209521293640137,-2.891671895980835
1761399230134971000,0.772970947265625,-0.4329015910625458,-9.11113452911377,-3.020360231399536
1761399230145064000,0.78306396484375,-0.4378396272659302,-9.106122016906738,-3.1001172065734863
1761399230155133000,0.7931328125,-0.47584760189056396,-9.16425609588623,-3.0045735836029053
1761399230165213700,0.803213623046875,-0.5735609531402588,-9.227702140808105,-2.7370214462280273
1761399230175281400,0.813281494140625,-0.5830629467964172,-9.242217063903809,-2.4432079792022705
1761399230185352000,0.82335205078125,-0.5655553340911865,-9.238027572631836,-2.2807016372680664
1761399230195446500,0.833446533203125,-0.5788730978965759,-9.235483169555664,-2.245387077331543
1761399230205511200,0.84351123046875,-0.5746083855628967,-9.226131439208984,-2.2672340869903564
1761399230215615200,0.853615234375,-0.5316624045372009,-9.271770477294922,-2.3365163803100586
1761399230225703000,0.863702880859375,-0.4528034031391144,-9.382352828979492,-2.4403648376464844
1761399230235778300,0.8737783203125,-0.4628291130065918,-9.533935546875,-2.5439140796661377
1761399230245850000,0.88385009765625,-0.477792888879776,-9.637484550476074,-2.6092309951782227
1761399230255934700,0.893934814453125,-0.5232827067375183,-9.667936325073242,-2.6651954650878906
1761399230266018800,0.904018798828125,-0.5595698356628418,-9.653645515441895,-2.694075345993042
1761399230276101000,0.91410107421875,-0.5461024641990662,-9.679458618164062,-2.771512985229492
1761399230286181600,0.924181640625,-0.48639702796936035,-9.746496200561523,-2.9280338287353516
1761399230296251400,0.93425146484375,-0.3538929522037506,-9.837326049804688,-3.1552586555480957
1761399230306343400,0.944343505859375,-0.23695114254951477,-9.971177101135254,-3.4550576210021973
1761399230316409000,0.9544091796875,-0.16078560054302216,-10.102184295654297,-3.670760154724121
1761399230326502100,0.964502197265625,-0.13033436238765717,-10.143110275268555,-3.734954595565796
1761399230336572400,0.974572509765625,-0.10856208205223083,-10.05579662322998,-3.749619245529175
1761399230346666000,0.984666015625,-0.1331774741411209,-9.893814086914062,-3.685873508453369
1761399230356746500,0.99474658203125,-0.11005845665931702,-9.761159896850586,-3.5605521202087402
1761399230366814700,1.004814697265625,-0.09389759600162506,-9.717092514038086,-3.3993923664093018
1761399230376909300,1.014909423828125,-0.059406131505966187,-9.756970405578613,-3.2177321910858154
1761399230386975700,1.024975830078125,0.017208324745297432,-9.849446296691895,-3.081038236618042
1761399230397069600,1.035069580078125,0.09816227108240128,-9.987486839294434,-3.0870985984802246
1761399230407150300,1.045150390625,0.005386953707784414,-10.116549491882324,-3.2347161769866943
1761399230417230800,1.05523095703125,-0.26246437430381775,-10.428244590759277,-3.731363296508789
1761399230427311000,1.06531103515625,-0.7052420377731323,-10.88942813873291,-4.55033016204834
1761399230437379600,1.075379638671875,-1.1828104257583618,-11.104382514953613,-5.079074382781982
1761399230447471400,1.085471435546875,-1.1694178581237793,-10.922048568725586,-5.193771839141846
1761399230457554000,1.095553955078125,-0.8838345408439636,-10.489147186279297,-5.0347819328308105
1761399230467634200,1.10563427734375,-0.6613234281539917,-10.075399398803711,-4.4572553634643555
1761399230477715000,1.11571484375,-0.5145289301872253,-10.03155517578125,-3.8277299404144287
1761399230487780400,1.1257802734375,-0.04474164545536041,-10.271050453186035,-3.055450201034546
1761399230497868500,1.13586865234375,0.3097498416900635,-10.36225414276123,-2.089838743209839
1761399230507956700,1.145956787109375,0.8443301916122437,-10.146626472473145,-1.066392421722412
1761399230518022700,1.156022705078125,1.2320412397384644,-9.855656623840332,-0.518943190574646
1761399230528118500,1.166118408203125,1.823409080505371,-9.922843933105469,-0.3158849775791168
1761399230538186500,1.1761865234375,2.0010287761688232,-10.328885078430176,-0.45646950602531433
1761399230548279300,1.186279296875,1.4797662496566772,-10.922123908996582,-0.9222165942192078
1761399230558360600,1.196360595703125,0.975861668586731,-11.444284439086914,-1.404723048210144
1761399230568425700,1.20642578125,0.6703764796257019,-11.503989219665527,-1.675716757774353
1761399230578519600,1.21651953125,0.41935938596725464,-11.053655624389648,-1.7647510766983032
1761399230588592000,1.226592041015625,0.18906711041927338,-10.358588218688965,-1.5916951894760132
1761399230598683400,1.236683349609375,-0.20949265360832214,-9.65611457824707,-1.3148655891418457
1761399230608763600,1.246763671875,-0.5829132795333862,-9.374197006225586,-1.1170446872711182
1761399230618856200,1.256856201171875,-0.5961562395095825,-9.632322311401367,-1.2932430505752563
1761399230628931300,1.266931396484375,-0.02760813757777214,-10.404751777648926,-1.617133617401123
1761399230639004000,1.27700390625,0.7141454815864563,-11.507506370544434,-1.5532383918762207
1761399230649087000,1.2870869140625,1.3743466138839722,-12.1008939743042,-1.8584990501403809
1761399230659167000,1.2971669921875,1.6301521062850952,-11.756577491760254,-2.2222681045532227
1761399230669235000,1.30723486328125,1.7460464239120483,-10.91254711151123,-2.6436476707458496
1761399230679328800,1.317328857421875,1.3739725351333618,-9.936685562133789,-2.862043619155884
1761399230689398000,1.32739794921875,1.0162638425827026,-9.275885581970215,-2.5528924465179443
1761399230699491800,1.337491943359375,0.788889467716217,-8.91189193725586,-2.247182846069336
1761399230709572000,1.347572021484375,0.8432827591896057,-8.743549346923828,-1.8327614068984985
1761399230719642000,1.35764208984375,0.8419359922409058,-8.405592918395996,-1.5885528326034546
1761399230729732400,1.367732421875,1.0401309728622437,-8.403797149658203,-0.5563526153564453
1761399230739813000,1.377813232421875,0.27495908737182617,-7.841683864593506,-0.6374561786651611
1761399230749868500,1.38786865234375,0.46642041206359863,-7.543755531311035,-1.12235689163208
1761399230759971000,1.39797119140625,0.8776245713233948,-7.495721817016602,-1.1423335075378418
1761399230770052600,1.408052490234375,1.0543465614318848,-7.308749675750732,-0.9429413676261902
1761399230780123000,1.418122802734375,1.185878038406372,-7.281365871429443,-1.408538818359375
1761399230790216000,1.4282158203125,1.417517066001892,-6.867692947387695,-2.196530342102051
1761399230800292900,1.43829296875,1.6649428606033325,-7.329474449157715,-1.5560814142227173
1761399230810365200,1.448365234375,1.7574937343597412,-7.497442722320557,-1.5182231664657593
1761399230820457000,1.45845703125,1.8104654550552368,-7.619846343994141,-1.118017315864563
1761399230830538200,1.468538330078125,1.9310733079910278,-7.600468158721924,-0.8009352684020996
1761399230840605200,1.478605224609375,1.9185786247253418,-7.3674821853637695,-0.8640823364257812
1761399230850698800,1.48869873046875,1.8941876888275146,-6.991143703460693,-0.6929717659950256
1761399230860765200,1.49876513671875,2.051381826400757,-6.394613265991211,-0.47008654475212097
1761399230870861800,1.50886181640625,2.301201820373535,-5.81611442565918,-0.3436427712440491
1761399230880942800,1.51894287109375,2.660856008529663,-5.329866886138916,-0.42945992946624756
1761399230891011600,1.529011474609375,3.0136265754699707,-5.055805683135986,-0.900668740272522
1761399230901084200,1.539084228515625,3.1623663902282715,-5.171475887298584,-1.715071439743042
1761399230911163400,1.549163330078125,3.3116297721862793,-5.686229228973389,-2.6951229572296143
1761399230921265400,1.559265380859375,3.4448821544647217,-6.362890243530273,-3.5389294624328613
1761399230931326500,1.569326416015625,3.429020643234253,-7.170259952545166,-4.289810657501221
1761399230941404200,1.579404052734375,3.505934238433838,-8.105644226074219,-5.020715713500977
1761399230951491300,1.5894912109375,4.1395745277404785,-8.969876289367676,-5.62727165222168
1761399230961575700,1.59957568359375,5.110648155212402,-9.530718803405762,-5.929464817047119
1761399230971668500,1.60966845703125,5.797110557556152,-10.026243209838867,-6.369100093841553
1761399230981749500,1.61974951171875,5.75865364074707,-10.70058536529541,-7.197269439697266
1761399230991817700,1.629817626953125,5.079373836517334,-11.310583114624023,-7.737985134124756
1761399231001898000,1.63989794921875,4.162469387054443,-11.337966918945312,-7.510535717010498
1761399231011987000,1.649987060546875,3.50698184967041,-10.731185913085938,-6.51641845703125
1761399231022070000,1.660070068359375,3.2859671115875244,-9.78719711303711,-5.141323566436768
1761399231032140500,1.670140625,3.4735376834869385,-8.635810852050781,-4.1082258224487305
1761399231042233300,1.6802333984375,4.349666118621826,-7.671396255493164,-3.5511996746063232
1761399231052296000,1.6902958984375,5.395333766937256,-8.463726997375488,-3.489025354385376
1761399231062395000,1.700394775390625,4.944550037384033,-12.016722679138184,-4.3138275146484375
1761399231072476000,1.710475830078125,4.837484359741211,-15.154772758483887,-5.017124652862549
1761399231082553300,1.72055322265625,4.666673183441162,-16.236129760742188,-4.844442844390869
1761399231092635100,1.73063525390625,3.2591819763183594,-15.38932991027832,-4.0580220222473145
1761399231102705000,1.740704833984375,0.4126257002353668,-12.71605396270752,-2.9211504459381104
1761399231112798000,1.7507978515625,-2.6628761291503906,-8.72993278503418,-1.67429518699646
1761399231122879500,1.76087939453125,-1.9927988052368164,-5.520430564880371,-0.40050506591796875
1761399231132937500,1.7709375,0.6677578091621399,-3.872920513153076,0.9141361117362976
1761399231143040500,1.78104052734375,1.1967267990112305,-3.2567877769470215,1.0948983430862427
1761399231153121300,1.791121337890625,0.423025518655777,-4.4933929443359375,0.5231330990791321
1761399231163202300,1.801202392578125,-0.1356464922428131,-6.4146647453308105,0.2716670632362366
1761399231173282600,1.811282470703125,-0.4324526786804199,-8.48130989074707,0.27473464608192444
1761399231183345200,1.82134521484375,-1.0565911531448364,-10.914342880249023,-0.8241291046142578
1761399231193431300,1.831431396484375,-2.0026001930236816,-13.679795265197754,-2.422558069229126
1761399231203503600,1.841503662109375,-2.6581623554229736,-13.629142761230469,-3.1384992599487305
1761399231213600000,1.85160009765625,-1.273864984512329,-13.472472190856934,-4.038419723510742
1761399231223684400,1.861684326171875,-0.7707833051681519,-11.217658042907715,-4.097900867462158
1761399231233767000,1.871766845703125,-0.7801356315612793,-9.245733261108398,-3.4601452350616455
1761399231243847400,1.881847412109375,-0.4837035536766052,-8.734122276306152,-2.3417537212371826
1761399231253902600,1.891902587890625,0.18308161199092865,-8.748337745666504,-1.3477859497070312
1761399231263998200,1.901998291015625,0.5720645785331726,-8.966584205627441,-0.7803601026535034
1761399231274078500,1.912078369140625,0.6497265100479126,-9.25179386138916,-0.6451625227928162
1761399231284168000,1.92216796875,0.6658873558044434,-9.548450469970703,-0.9296236038208008
1761399231294238200,1.93223828125,0.5463268756866455,-9.817723274230957,-1.4031518697738647
1761399231304331300,1.942331298828125,0.3051110804080963,-9.883638381958008,-1.6124948263168335
1761399231314412300,1.952412353515625,0.209941565990448,-9.851391792297363,-1.7349731922149658
1761399231324498000,1.962497802734375,0.16632220149040222,-9.418789863586426,-1.5494226217269897
1761399231334571800,1.97257177734375,-0.03957914561033249,-9.219547271728516,-1.4113070964813232
1761399231344641000,1.98264111328125,-0.25595512986183167,-8.822408676147461,-1.2056301832199097
1761399231354732800,1.99273291015625,-0.5261258482933044,-8.617180824279785,-1.266008973121643
1761399231364816000,2.00281591796875,-0.8271218538284302,-8.635361671447754,-1.7246482372283936
1761399231374883600,2.012883544921875,-0.9591770768165588,-8.699556350708008,-2.3760955333709717
1761399231384954400,2.022954345703125,-0.9374048113822937,-8.694917678833008,-3.0362966060638428
1761399231395028700,2.03302880859375,-0.7233482003211975,-8.594735145568848,-3.549703359603882
1761399231405112300,2.0431123046875,-0.3728969097137451,-8.40185260772705,-3.8418707847595215
1761399231425287000,2.063286865234375,0.22610242664813995,-8.1795654296875,-3.743035078048706
1761399231435369200,2.073369140625,0.4076128304004669,-8.267552375793457,-3.46268892288208
1761399231445462800,2.083462890625,0.4390367269515991,-8.36728572845459,-3.1833903789520264
1761399231455533300,2.093533203125,0.2535609304904938,-8.425271034240723,-3.020360231399536
1761399231465618200,2.1036181640625,0.02124853990972042,-8.470236778259277,-2.89803147315979
1761399231475701500,2.113701416015625,-0.21039047837257385,-8.521936416625977,-2.8175265789031982
1761399231485782000,2.123781982421875,-0.40200144052505493,-8.554258346557617,-2.6595091819763184
1761399231495864800,2.13386474609375,-0.5371242165565491,-8.647333145141602,-2.48600435256958
1761399231505932500,2.1439326171875,-0.6531681418418884,-8.87051773071289,-2.2783074378967285
1761399231516025900,2.15402587890625,-0.6186018586158752,-9.214459419250488,-2.1541080474853516
1761399231526111500,2.164111572265625,-0.394369900226593,-9.544185638427734,-1.9133412837982178
1761399231536173600,2.174173583984375,-0.06389525532722473,-9.819369316101074,-1.93099844455719
1761399231546265600,2.184265625,0.22580315172672272,-9.950002670288086,-2.0311059951782227
1761399231556339500,2.19433935546875,0.3321206569671631,-10.022651672363281,-2.355520486831665
1761399231566429200,2.20442919921875,0.20096330344676971,-9.944391250610352,-2.695796251296997
1761399231576509700,2.214509765625,-0.19520226120948792,-9.847650527954102,-3.0743045806884766
1761399231586593300,2.22459326171875,-0.6224924325942993,-9.827000617980957,-3.5794811248779297
1761399231596669400,2.23466943359375,-0.8646808862686157,-9.84271240234375,-3.8074541091918945
1761399231606738000,2.244738037109375,-0.9962871670722961,-9.985916137695312,-3.9292590618133545
1761399231616845800,2.254845703125,-1.1510124206542969,-10.129044532775879,-4.013654708862305
1761399231626901200,2.2649013671875,-1.1843816041946411,-10.173112869262695,-3.880552053451538
1761399231636994300,2.274994384765625,-0.9475052952766418,-10.286164283752441,-3.9955484867095947
1761399231647067000,2.28506689453125,-0.5270984768867493,-10.129044532775879,-3.729642629623413
1761399231657155000,2.295155029296875,0.0011971008498221636,-9.97057819366455,-3.6163668632507324
1761399231667234000,2.305234130859375,0.5922656655311584,-9.602694511413574,-3.386523485183716
1761399231677317400,2.3153173828125,1.222389578819275,-9.257105827331543,-3.6447231769561768
1761399231687391200,2.32539111328125,0.8863783478736877,-9.238625526428223,-4.0027313232421875
1761399231697478100,2.33547802734375,0.04893149808049202,-9.693000793457031,-5.01749849319458
1761399231707548700,2.345548583984375,0.039205051958560944,-10.358438491821289,-5.692738056182861
1761399231717639400,2.355639404296875,0.7765443325042725,-10.853140830993652,-5.874622821807861
1761399231727705900,2.365705810546875,0.5823147296905518,-10.6384859085083,-5.310264587402344
1761399231737799700,2.375799560546875,0.29044657945632935,-10.132336616516113,-4.483516693115234
1761399231747869700,2.38586962890625,0.6952162981033325,-10.232743263244629,-3.410390615463257
1761399231757950500,2.395950439453125,1.7880197763442993,-11.184886932373047,-2.05781626701355
1761399231768031000,2.406031005859375,2.590226888656616,-12.472743034362793,-0.5907692909240723
1761399231778112500,2.416112548828125,2.711134195327759,-13.647697448730469,0.5516390204429626
1761399231788204500,2.42620458984375,2.181716203689575,-14.48634147644043,1.5143325328826904
1761399231798272800,2.436272705078125,1.6254384517669678,-14.895450592041016,2.444031000137329
1761399231808366600,2.44636669921875,0.9570821523666382,-14.837691307067871,3.054327964782715
1761399231818435000,2.45643505859375,0.5363011956214905,-14.238093376159668,3.016394853591919
1761399231828515300,2.466515380859375,0.737788200378418,-13.54549503326416,2.199897289276123
1761399231838595600,2.476595703125,1.549497365951538,-13.142745971679688,1.193210244178772
1761399231848680400,2.486680419921875,2.313098192214966,-12.492345809936523,0.3713257312774658
1761399231858767000,2.49676708984375,2.4390928745269775,-11.505860328674316,-0.4644003212451935
1761399231868846600,2.5068466796875,1.8337340354919434,-10.519074440002441,-1.3255647420883179
1761399231878931200,2.51693115234375,1.0861445665359497,-10.024896621704102,-1.44497549533844
1761399231888994800,2.526994873046875,0.5787234306335449,-9.521066665649414,-0.9736918807029724
1761399231899092500,2.537092529296875,0.8624363541603088,-9.672051429748535,-0.4455459713935852
1761399231909172700,2.5471728515625,0.9546879529953003,-9.861268043518066,-0.04182371124625206
1761399231919241500,2.557241455078125,0.845901370048523,-9.843535423278809,-0.29456162452697754
1761399231929345300,2.56734521484375,1.2912976741790771,-9.617433547973633,-0.03860650211572647
1761399231939397600,2.577397705078125,1.360205888748169,-8.90837574005127,-0.2795230448246002
1761399231949495800,2.587495849609375,1.2476783990859985,-8.467917442321777,-0.5741595029830933
1761399231959576600,2.59757666015625,1.4330793619155884,-8.372822761535645,-0.5239560604095459
1761399231969644300,2.607644287109375,1.7236007452011108,-8.352472305297852,-0.31790509819984436
1761399231979740200,2.617740234375,1.679756999015808,-8.073697090148926,-0.37970542907714844
1761399231989805600,2.6278056640625,1.4019547700881958,-7.946280479431152,-0.22303485870361328
1761399231999886600,2.637886474609375,1.1114332675933838,-7.546448707580566,-0.32172083854675293
1761399232009979600,2.647979736328125,0.9644143581390381,-6.958672523498535,-0.29867666959762573
1761399232020046800,2.658046875,0.9668834209442139,-6.382343292236328,-0.17462708055973053
1761399232030141000,2.668140869140625,1.0409539937973022,-5.85576868057251,0.11948563158512115
1761399232040222500,2.678222412109375,1.3000515699386597,-5.431396007537842,0.1818096935749054
1761399232050289400,2.688289306640625,1.7384897470474243,-5.283329963684082,-0.24660277366638184
1761399232060383500,2.698383544921875,2.233715295791626,-5.324181079864502,-0.9044845104217529
1761399232070464300,2.70846435546875,2.5043349266052246,-5.502848148345947,-1.4719103574752808
1761399232080532000,2.718531982421875,2.6146926879882812,-5.686154365539551,-2.0272903442382812
1761399232090623200,2.728623291015625,2.5125651359558105,-5.876044273376465,-2.474856376647949
1761399232100693500,2.738693603515625,2.349086046218872,-6.013636112213135,-2.7158477306365967
1761399232110783700,2.74878369140625,2.1449053287506104,-6.0277018547058105,-2.8132617473602295
1761399232120863500,2.758863525390625,2.0310311317443848,-5.985055446624756,-2.8466310501098633
1761399232130937600,2.7689375,2.2281787395477295,-6.023138046264648,-2.7177181243896484
1761399232141029000,2.779029052734375,2.6384103298187256,-6.2346510887146,-2.5214684009552
1761399232151098000,2.78909814453125,3.133561134338379,-6.511630058288574,-2.3657705783843994
1761399232161187800,2.799187744140625,3.8978352546691895,-6.890063762664795,-2.472013235092163
1761399232171271200,2.809271240234375,5.21674108505249,-7.520935535430908,-2.8348844051361084
1761399232181336600,2.819336669921875,7.3762359619140625,-8.943316459655762,-3.7015106678009033
1761399232191432200,2.82943212890625,9.033697128295898,-11.795259475708008,-4.874968528747559
1761399232201500400,2.83950048828125,8.496871948242188,-15.079280853271484,-6.085986137390137
1761399232211593500,2.849593505859375,7.439907073974609,-17.414974212646484,-6.919916152954102
1761399232221674800,2.8596748046875,7.245976448059082,-17.18999481201172,-6.072294235229492
1761399232231742500,2.869742431640625,7.410428524017334,-14.246173858642578,-4.104185581207275
1761399232241834000,2.879833984375,6.541557788848877,-10.922423362731934,-2.9467384815216064
1761399232251894300,2.889894287109375,5.806238174438477,-8.562862396240234,-2.3924059867858887
1761399232261984300,2.899984375,5.738602161407471,-6.789058208465576,-1.738040804862976
1761399232272078000,2.910078125,5.563376426696777,-5.820454120635986,-0.7920318245887756
1761399232282145800,2.920145751953125,4.731616020202637,-6.841132164001465,-0.6853402256965637
1761399232292247600,2.93024755859375,4.317419052124023,-9.62843132019043,-1.4555250406265259
1761399232302313200,2.940313232421875,4.537835121154785,-11.808202743530273,-1.4306102991104126
1761399232312387300,2.95038720703125,4.0277204513549805,-12.48583698272705,-1.094150185585022
1761399232322481700,2.960481689453125,0.8573486804962158,-11.674576759338379,-1.958008050918579
1761399232332549600,2.970549560546875,-3.2242414951324463,-9.364919662475586,-3.586214780807495
1761399232342630000,2.9806298828125,-4.752490520477295,-7.344812393188477,-3.7870285511016846
1761399232352711400,2.99071142578125,-3.139396905899048,-7.451129913330078,-2.8262054920196533
1761399232362816500,3.00081640625,-1.3024457693099976,-8.922965049743652,-2.67484712600708
1761399232372895500,3.0108955078125,-0.8229320049285889,-10.500519752502441,-3.215637445449829
1761399232382965800,3.0209658203125,-0.23904608190059662,-11.368193626403809,-3.480720281600952
1761399232393046000,3.0310458984375,0.849791944026947,-10.866982460021973,-2.9291560649871826
1761399232403123500,3.04112353515625,1.2746131420135498,-9.246257781982422,-1.9048867225646973
1761399232413207300,3.051207275390625,0.11754033714532852,-7.799261569976807,-1.1491420269012451
1761399232423287800,3.061287841796875,-1.058311939239502,-7.279719829559326,-0.7015010714530945
1761399232433358000,3.071358154296875,-1.6839468479156494,-7.736563682556152,-0.512658417224884
1761399232443447800,3.08144775390625,-2.2106711864471436,-9.408090591430664,-0.6058078408241272
1761399232453517300,3.091517333984375,-2.701781749725342,-10.57264518737793,-1.57022225856781
1761399232463609300,3.101609375,-2.585139274597168,-12.078971862792969,-2.465054988861084
1761399232473675800,3.11167578125,-1.8007389307022095,-12.041936874389648,-3.370587110519409
1761399232483759900,3.121759765625,-0.6765864491462708,-10.470367431640625,-3.747673749923706
1761399232493853400,3.131853515625,0.26313772797584534,-9.226729393005371,-3.4142813682556152
1761399232503932000,3.141931884765625,0.6374561786651611,-8.571840286254883,-2.675295829772949
1761399232514003500,3.15200341796875,0.4605097472667694,-8.490662574768066,-1.8492215871810913
1761399232524082400,3.16208251953125,0.4943278431892395,-9.041777610778809,-1.1269956827163696
1761399232534168000,3.17216796875,0.5091419816017151,-9.697264671325684,-0.8150012493133545
1761399232544256300,3.18225634765625,0.04317044839262962,-10.151864051818848,-1.001225233078003
1761399232554337000,3.1923369140625,-0.39474400877952576,-10.143035888671875,-1.2336124181747437
1761399232564407300,3.2024072265625,-0.7563433051109314,-9.383625030517578,-1.2505214214324951
1761399232574499000,3.2124990234375,-1.0743980407714844,-8.560842514038086,-1.652448058128357
1761399232594659800,3.232659912109375,-1.1700912714004517,-8.162282943725586,-3.087547540664673
1761399232604742100,3.2427421875,-1.2458078861236572,-8.216750144958496,-3.5324201583862305
1761399232614821600,3.252821533203125,-1.4001591205596924,-8.439187049865723,-4.018218517303467
1761399232624902100,3.262902099609375,-1.3821277618408203,-8.525228500366211,-4.363731861114502
1761399232634960600,3.272960693359375,-0.9193734526634216,-8.495525360107422,-4.573374271392822
1761399232645063700,3.283063720703125,-0.1231517493724823,-8.74729061126709,-4.8756422996521
1761399232655130400,3.29313037109375,0.43701663613319397,-8.766444206237793,-4.64939022064209
1761399232665224700,3.303224609375,0.8305635452270508,-8.768913269042969,-4.348094940185547
1761399232675305500,3.313305419921875,0.9202712774276733,-8.764348983764648,-3.787851572036743
1761399232685386200,3.32338623046875,0.8551788926124573,-8.568548202514648,-3.2130186557769775
1761399232695452400,3.333452392578125,0.592939019203186,-8.651597023010254,-3.0948798656463623
1761399232705539600,3.34353955078125,0.43005847930908203,-8.525004386901855,-2.896834373474121
1761399232715626800,3.353626708984375,0.28797757625579834,-8.603264808654785,-3.071760892868042
1761399232725709000,3.363708984375,0.16235680878162384,-8.631246566772461,-2.9661166667938232
1761399232735781000,3.373781005859375,0.1420809030532837,-8.655861854553223,-2.899303436279297
1761399232745852000,3.383851806640625,0.25745150446891785,-8.648305892944336,-2.966341018676758
1761399232755930600,3.3939306640625,0.3610755503177643,-8.476595878601074,-2.8615200519561768
1761399232766006300,3.40400634765625,0.5309890508651733,-8.630049705505371,-3.1910219192504883
1761399232776087300,3.41408740234375,0.1173906996846199,-9.188272476196289,-3.8226423263549805
1761399232786168600,3.42416845703125,-0.576329231262207,-9.236381530761719,-4.23773717880249
1761399232796237000,3.434237060546875,-0.6734440326690674,-9.083975791931152,-4.462118625640869
1761399232806317800,3.44431787109375,-0.7003039717674255,-9.781511306762695,-4.5341691970825195
1761399232816417500,3.45441748046875,-0.30713120102882385,-9.945289611816406,-4.103287696838379
1761399232826489900,3.46448974609375,0.08798690885305405,-9.837026596069336,-3.338714361190796
1761399232836583000,3.4745830078125,-0.3238905966281891,-9.86231517791748,-3.082684278488159
1761399232846677000,3.484677001953125,-0.9644891619682312,-9.996989250183105,-3.4372506141662598
1761399232856745500,3.494745361328125,-1.1144260168075562,-10.037016868591309,-4.141071319580078
1761399232866838500,3.504838623046875,-0.880392849445343,-9.935637474060059,-4.69682502746582
1761399232876917500,3.51491748046875,-0.4769698679447174,-9.820342063903809,-4.728847503662109
1761399232887000300,3.525000244140625,-0.20028993487358093,-10.032078742980957,-4.636745452880859
1761399232897070600,3.535070556640625,-0.21884499490261078,-10.610652923583984,-4.4374284744262695
1761399232907148800,3.545148681640625,-0.05349544435739517,-11.167080879211426,-4.5254902839660645
1761399232917242400,3.555242431640625,0.2968061864376068,-11.309236526489258,-4.969389915466309
1761399232927323100,3.5653232421875,-0.015562310814857483,-11.039963722229004,-5.771148204803467
1761399232937378300,3.57537841796875,-0.4398597478866577,-11.010933876037598,-6.815094947814941
1761399232947482000,3.585482177734375,-0.046238020062446594,-11.52314281463623,-6.6950860023498535
1761399232957565200,3.595565185546875,1.3008744716644287,-12.015301704406738,-4.919486045837402
1761399232967624200,3.605624267578125,2.3959224224090576,-11.964798927307129,-2.472537040710449
1761399232977727000,3.61572705078125,2.8809728622436523,-11.788450241088867,-0.3659387528896332
1761399232987804700,3.6258046875,2.349759340286255,-12.02143669128418,1.2107926607131958
1761399232997875500,3.63587548828125,1.5490485429763794,-12.962207794189453,2.667739152908325
1761399233007953700,3.64595361328125,1.3186066150665283,-14.145766258239746,4.081889629364014
1761399233018049000,3.656049072265625,1.2501473426818848,-15.072397232055664,4.970587253570557
1761399233028129800,3.6661298828125,0.9608230590820312,-15.10142707824707,4.689043998718262
1761399233038184000,3.676183837890625,0.5633856058120728,-13.555970191955566,3.258209228515625
1761399233048290800,3.686290771484375,0.3370586931705475,-11.505860328674316,1.2067524194717407
1761399233058371800,3.696371826171875,0.725218653678894,-10.586187362670898,-0.9849147200584412
1761399233068447700,3.70644775390625,1.4918869733810425,-10.50822639465332,-2.710386037826538
1761399233078526500,3.7165263671875,1.6165350675582886,-10.627187728881836,-3.5749173164367676
1761399233088614100,3.7266142578125,1.3101520538330078,-10.497153282165527,-4.178779602050781
1761399233098681900,3.736681884765625,0.6652140021324158,-9.760262489318848,-4.435932159423828
1761399233108775400,3.746775390625,1.0351181030273438,-9.213262557983398,-4.184690475463867
1761399233118852600,3.7568525390625,1.7600375413894653,-8.874258041381836,-3.9620296955108643
1761399233128937000,3.76693701171875,1.8979285955429077,-8.552312850952148,-3.3622822761535645
1761399233139005000,3.7770048828125,1.4191631078720093,-8.264036178588867,-2.5019407272338867
1761399233149098200,3.78709814453125,0.6946926116943359,-7.928847789764404,-1.7556232213974
1761399233159167500,3.79716748046875,0.043918635696172714,-7.532382965087891,-1.1330559253692627
1761399233169259500,3.807259521484375,-0.11125556379556656,-7.0149359703063965,-0.6617723107337952
1761399233179339800,3.81733984375,0.08043020963668823,-6.64705228805542,-0.4100070297718048
1761399233189421000,3.827421142578125,0.4736778438091278,-6.609118938446045,-0.25819969177246094
1761399233199499000,3.8374990234375,1.0281599760055542,-6.759953498840332,-0.33010056614875793
1761399233209570300,3.8475703125,1.561244010925293,-6.714089870452881,-0.232162743806839
1761399233219662800,3.857662841796875,2.022876024246216,-6.4316487312316895,0.10534487664699554
1761399233229743400,3.867743408203125,2.3040449619293213,-6.0173020362854,0.7471405863761902
1761399233239815400,3.8778154296875,2.4019079208374023,-5.531353950500488,1.1552022695541382
1761399233249904600,3.887904541015625,2.3102550506591797,-5.1210479736328125,1.2810475826263428
1761399233259986000,3.89798583984375,2.078092336654663,-4.928763389587402,1.0313023328781128
1761399233270065000,3.90806494140625,1.7381904125213623,-4.804489612579346,0.6001216173171997
1761399233280116500,3.918116455078125,1.563563346862793,-4.813692092895508,0.21009120345115662
1761399233290227700,3.928227783203125,1.521515130996704,-5.065382480621338,0.055590372532606125
1761399233300296200,3.938296142578125,1.4972739219665527,-5.3458781242370605,-0.34027591347694397
1761399233310381600,3.948381591796875,1.593864917755127,-5.627346515655518,-0.7142950892448425
1761399233320447000,3.958447021484375,1.8044798374176025,-5.9181671142578125,-1.2561328411102295
1761399233330536000,3.968535888671875,2.190095901489258,-6.389451026916504,-1.8825907707214355
1761399233340629200,3.978629150390625,2.7513866424560547,-7.128735542297363,-2.7311856746673584
1761399233350710500,3.98871044921875,3.6923828125,-8.072724342346191,-3.8407485485076904
1761399233360792800,3.998792724609375,5.031564712524414,-9.091083526611328,-5.202151298522949
1761399233370844400,4.008844482421875,6.74843168258667,-10.54720687866211,-6.488511085510254
1761399233380954000,4.0189541015625,7.999402046203613,-12.477381706237793,-7.847893714904785
1761399233391035000,4.029034912109375,8.234258651733398,-14.500482559204102,-9.33005428314209
1761399233401099500,4.039099609375,7.915829181671143,-15.267374992370605,-10.357690811157227
1761399233411183600,4.04918359375,7.9351325035095215,-13.198784828186035,-9.773430824279785
1761399233421276400,4.0592763671875,7.371896743774414,-10.611102104187012,-7.89779806137085
1761399233431346200,4.06934619140625,6.037952423095703,-8.968155860900879,-5.412467002868652
1761399233441425200,4.079425048828125,4.91611909866333,-8.024765968322754,-3.7171478271484375
1761399233451518700,4.089518798828125,4.965125560760498,-7.613935470581055,-3.1542859077453613
1761399233461598000,4.099597900390625,5.7049336433410645,-7.969025611877441,-2.434080123901367
1761399233471680500,4.109680419921875,5.191078186035156,-10.13286018371582,-1.833359956741333
1761399233481761000,4.119760986328125,5.39750337600708,-12.928315162658691,-2.202366352081299
1761399233491841800,4.129841796875,6.4893341064453125,-14.661118507385254,-1.9281554222106934
1761399233501922300,4.13992236328125,5.516465187072754,-15.445144653320312,-1.036988615989685
1761399233512002600,4.15000244140625,1.078961968421936,-14.565574645996094,-0.26081836223602295
1761399233522081800,4.160081787109375,-3.204638957977295,-10.973599433898926,-0.1148468628525734
1761399233532164900,4.170164794921875,-3.3728315830230713,-6.962862491607666,0.03531447425484657
1761399233542232600,4.180232666015625,-1.3562403917312622,-5.272780418395996,1.205106496810913
1761399233552325600,4.19032568359375,-0.6807762980461121,-4.916792392730713,1.0975170135498047
1761399233562406100,4.20040625,-1.1613374948501587,-5.946224212646484,0.25318682193756104
1761399233572487400,4.2104873046875,-1.2384008169174194,-7.76484489440918,0.2898480296134949
1761399233582567400,4.2205673828125,-1.1368716955184937,-8.860416412353516,0.29044657945632935
1761399233592647200,4.230647216796875,-1.2204443216323853,-9.592967987060547,-0.44023382663726807
1761399233602729200,4.240729248046875,-1.9317467212677002,-11.038467407226562,-2.0509331226348877
1761399233612792800,4.250792724609375,-2.4949827194213867,-12.585570335388184,-3.9677159786224365
1761399233622890800,4.260890869140625,-2.0283377170562744,-11.826458930969238,-4.549806118011475
1761399233632959000,4.270958984375,-1.3466635942459106,-11.667019844055176,-4.713435173034668
1761399233643039200,4.281039306640625,-0.9030629396438599,-10.268656730651855,-3.9338231086730957
1761399233653131000,4.291131103515625,-0.48729485273361206,-9.246556282043457,-3.421912670135498
1761399233663203800,4.301203857421875,-0.4908113479614258,-8.89333724975586,-2.9700071811676025
1761399233673282000,4.311281982421875,-0.24099136888980865,-8.887800216674805,-2.3744494915008545
1761399233683374800,4.321374755859375,0.32216978073120117,-9.028908729553223,-1.6188544034957886
1761399233693442300,4.3314423828125,0.5071966648101807,-9.221567153930664,-1.118017315864563
1761399233703519700,4.341519775390625,0.38875851035118103,-9.46382999420166,-0.7716063261032104
1761399233713591800,4.351591796875,-0.076015904545784,-9.729137420654297,-0.7610568404197693
1761399233723695400,4.3616953125,-0.5565770864486694,-9.636661529541016,-0.6789806485176086
1761399233733779000,4.371779052734375,-0.7223007082939148,-9.269301414489746,-0.7103297114372253
1761399233743859200,4.381859130859375,-0.89805006980896,-8.888772964477539,-1.114800214767456
1761399233753928700,4.3919287109375,-1.1481693983078003,-8.634763717651367,-1.712153434753418
1761399233764020500,4.4020205078125,-1.5179986953735352,-8.456470489501953,-2.4268975257873535
1761399233774101000,4.41210107421875,-1.8139818906784058,-8.47674560546875,-3.220874547958374
1761399233784179500,4.422179443359375,-2.025195360183716,-8.418761253356934,-3.910255193710327
1761399233794249200,4.432249267578125,-2.0434510707855225,-8.308927536010742,-4.442142009735107
1761399233804330800,4.442330810546875,-1.6383073329925537,-8.191536903381348,-5.0189948081970215
1761399233814423800,4.452423828125,-0.9811738133430481,-8.192883491516113,-5.395857334136963
1761399233824504000,4.462504150390625,-0.3728969097137451,-8.294486999511719,-5.461697578430176
1761399233834585300,4.47258544921875,0.16594810783863068,-8.443675994873047,-5.151499271392822
1761399233844663800,4.482663818359375,0.6257096529006958,-8.671050071716309,-4.771419525146484
1761399233854735000,4.492735107421875,0.9552865028381348,-8.898050308227539,-4.340238571166992
1761399233864827400,4.502827392578125,0.9939677715301514,-9.025616645812988,-3.92132830619812
1761399233874907600,4.51290771484375,0.7585130333900452,-8.999131202697754,-3.6064159870147705
1761399233884984600,4.522984619140625,0.35344403982162476,-9.009455680847168,-3.583371639251709
1761399233895069200,4.533069091796875,0.10796353220939636,-8.892813682556152,-3.4712932109832764
1761399233905150000,4.54314990234375,-0.03172317147254944,-8.888099670410156,-3.6185367107391357
1761399233915229000,4.55322900390625,-0.002917933277785778,-8.694318771362305,-3.446453332901001
1761399233925310000,4.56331005859375,0.19871874153614044,-8.407987594604492,-3.1995513439178467
1761399233935392800,4.573392822265625,0.3272574543952942,-8.506224632263184,-3.2818520069122314
1761399233945471700,4.5834716796875,0.15337854623794556,-8.859219551086426,-3.6722564697265625
1761399233955551500,4.593551513671875,-0.017058687284588814,-9.124077796936035,-4.138602256774902
1761399233965631700,4.6036318359375,-0.3743932843208313,-9.361403465270996,-4.532523155212402
1761399233975700500,4.613700439453125,-0.9354594945907593,-8.898798942565918,-3.9026236534118652
1761399233985795600,4.623795654296875,-0.20096330344676971,-9.851391792297363,-4.1326165199279785
1761399233995863600,4.633863525390625,-0.27899932861328125,-10.142736434936523,-3.287238836288452
1761399234005944600,4.643944580078125,-0.2692728638648987,-10.160393714904785,-2.9700071811676025
1761399234016037000,4.654037109375,-0.5706430077552795,-10.224662780761719,-3.1863083839416504
1761399234026118400,4.664118408203125,-0.9191489815711975,-10.238953590393066,-3.8505496978759766
1761399234036185000,4.67418505859375,-0.8491185903549194,-10.121711730957031,-4.4800004959106445
1761399234046265000,4.68426513671875,-0.48602294921875,-9.86119270324707,-4.561178684234619
1761399234056360700,4.694360595703125,-0.160261869430542,-9.683198928833008,-4.420294761657715
1761399234066441000,4.70444091796875,-0.08170213550329208,-9.76909065246582,-4.330661773681641
1761399234076522000,4.71452197265625,-0.3413982093334198,-10.215235710144043,-4.570755481719971
1761399234086601200,4.724601318359375,-0.48482584953308105,-10.367117881774902,-4.979041576385498
1761399234096668400,4.73466845703125,0.5383961200714111,-10.152612686157227,-5.651662826538086
1761399234106762200,4.74476220703125,0.6259341239929199,-10.046893119812012,-6.377853870391846
1761399234116840200,4.754840087890625,0.014814122579991817,-10.127248764038086,-6.792500019073486
1761399234126925300,4.76492529296875,0.3399018347263336,-10.627263069152832,-6.755764007568359
1761399234137003000,4.7750029296875,1.4024035930633545,-11.77632999420166,-5.709871768951416
1761399234147087000,4.785087158203125,2.202141761779785,-12.462268829345703,-3.494112968444824
1761399234157165000,4.7951650390625,2.3457939624786377,-12.353631973266602,-1.2129623889923096
1761399234167235600,4.805235595703125,1.740659475326538,-12.441768646240234,0.3917512595653534
1761399234177303300,4.81530322265625,1.333420753479004,-13.390545845031738,1.6032921075820923
1761399234187409400,4.825409423828125,1.5050550699234009,-14.937499046325684,2.8856115341186523
1761399234197490200,4.835490234375,1.5899744033813477,-15.739781379699707,3.7892730236053467
1761399234207571000,4.845571044921875,1.252990484237671,-15.026084899902344,3.19865345954895
1761399234217631000,4.855630859375,0.5707178115844727,-13.02019214630127,1.7173160314559937
1761399234227723800,4.865723876953125,0.3886836767196655,-11.352032661437988,0.07571662962436676
1761399234237813000,4.87581298828125,0.9023895859718323,-10.71914005279541,-1.7066168785095215
1761399234247881700,4.8858818359375,1.1621605157852173,-10.426748275756836,-2.9293057918548584
1761399234257974300,4.895974365234375,1.045817255973816,-10.153959274291992,-3.748347282409668
1761399234268054500,4.906054443359375,1.1038765907287598,-9.96025276184082,-4.125209331512451
1761399234278135000,4.916135009765625,1.0322002172470093,-9.615861892700195,-4.168679237365723
1761399234288214000,4.926214111328125,1.3384336233139038,-8.954239845275879,-4.195613861083984
1761399234298280200,4.9362802734375,1.5518168210983276,-8.399907112121582,-3.814711570739746
1761399234308351000,4.94635107421875,1.4824597835540771,-7.808314800262451,-3.3360955715179443
1761399234318459000,4.956458984375,0.9258826971054077,-7.194351673126221,-2.8212673664093018
1761399234328539100,4.9665390625,0.3457376956939697,-6.637475490570068,-2.010456085205078
1761399234338595800,4.976595947265625,0.06673837453126907,-6.237269401550293,-1.4098855257034302
1761399234348700200,4.9867001953125,0.07713818550109863,-6.0872578620910645,-0.9753379225730896
1761399234358778600,4.996778564453125,0.2850596308708191,-6.277671813964844,-0.7792378067970276
1761399234368862200,5.0068623046875,0.7410054206848145,-6.571186065673828,-0.6829460263252258
1761399234378929700,5.0169296875,1.4847791194915771,-6.843526363372803,-0.39466917514801025
1761399234389023000,5.02702294921875,2.2171056270599365,-6.921263217926025,0.0036661212798208
1761399234399104000,5.03710400390625,2.6466403007507324,-6.764068603515625,0.1577928513288498
1761399234409172000,5.047171875,2.9042415618896484,-6.844349384307861,0.9885808229446411
1761399234419263200,5.05726318359375,2.9420998096466064,-6.501080513000488,1.1559505462646484
1761399234429334300,5.067334228515625,2.7959787845611572,-6.070498466491699,1.1572223901748657
1761399234439427000,5.077427001953125,2.3796119689941406,-5.657947540283203,1.054795503616333
1761399234449507300,5.08750732421875,1.8165256977081299,-5.49656343460083,0.8741828799247742
1761399234459588000,5.097588134765625,1.4725089073181152,-5.6145524978637695,0.40192660689353943
1761399234469656000,5.107656005859375,1.2362310886383057,-5.89856481552124,-0.28476035594940186
1761399234479730700,5.117730712890625,1.1443536281585693,-6.203675746917725,-1.006163239479065
1761399234489817300,5.1278173828125,1.4320318698883057,-6.376956462860107,-1.6112977266311646
1761399234499910700,5.13791064453125,1.9278560876846313,-6.42888069152832,-2.155604600906372
1761399234509991400,5.147991455078125,2.398017406463623,-6.637774467468262,-2.7475709915161133
1761399234520068400,5.158068359375,2.839672803878784,-7.061174392700195,-3.4939632415771484
1761399234530152700,5.168152587890625,3.370661973953247,-7.8337531089782715,-4.2480621337890625
1761399234550301200,5.18830126953125,5.005377769470215,-9.950601577758789,-5.682039260864258
1761399234560395300,5.198395263671875,5.6781487464904785,-10.991031646728516,-6.346205711364746
1761399234570463000,5.208462890625,6.073790550231934,-11.737573623657227,-7.128885269165039
1761399234580555500,5.218555419921875,6.22731876373291,-11.68998908996582,-7.9048309326171875
1761399234590635300,5.22863525390625,5.969044208526611,-11.015497207641602,-8.164976119995117
1761399234600716300,5.23871630859375,5.234173774719238,-10.157550811767578,-7.965658664703369
1761399234610794500,5.24879443359375,4.508431434631348,-9.462183952331543,-7.586028099060059
1761399234620879400,5.25887939453125,3.634622573852539,-8.843731880187988,-7.216348171234131
1761399234630959900,5.2689599609375,3.146205425262451,-8.155698776245117,-6.698003768920898
1761399234641040400,5.279040283203125,3.437175750732422,-7.370175838470459,-6.0620436668396
1761399234651120600,5.28912060546875,4.18536376953125,-6.638672351837158,-5.216366767883301
1761399234661189000,5.299189208984375,5.06987190246582,-6.561010360717773,-4.148927211761475
1761399234671282700,5.30928271484375,5.302558422088623,-8.790386199951172,-3.2339680194854736
1761399234681346800,5.319346923828125,4.572925090789795,-12.94657039642334,-2.951003313064575
1761399234691444200,5.3294443359375,4.239607334136963,-16.371177673339844,-2.2228665351867676
1761399234701524500,5.3395244140625,4.023680210113525,-17.777023315429688,-1.0286089181900024
1761399234711590000,5.34958984375,2.5573813915252686,-17.343446731567383,0.02371755987405777
1761399234721679600,5.3596796875,-0.012569558806717396,-14.343811988830566,0.06643909960985184
1761399234731756300,5.36975634765625,-1.5595979690551758,-9.175029754638672,-0.3687070608139038
1761399234741845500,5.379845458984375,-0.9555109143257141,-6.389151573181152,-0.16639702022075653
1761399234751928300,5.38992822265625,0.0073322425596416,-4.9280900955200195,-0.38875851035118103
1761399234762008800,5.4000087890625,-0.21293431520462036,-4.272153854370117,-0.7844003438949585
1761399234772089900,5.41008984375,-0.8835352659225464,-5.263652324676514,-0.3461866080760956
1761399234782170600,5.420170654296875,-1.011325716972351,-7.210587501525879,0.9562591314315796
1761399234792251400,5.43025146484375,-0.998831033706665,-9.238027572631836,1.2979565858840942
1761399234802330000,5.440330078125,-1.7671452760696411,-11.162740707397461,-0.04339490458369255
1761399234812399900,5.45039990234375,-3.4246811866760254,-12.799626350402832,-1.9220201969146729
1761399234822493400,5.460493408203125,-4.811747074127197,-11.933749198913574,-3.550825595855713
1761399234832561200,5.47056103515625,-3.988889694213867,-10.867955207824707,-5.729324817657471
1761399234842654700,5.48065478515625,-2.194211006164551,-9.759663581848145,-6.299219608306885
1761399234852735700,5.49073583984375,-0.9229647517204285,-8.985737800598145,-6.013261795043945
1761399234862802700,5.500802734375,-0.30039748549461365,-9.053973197937012,-5.251382350921631
1761399234872895000,5.51089501953125,0.20635025203227997,-9.228974342346191,-3.947664499282837
1761399234882977300,5.520977294921875,0.6223428249359131,-9.298630714416504,-2.5749640464782715
1761399234893069600,5.531069580078125,0.7252934575080872,-9.187748908996582,-1.5376760959625244
1761399234903138600,5.541138671875,0.4347720742225647,-9.343820571899414,-1.271021842956543
1761399234913206800,5.551206787109375,0.21704934537410736,-9.271546363830566,-1.1668740510940552
1761399234923300000,5.561300048828125,0.0918026715517044,-9.528249740600586,-1.5186721086502075
1761399234933369900,5.571369873046875,-0.03486556187272072,-9.434576034545898,-1.7753005027770996
1761399234943460900,5.5814609375,-0.20365677773952484,-9.16657543182373,-1.9221699237823486
1761399234953542100,5.591542236328125,-0.6325181722640991,-8.6967134475708,-1.92867910861969
1761399234963622700,5.60162255859375,-1.0907084941864014,-8.284985542297363,-2.273967981338501
1761399234973704000,5.611703857421875,-1.3700071573257446,-7.941941261291504,-2.7112090587615967
1761399234983783700,5.62178369140625,-1.5681272745132446,-7.912611961364746,-3.41024112701416
1761399234993865200,5.631865234375,-1.5924433469772339,-7.915530204772949,-4.290035247802734
1761399235003933000,5.641932861328125,-1.4892683029174805,-8.03187370300293,-5.139378547668457
1761399235014026200,5.652026123046875,-0.7972691655158997,-8.18293285369873,-5.733140468597412
1761399235024095700,5.662095703125,-0.2941127121448517,-8.4108304977417,-5.955427169799805
1761399235034175700,5.67217578125,0.08828619122505188,-8.454898834228516,-5.583502769470215
1761399235044251600,5.682251708984375,0.5943605899810791,-8.700603485107422,-4.752415657043457
1761399235054348500,5.6923486328125,0.9139865040779114,-8.860042572021484,-3.9550716876983643
1761399235064408800,5.702408935546875,0.9964368343353271,-8.840141296386719,-3.3069162368774414
1761399235074510300,5.71251025390625,0.7656208276748657,-8.7931547164917,-3.1774048805236816
1761399235084589000,5.722589111328125,0.4911854565143585,-8.804153442382812,-3.3797898292541504
1761399235094671600,5.732671630859375,0.2882768511772156,-8.827272415161133,-3.76525616645813
1761399235104752600,5.742752685546875,0.2668786644935608,-8.918326377868652,-4.12251615524292
1761399235114833400,5.75283349609375,0.4073135554790497,-8.891691207885742,-4.371064186096191
1761399235124901000,5.762901123046875,0.6019172668457031,-8.853981971740723,-4.4985551834106445
1761399235134994400,5.772994384765625,0.5213374495506287,-8.782381057739258,-4.441992282867432
1761399235145075500,5.783075439453125,0.5485714673995972,-8.649577140808105,-4.531625270843506
1761399235155147300,5.793147216796875,0.2794482409954071,-8.542661666870117,-4.542548656463623
1761399235165236500,5.803236572265625,0.06374561786651611,-8.556801795959473,-4.562450408935547
1761399235175317000,5.81331689453125,0.06000468134880066,-8.63094711303711,-4.64707088470459
1761399235185385500,5.823385498046875,0.09980828315019608,-8.772579193115234,-4.590283393859863
1761399235195465200,5.83346533203125,-0.28805238008499146,-8.468441009521484,-4.309263706207275
1761399235205556700,5.843556640625,-0.07249941676855087,-9.498846054077148,-5.150975227355957
1761399235215639000,5.85363916015625,0.04945522919297218,-10.044649124145508,-5.1780595779418945
1761399235225707800,5.863707763671875,0.2893243134021759,-9.755474090576172,-4.917465686798096
1761399235235801600,5.873801513671875,0.6226420998573303,-9.377938270568848,-4.416927814483643
1761399235245880000,5.883880126953125,1.0137947797775269,-9.340080261230469,-3.60028076171875
1761399235255960800,5.8939609375,1.4168436527252197,-9.506925582885742,-2.896984100341797
1761399235266043100,5.904043212890625,1.5043816566467285,-9.5531644821167,-2.535085439682007
1761399235276124000,5.9141240234375,1.2667571306228638,-9.251644134521484,-2.653373956680298
1761399235286205000,5.924204833984375,0.8752303719520569,-8.645462036132812,-2.7806408405303955
1761399235296285700,5.93428564453125,0.4709095358848572,-8.223709106445312,-2.9844472408294678
1761399235306366000,5.944365966796875,-0.28483518958091736,-8.603039741516113,-4.11787748336792
1761399235316436700,5.954436767578125,-0.8672247529029846,-9.563414573669434,-5.870882034301758
1761399235326514700,5.9645146484375,-0.18622399866580963,-9.897705078125,-6.670096397399902
1761399235336595500,5.974595458984375,1.5359551906585693,-11.713631629943848,-6.617573261260986
1761399235346689000,5.98468896484375,2.4565258026123047,-13.056854248046875,-5.265448093414307
1761399235356769800,5.994769775390625,2.0300586223602295,-13.037924766540527,-3.6746506690979004
1761399235366850300,6.004850341796875,1.2069768905639648,-12.984055519104004,-2.311826229095459
1761399235376929000,6.014928955078125,0.3398270010948181,-14.102296829223633,-1.690904974937439
1761399235387011600,6.025011474609375,-0.7530512809753418,-15.277326583862305,-2.2114193439483643
1761399235397092600,6.035092529296875,-1.6846950054168701,-14.988225936889648,-2.742408514022827
1761399235407173400,6.04517333984375,-2.530895709991455,-13.485116958618164,-3.2766895294189453
1761399235417242600,6.05524267578125,-2.69991135597229,-11.324798583984375,-4.9596638679504395
1761399235427335200,6.065335205078125,-2.512789487838745,-9.773131370544434,-7.070003032684326
1761399235437414000,6.075413818359375,-1.6991350650787354,-8.982970237731934,-8.424222946166992
1761399235447491300,6.0854912109375,-0.9508721828460693,-8.613739013671875,-8.931419372558594
1761399235457576700,6.09557666015625,-0.05357026308774948,-8.335039138793945,-9.165528297424316
1761399235467657500,6.105657470703125,0.6204723119735718,-7.855974197387695,-8.760009765625
1761399235477727200,6.115727294921875,0.8523358106613159,-8.037335395812988,-7.8983964920043945
1761399235487819300,6.1258193359375,1.3724761009216309,-8.886902809143066,-6.51065731048584
1761399235497899500,6.1358994140625,1.3545944690704346,-9.76909065246582,-4.651559829711914
1761399235507977200,6.145977294921875,0.4060416519641876,-9.472509384155273,-4.562974452972412
1761399235518061300,6.156061279296875,-0.7894132137298584,-8.373420715332031,-4.871527194976807
1761399235528141300,6.166141357421875,-1.4690672159194946,-7.530811786651611,-4.046500205993652
1761399235538222000,6.17622216796875,-1.3311012983322144,-6.683863162994385,-3.039588689804077
1761399235548302800,6.186302734375,-0.9459341168403625,-6.0965352058410645,-2.58813214302063
1761399235558383400,6.19638330078125,-0.9348609447479248,-5.924302577972412,-2.6583120822906494
1761399235568451600,6.20645166015625,-1.0656442642211914,-6.062941551208496,-2.8844892978668213
1761399235578547000,6.216546875,-1.2355576753616333,-6.4636712074279785,-3.4830398559570312
1761399235588625400,6.22662548828125,-1.269525408744812,-7.104868412017822,-3.889455556869507
1761399235598707000,6.23670703125,-1.219995379447937,-7.821258544921875,-4.301931381225586
1761399235608774100,6.246774169921875,-1.1850550174713135,-8.742352485656738,-4.00340461730957
1761399235618868000,6.256867919921875,-0.9401730895042419,-9.246182441711426,-3.646818161010742
1761399235628948200,6.2669482421875,-0.33608606457710266,-9.536853790283203,-2.6437222957611084
1761399235639027200,6.277027099609375,0.3868880271911621,-9.142707824707031,-2.0549733638763428
1761399235649097000,6.287096923828125,0.6759130954742432,-8.495525360107422,-1.44497549533844
1761399235659190800,6.297190673828125,0.8657283782958984,-8.081403732299805,-0.8055740594863892
1761399235669272800,6.30727294921875,1.028908133506775,-7.8973493576049805,-0.5753566026687622
1761399235679351800,6.317351806640625,1.149815320968628,-7.856573104858398,-0.7399579882621765
1761399235689432300,6.327432373046875,1.2574796676635742,-7.872958183288574,-1.1213842630386353
1761399235699498800,6.337498779296875,1.6793828010559082,-7.824625015258789,-1.7738041877746582
1761399235709594000,6.347593994140625,1.8899229764938354,-7.87310791015625,-2.4751555919647217
1761399235719663000,6.3576630859375,1.9635447263717651,-8.167295455932617,-3.1210663318634033
1761399235729755400,6.36775537109375,1.7946786880493164,-8.460884094238281,-3.8518216609954834
1761399235739823000,6.377822998046875,1.5025112628936768,-8.629376411437988,-4.668618679046631
1761399235749917000,6.3879169921875,1.0084078311920166,-8.899322509765625,-5.1793317794799805
1761399235759995400,6.397995361328125,0.9350106120109558,-9.018434524536133,-5.821277141571045
1761399235770078200,6.408078125,1.2470049858093262,-9.244162559509277,-5.795464515686035
1761399235780158500,6.418158447265625,1.5819687843322754,-9.293243408203125,-5.0726399421691895
1761399235790239500,6.428239501953125,1.9885340929031372,-9.309554100036621,-4.220304012298584
1761399235800315100,6.438315185546875,1.7099089622497559,-8.704718589782715,-3.902773141860962
1761399235810388200,6.44838818359375,1.2791770696640015,-8.21300983428955,-3.6506338119506836
1761399235820468700,6.45846875,0.9264064431190491,-7.9135847091674805,-3.5097501277923584
1761399235840638700,6.478638671875,0.6332663297653198,-7.690549850463867,-2.978611469268799
1761399235850712800,6.488712890625,0.32538697123527527,-7.912088394165039,-2.352602481842041
1761399235860804400,6.498804443359375,-0.14911387860774994,-8.412700653076172,-1.6710779666900635
1761399235870885000,6.508885009765625,-0.6307225227355957,-8.993818283081055,-1.2587515115737915
1761399235880965600,6.518965576171875,-1.034145474433899,-9.605836868286133,-1.0167875289916992
1761399235891031800,6.52903173828125,-1.2921206951141357,-10.335694313049316,-0.6941688656806946
1761399235901127200,6.539127197265625,-1.0231471061706543,-11.451242446899414,-0.6108207106590271
1761399235911208000,6.5492080078125,-0.18061259388923645,-13.177087783813477,-1.67429518699646
1761399235921278000,6.55927783203125,1.49390709400177,-15.694890022277832,-3.018040895462036
1761399235931352000,6.56935205078125,3.087996482849121,-17.339780807495117,-4.603152275085449
1761399235941450000,6.579449951171875,3.4929158687591553,-16.081403732299805,-6.268918037414551
1761399235951531000,6.589531005859375,2.448819398880005,-12.204742431640625,-6.373514652252197
1761399235961596700,6.5995966796875,1.2862848043441772,-8.222661018371582,-5.118504047393799
1761399235971691500,6.60969140625,0.4246715307235718,-5.227365493774414,-4.143539905548096
1761399235981772500,6.6197724609375,-0.619499683380127,-3.6053683757781982,-3.8617725372314453
1761399235991848700,6.6298486328125,-0.9456348419189453,-3.9192333221435547,-4.040065765380859
1761399236001934000,6.63993408203125,-0.6465092897415161,-5.690418720245361,-4.070067882537842
1761399236011989500,6.649989501953125,-1.0838252305984497,-7.904382228851318,-4.205564975738525
1761399236022070500,6.660070556640625,-0.9333645701408386,-9.828123092651367,-4.022932052612305
1761399236032151600,6.670151611328125,0.18622399866580963,-11.165285110473633,-3.444208860397339
1761399236042231600,6.6802314453125,1.3835493326187134,-11.55980396270752,-3.4030585289001465
1761399236052311800,6.690311767578125,2.0201826095581055,-10.926239013671875,-3.6762218475341797
1761399236062381600,6.700381591796875,1.8335844278335571,-9.792284965515137,-3.6100821495056152
1761399236072461800,6.7104619140625,1.2831424474716187,-8.70569133758545,-3.5813517570495605
1761399236082557400,6.720557373046875,0.6321440935134888,-7.9707465171813965,-3.4787001609802246
1761399236092644000,6.73064404296875,0.1455973982810974,-7.646930694580078,-3.3989434242248535
1761399236102724600,6.740724609375,-0.06913257390260696,-7.839139938354492,-3.290306568145752
1761399236112821800,6.75082177734375,-0.09539397060871124,-8.328679084777832,-3.1804726123809814
1761399236132983300,6.7709833984375,-0.1313818246126175,-8.87986946105957,-2.2385785579681396
1761399236143064300,6.781064208984375,-0.12928688526153564,-8.806472778320312,-2.229076623916626
1761399236153142300,6.791142333984375,-0.13123218715190887,-8.674417495727539,-2.557755708694458
1761399236163225000,6.80122509765625,-0.14065934717655182,-8.317157745361328,-2.9016976356506348
1761399236173305300,6.811305419921875,-0.29785364866256714,-8.166023254394531,-3.6275148391723633
1761399236183374300,6.821374267578125,-0.5073463320732117,-8.314912796020508,-4.276942253112793
1761399236193468200,6.83146826171875,-0.7540239095687866,-8.954538345336914,-4.730418682098389
1761399236203548000,6.8415478515625,-1.0506056547164917,-9.85191535949707,-5.2165913581848145
1761399236213604600,6.8516044921875,-0.9311948418617249,-10.303596496582031,-4.966472148895264
1761399236223708700,6.861708740234375,-0.6366332173347473,-10.326565742492676,-4.574945449829102
1761399236233779000,6.871779052734375,-0.309824675321579,-10.021530151367188,-4.386402130126953
1761399236243870700,6.88187060546875,-0.039878420531749725,-9.515680313110352,-3.983278274536133
1761399236253937000,6.89193701171875,-0.10527005791664124,-9.130288124084473,-3.788599729537964
1761399236264031700,6.90203173828125,-0.3084031045436859,-8.856376647949219,-3.4870798587799072
1761399236274104300,6.912104248046875,-0.5293430089950562,-8.814627647399902,-3.321805238723755
1761399236284191700,6.922191650390625,-0.7742998003959656,-9.010727882385254,-3.411512851715088
1761399236294273800,6.932273681640625,-1.0272622108459473,-9.235408782958984,-3.3493385314941406
1761399236304355000,6.94235498046875,-1.2477531433105469,-9.270050048828125,-3.108945608139038
1761399236314435000,6.95243505859375,-1.3507038354873657,-9.195305824279785,-3.2405519485473633
1761399236324510700,6.9625107421875,-1.3542203903198242,-8.971074104309082,-3.1530888080596924
1761399236334587100,6.972587158203125,-1.3768155574798584,-8.898948669433594,-3.215038776397705
1761399236344675300,6.98267529296875,-1.4153473377227783,-8.776246070861816,-3.566537618637085
1761399236354758400,6.99275830078125,-1.3659669160842896,-8.84859561920166,-3.9198319911956787
1761399236364838700,7.002838623046875,-1.324292778968811,-9.14697265625,-4.346897602081299
1761399236374920000,7.012919921875,-1.4613608121871948,-9.499444007873535,-4.892476558685303
1761399236385001000,7.0230009765625,-1.6433202028274536,-9.80096435546875,-5.34969425201416
1761399236395064000,7.03306396484375,-1.8429367542266846,-10.104578971862793,-5.648221015930176
1761399236405160000,7.043159912109375,-1.9500024318695068,-10.52438735961914,-5.818284034729004
1761399236415242800,7.05324267578125,-1.815627932548523,-10.904541015625,-5.700145244598389
1761399236425323000,7.063322998046875,-1.552415370941162,-11.330185890197754,-5.633706092834473
1761399236435391700,7.073391845703125,-1.0622025728225708,-11.483564376831055,-5.443516731262207
1761399236445483800,7.08348388671875,-0.662894606590271,-11.406800270080566,-5.218536853790283
1761399236455552500,7.093552490234375,-0.38711249828338623,-10.846780776977539,-5.382165431976318
1761399236465634600,7.103634521484375,-0.13130700588226318,-10.069937705993652,-5.373187065124512
1761399236475725800,7.113725830078125,0.1934066116809845,-9.57097053527832,-5.1238908767700195
1761399236485807000,7.12380712890625,0.6006453633308411,-9.442731857299805,-4.603750705718994
1761399236495875600,7.13387548828125,0.7682394981384277,-9.732280731201172,-4.4397478103637695
1761399236505968400,7.143968505859375,0.8687959313392639,-10.026318550109863,-4.15723180770874
1761399236516049700,7.154049560546875,0.6926724910736084,-9.988235473632812,-4.043582439422607
1761399236526128400,7.16412841796875,0.48789340257644653,-9.411232948303223,-3.6330513954162598
1761399236536187400,7.1741875,0.6243628859519958,-9.074697494506836,-3.5048868656158447
1761399236546291500,7.18429150390625,0.9646388292312622,-8.955885887145996,-3.4375498294830322
1761399236556372500,7.19437255859375,1.0379612445831299,-9.231218338012695,-3.6606595516204834
1761399236566440200,7.204440185546875,0.6828712224960327,-9.905336380004883,-4.04201078414917
1761399236576534000,7.214533935546875,0.09733926504850388,-10.746150016784668,-4.381688594818115
1761399236586598700,7.2245986328125,-0.6854150295257568,-11.028889656066895,-4.337021350860596
1761399236596693200,7.234693359375,-1.1982231140136719,-10.853290557861328,-4.355426788330078
1761399236606763000,7.244762939453125,-1.5222634077072144,-10.744877815246582,-4.3517608642578125
1761399236616848100,7.25484814453125,-1.6371850967407227,-10.683975219726562,-4.310161590576172
1761399236626916400,7.264916259765625,-1.2912976741790771,-11.113959312438965,-4.430245876312256
1761399236637005000,7.275005126953125,-0.8152256608009338,-11.798476219177246,-4.147580146789551
1761399236647098000,7.28509814453125,-0.267851322889328,-11.760767936706543,-3.354875087738037
1761399236657177000,7.295177001953125,-0.06688801199197769,-11.43216323852539,-3.3068413734436035
1761399236667260000,7.305260009765625,-0.05761047825217247,-11.138798713684082,-3.6035728454589844
1761399236677324800,7.31532470703125,-0.12389993667602539,-11.190947532653809,-3.406724452972412
1761399236687403800,7.32540380859375,0.12098200619220734,-11.285518646240234,-2.7254245281219482
1761399236697502200,7.335502197265625,0.4305073916912079,-11.106552124023438,-2.0869956016540527
1761399236707555300,7.345555419921875,0.8575730919837952,-10.894889831542969,-1.393051266670227
1761399236717661400,7.355661376953125,1.011325716972351,-10.471415519714355,-0.855029284954071
1761399236727733500,7.3657333984375,1.0980406999588013,-9.764078140258789,-0.8169465065002441
1761399236737824500,7.375824462890625,1.0310031175613403,-9.250970840454102,-0.7987655401229858
1761399236747892500,7.385892578125,0.8646060824394226,-8.872088432312012,-0.6350619792938232
1761399236757985800,7.39598583984375,0.722749650478363,-8.617854118347168,-0.5888239741325378
1761399236768056600,7.406056640625,0.6950666904449463,-8.299874305725098,-0.44524669647216797
1761399236778147300,7.416147216796875,0.9192237854003906,-7.902736186981201,-0.4676175117492676
1761399236788226000,7.42622607421875,0.9050082564353943,-7.44065523147583,-0.5371242165565491
1761399236798308600,7.43630859375,0.7811083197593689,-6.98044490814209,-0.5063736438751221
1761399236808391200,7.44639111328125,0.8000374436378479,-6.585176944732666,-0.8310872912406921
1761399236818457000,7.45645703125,0.9293243288993835,-6.272958278656006,-1.0219500064849854
1761399236828539000,7.466538818359375,1.1354501247406006,-6.130128860473633,-1.053074598312378
1761399236838619100,7.476619140625,1.2915221452713013,-5.962235450744629,-0.9030629396438599
1761399236848710700,7.486710693359375,1.6390554904937744,-5.6012349128723145,-0.456095427274704
1761399236858793200,7.496793212890625,2.004694938659668,-5.054084777832031,0.0834977850317955
1761399236868873200,7.506873291015625,2.41507625579834,-4.4782795906066895,0.304063618183136
1761399236878963000,7.516962890625,2.7240030765533447,-3.9980924129486084,0.13602058589458466
1761399236889035300,7.52703515625,2.9367876052856445,-3.7602434158325195,-0.43843817710876465
1761399236899116000,7.537115966796875,3.125330924987793,-3.5784337520599365,-1.2195464372634888
1761399236909196800,7.54719677734375,3.5250132083892822,-3.5516486167907715,-2.090437412261963
1761399236919264500,7.557264404296875,4.121318817138672,-3.8820483684539795,-3.142240047454834
1761399236929357800,7.56735791015625,4.7171759605407715,-4.578012943267822,-4.366200923919678
1761399236939439000,7.577439208984375,5.417405128479004,-5.9450273513793945,-5.933579921722412
1761399236949509000,7.587509033203125,5.533748149871826,-8.250568389892578,-7.499462604522705
1761399236959599900,7.597599853515625,5.204171657562256,-11.23022747039795,-8.83819580078125
1761399236969680600,7.6076806640625,5.71817684173584,-14.604480743408203,-10.050110816955566
1761399236979759600,7.617759521484375,6.752471923828125,-17.362451553344727,-11.041908264160156
1761399236989829400,7.627829345703125,6.74267053604126,-17.31067657470703,-11.079767227172852
1761399236999922700,7.637922607421875,6.528314590454102,-13.857190132141113,-9.476848602294922
1761399237010003000,7.6480029296875,6.632687091827393,-10.325368881225586,-7.387458801269531
1761399237020084000,7.658083984375,6.274155139923096,-7.921066761016846,-5.997176170349121
1761399237030165000,7.6681650390625,5.931634902954102,-5.888763427734375,-5.076605319976807
1761399237040242200,7.6782421875,5.782969951629639,-4.181996822357178,-4.466832160949707
1761399237050326300,7.688326171875,3.9502830505371094,-5.2201080322265625,-4.651859283447266
1761399237060406800,7.69840673828125,1.9812767505645752,-9.291373252868652,-5.426233768463135
1761399237070488000,7.708488037109375,0.9774328470230103,-12.548160552978516,-5.001861572265625
1761399237080566000,7.71856591796875,-0.9086743593215942,-14.002264022827148,-3.6630537509918213
1761399237090646500,7.728646484375,-2.0820577144622803,-14.484247207641602,-2.1703438758850098
1761399237100729300,7.738729248046875,-2.217928647994995,-13.616947174072266,-1.1325322389602661
1761399237110806000,7.748805908203125,2.0121021270751953,-12.257863998413086,-1.4856021404266357
1761399237120891000,7.758890869140625,4.774936199188232,-10.192715644836426,-2.2461352348327637
1761399237130971600,7.7689716796875,2.969259023666382,-7.026757717132568,-2.408417224884033
1761399237141042400,7.77904248046875,-0.5239560604095459,-3.8202481269836426,-1.5179986953735352
1761399237151133200,7.78913330078125,-2.5103952884674072,-1.8410662412643433,-0.14589667320251465
1761399237161213700,7.799213623046875,-2.507028341293335,-1.6837223768234253,0.4329015910625458
1761399237171279400,7.809279296875,-3.1219642162323,-4.450746059417725,-0.38464346528053284
1761399237181375200,7.819375244140625,-4.518157958984375,-10.287510871887207,-2.276960611343384
1761399237191455500,7.82945556640625,-5.646574974060059,-14.133795738220215,-4.05353307723999
1761399237201534700,7.83953466796875,-3.179649591445923,-16.888473510742188,-5.35433292388916
1761399237211606300,7.849606201171875,0.7930045127868652,-17.581296920776367,-5.968296051025391
1761399237221668000,7.859668212890625,2.3283610343933105,-12.907440185546875,-4.327070713043213
1761399237231766000,7.86976611328125,1.899499773979187,-9.095871925354004,-2.2777087688446045
1761399237241834000,7.879833984375,0.7465420365333557,-7.617900848388672,-0.9977835416793823
1761399237251940000,7.889940185546875,0.5796212553977966,-7.555352210998535,-0.5477484464645386
1761399237262020400,7.900020263671875,1.0316016674041748,-8.1918363571167,-0.41210195422172546
1761399237272101600,7.9101015625,1.1128548383712769,-8.99164867401123,-0.5223848819732666
1761399237282180000,7.92018017578125,0.750731885433197,-9.407341957092285,-0.7955483198165894
1761399237292263000,7.930262939453125,0.5466261506080627,-9.194108963012695,-1.0252420902252197
1761399237302332000,7.940331787109375,0.5484218001365662,-8.683769226074219,-1.1217583417892456
1761399237312424400,7.950424560546875,0.4701613485813141,-8.250643730163574,-1.366266131401062
1761399237322492200,7.9604921875,0.22281040251255035,-8.094646453857422,-1.595361351966858
1761399237332585500,7.97058544921875,-0.11709142476320267,-8.127641677856445,-1.7340754270553589
1761399237342652200,7.980652099609375,-0.4213046729564667,-8.253262519836426,-1.8886510133743286
1761399237352734200,7.990734130859375,-0.4639514088630676,-8.358906745910645,-2.1494693756103516
1761399237362826000,8.000825927734375,-0.25760114192962646,-8.30017375946045,-2.485929489135742
1761399237372908300,8.010908203125,0.1016039326786995,-7.976357936859131,-2.831592321395874
1761399237382971100,8.02097119140625,0.5080944895744324,-7.513079643249512,-3.123460531234741
1761399237393056800,8.031056884765626,0.7704840302467346,-7.179986476898193,-3.2526726722717285
1761399237403137500,8.041137451171876,0.6961889863014221,-7.157092094421387,-3.05604887008667
1761399237413231600,8.051231689453125,0.361973375082016,-7.560888767242432,-3.0125792026519775
1761399237423299800,8.0612998046875,-0.1330278366804123,-8.02955436706543,-2.9944729804992676
1761399237433372000,8.071371826171875,-0.5498433709144592,-8.289250373840332,-3.3935563564300537
1761399237443473000,8.081472900390626,-0.9148843288421631,-8.30129623413086,-3.194164276123047
1761399237453554000,8.091553955078124,-1.2425906658172607,-8.633790969848633,-3.9362919330596924
1761399237463634400,8.101634521484375,-1.1994950771331787,-9.069684982299805,-4.133065700531006
1761399237473702100,8.1117021484375,-0.5291934013366699,-9.572466850280762,-3.852046012878418
1761399237483795700,8.121795654296875,0.36242228746414185,-10.094253540039062,-3.1478514671325684
1761399237493875000,8.131875,1.0524013042449951,-10.64970874786377,-3.0133273601531982
1761399237503943200,8.141943115234374,1.0152912139892578,-10.990582466125488,-2.9841480255126953
1761399237514038000,8.1520380859375,0.7044938206672668,-10.863914489746094,-3.3610851764678955
1761399237524118800,8.162118896484374,0.6657376885414124,-10.549975395202637,-3.720215320587158
1761399237534199800,8.17219970703125,0.6985083222389221,-9.787796020507812,-3.4974796772003174
1761399237544269600,8.18226953125,-0.4553472399711609,-9.564387321472168,-5.104063987731934
1761399237554361000,8.192361083984375,-1.542240023612976,-9.568501472473145,-6.835221290588379
1761399237564439600,8.202439453125,-1.4933085441589355,-9.690905570983887,-7.545775413513184
1761399237574510000,8.212510009765625,-0.8227823972702026,-9.956586837768555,-7.56208610534668
1761399237584607000,8.22260693359375,-0.2933645248413086,-10.846257209777832,-7.580641269683838
1761399237594671400,8.23267138671875,-0.6507739424705505,-11.63454818725586,-7.60024356842041
1761399237604764000,8.242763916015624,-1.27191960811615,-11.92940902709961,-8.338780403137207
1761399237614845000,8.252844970703125,-1.592667818069458,-11.645471572875977,-8.540790557861328
1761399237624923400,8.26292333984375,-2.2536919116973877,-11.080215454101562,-8.49283218383789
1761399237634994400,8.272994384765624,-1.6476596593856812,-10.979659080505371,-8.35329532623291
1761399237645087000,8.2830869140625,-1.0391583442687988,-11.020360946655273,-7.004685878753662
1761399237655167700,8.293167724609376,-0.11873743683099747,-10.839149475097656,-4.386850833892822
1761399237665248300,8.303248291015626,1.0663175582885742,-11.574543952941895,-2.2921488285064697
1761399237675329300,8.313329345703124,2.0848259925842285,-13.272631645202637,-0.820537805557251
1761399237685407700,8.32340771484375,2.2212207317352295,-14.871359825134277,0.2917185127735138
1761399237695489800,8.33348974609375,1.3747206926345825,-15.479711532592773,1.0437971353530884
1761399237705569300,8.3435693359375,-0.10339958220720291,-14.924705505371094,1.395744800567627
1761399237715639000,8.35363916015625,-1.2618191242218018,-13.793744087219238,1.3949966430664062
1761399237725732600,8.363732666015625,-1.666663646697998,-12.733936309814453,0.9851391911506653
1761399237735813000,8.373813232421876,-1.7767220735549927,-11.653402328491211,0.04204816743731499
1761399237745899300,8.383899169921875,-1.3236942291259766,-10.998289108276367,-1.6391303539276123
1761399237755972900,8.393972900390626,-0.5056254863739014,-10.737695693969727,-3.152714729309082
1761399237766055200,8.40405517578125,0.1809118688106537,-10.904017448425293,-4.487631797790527
1761399237776124200,8.414124267578124,0.3818751573562622,-11.118074417114258,-5.070470333099365
1761399237786216700,8.424216796875,0.2455553114414215,-11.081188201904297,-5.217638969421387
1761399237796284700,8.43428466796875,-0.054991818964481354,-10.417920112609863,-5.126509666442871
1761399237806376000,8.4443759765625,-0.3164087235927582,-9.451709747314453,-4.825887680053711
1761399237816453000,8.454453125,-0.8309376239776611,-9.057339668273926,-4.326846122741699
1761399237826507800,8.4645078125,-0.894533634185791,-8.692224502563477,-3.9386863708496094
1761399237836607700,8.474607666015626,-0.4686649739742279,-8.564508438110352,-3.3726820945739746
1761399237846700000,8.484699951171875,-0.48879122734069824,-8.501062393188477,-2.495880365371704
1761399237856781600,8.494781494140625,-1.0311527252197266,-8.175899505615234,-2.1541829109191895
1761399237866862000,8.504862060546875,-0.9549123644828796,-7.841459274291992,-1.806275486946106
1761399237876940500,8.5149404296875,-0.4743511974811554,-7.438485622406006,-1.3259388208389282
1761399237887004700,8.525004638671875,-0.019303251057863235,-6.991667747497559,-0.6834697723388672
1761399237897091600,8.535091552734375,0.26485857367515564,-6.649970054626465,-0.07414543628692627
1761399237907185000,8.545184814453124,0.1825578808784485,-6.377330303192139,0.11686696857213974
1761399237917254400,8.55525439453125,0.11335048824548721,-5.9060468673706055,-0.24091655015945435
1761399237927347000,8.565346923828125,0.32037410140037537,-6.092944145202637,0.549544095993042
1761399237937425200,8.575425048828125,0.5100398063659668,-5.940762519836426,0.6659621596336365
1761399237947507500,8.585507568359375,0.7013514637947083,-5.535244464874268,0.41606736183166504
1761399237957588700,8.595588623046876,0.9739163517951965,-5.196016311645508,0.42265141010284424
1761399237967669000,8.6056689453125,1.1769745349884033,-4.827608585357666,0.29141923785209656
1761399237977748500,8.61574853515625,1.387888789176941,-4.813542366027832,0.4728548228740692
1761399237987817500,8.6258173828125,1.660528540611267,-4.6414594650268555,0.38898295164108276
1761399237997909800,8.63590966796875,2.201767683029175,-4.437129020690918,0.548346996307373
1761399238007991800,8.64599169921875,3.023876667022705,-4.1198225021362305,0.7640495896339417
1761399238018072800,8.65607275390625,3.980958938598633,-3.840972900390625,0.5927145481109619
1761399238028153000,8.666153076171875,5.280636310577393,-3.9681649208068848,0.09621698409318924
1761399238038234000,8.676234130859376,6.7520976066589355,-4.897713661193848,-1.26458740234375
1761399238048315400,8.6863154296875,7.193902969360352,-6.609642505645752,-3.359588623046875
1761399238058382600,8.696382568359375,4.74036979675293,-8.870741844177246,-6.110227108001709
1761399238068473900,8.706473876953124,3.470320463180542,-12.246267318725586,-9.644891738891602
1761399238078557000,8.716556884765625,4.601954936981201,-16.772579193115234,-12.948067665100098
1761399238088638200,8.72663818359375,5.525817394256592,-19.720964431762695,-14.31246280670166
1761399238098718000,8.736718017578125,6.523975372314453,-17.34314727783203,-12.92457389831543
1761399238108786700,8.74678662109375,6.451924800872803,-12.320262908935547,-10.478074073791504
1761399238118875100,8.756875244140625,6.139481544494629,-8.328530311584473,-8.480262756347656
1761399238128946400,8.766946533203125,5.055431842803955,-5.112817764282227,-6.899415969848633
1761399238139038500,8.77703857421875,4.295721530914307,-2.43475341796875,-5.608043193817139
1761399238149121800,8.787121826171875,4.443114757537842,-0.9775076508522034,-4.636221885681152
1761399238159198000,8.797197998046874,3.314098834991455,-4.093186855316162,-4.121992111206055
1761399238169282800,8.80728271484375,1.9057097434997559,-12.180800437927246,-5.58866548538208
1761399238179363800,8.81736376953125,1.1969512701034546,-20.206388473510742,-4.955772876739502
1761399238189444600,8.827444580078126,-1.0007762908935547,-24.674118041992188,-3.726275682449341
1761399238199510000,8.837510009765625,-1.0749965906143188,-21.533226013183594,-4.427402496337891
1761399238209606000,8.84760595703125,1.901893973350525,-14.27886962890625,-4.539107322692871
1761399238219686000,8.857685791015625,2.864138603210449,-7.555651664733887,-3.4605941772460938
1761399238229754600,8.867754638671874,0.6157587766647339,-2.729015827178955,-1.1315596103668213
1761399238239835000,8.8778349609375,-1.7824832201004028,-0.03651157766580582,1.324292778968811
1761399238249928700,8.8879287109375,-3.8138885498046875,0.12606967985630035,2.9887118339538574
1761399238260007700,8.898007568359375,-4.055627822875977,-1.1228805780410767,3.2007484436035156
1761399238270089500,8.90808935546875,-4.36844539642334,-3.9542486667633057,1.9800047874450684
1761399238280170800,8.918170654296874,-5.227889060974121,-9.37621784210205,-0.0785597413778305
1761399238290251500,8.92825146484375,-4.57576847076416,-15.611018180847168,-2.607285737991333
1761399238300319000,8.938319091796876,-2.5322422981262207,-19.15578269958496,-4.576591491699219
1761399238310412800,8.948412841796875,0.9711480736732483,-19.0794677734375,-5.698275089263916
1761399238320484900,8.95848486328125,2.190619707107544,-15.4155912399292,-5.299041748046875
1761399238330549000,8.968549072265626,2.1575498580932617,-10.216806411743164,-3.609109401702881
1761399238340652800,8.97865283203125,0.9219921231269836,-7.506645202636719,-1.6365865468978882
1761399238350734300,8.988734375,-0.02985270321369171,-6.807239055633545,-0.5056254863739014
1761399238360801800,8.9988017578125,0.2024596780538559,-7.730503082275391,-0.8421604633331299
1761399238370896400,9.008896484375,0.9235633015632629,-9.394996643066406,-1.1952303647994995
1761399238380977200,9.01897705078125,0.8807669281959534,-10.621726036071777,-1.2647370100021362
1761399238391054000,9.02905419921875,0.7503577470779419,-10.759468078613281,-1.252017855644226
1761399238401149700,9.039149658203126,0.9677812457084656,-10.133907318115234,-1.3332710266113281
1761399238411219200,9.04921923828125,1.2333132028579712,-9.340753555297852,-1.5924433469772339
1761399238421287200,9.059287109375,1.2271779775619507,-8.619575500488281,-1.8437597751617432
1761399238431358000,9.06935791015625,1.022698163986206,-8.067337036132812,-2.150891065597534
1761399238441460200,9.079460205078124,0.7783399820327759,-7.735366344451904,-2.3446717262268066
1761399238451538400,9.089538330078126,0.3982604742050171,-7.570615291595459,-2.474856376647949
1761399238461623600,9.09962353515625,0.014739303849637508,-7.551461696624756,-2.617236614227295
1761399238471691000,9.10969091796875,-0.14365209639072418,-7.677755832672119,-2.804807186126709
1761399238481785000,9.11978515625,-0.11537059396505356,-7.873182773590088,-3.128772735595703
1761399238491852800,9.129852783203125,0.19370588660240173,-7.919495582580566,-3.2846951484680176
1761399238501945900,9.13994580078125,0.5511152744293213,-7.767239093780518,-3.241973638534546
1761399238512013600,9.150013671875,0.8654291033744812,-7.435866832733154,-3.2683846950531006
1761399238522102800,9.160102783203126,1.0672154426574707,-7.161730766296387,-3.3077392578125
1761399238532188200,9.170188232421875,1.1520599126815796,-7.120505332946777,-3.4449570178985596
1761399238542268400,9.180268310546875,1.0817302465438843,-7.403994083404541,-3.609558343887329
1761399238552349700,9.190349609375,0.862511157989502,-7.932888031005859,-3.7606923580169678
1761399238562430000,9.200429931640626,0.4602852761745453,-8.484078407287598,-3.9281368255615234
1761399238572510700,9.2105107421875,0.017881693318486214,-8.955810546875,-3.78141713142395
1761399238582591200,9.22059130859375,-0.1843535304069519,-9.118765830993652,-3.7735612392425537
1761399238592671700,9.230671630859375,-0.2007388472557068,-9.018135070800781,-3.5493292808532715
1761399238602752800,9.240752685546875,0.017881693318486214,-8.99045181274414,-3.285518169403076
1761399238612833800,9.250833740234375,0.21256022155284882,-9.332149505615234,-3.092784881591797
1761399238622914000,9.2609140625,0.002917933277785778,-9.8529634475708,-3.099668264389038
1761399238632994800,9.270994873046876,-0.4569184184074402,-10.152911186218262,-3.0878467559814453
1761399238643063300,9.281063232421875,-0.6738929748535156,-10.353052139282227,-3.223942279815674
1761399238653156000,9.291156005859374,-0.828393816947937,-10.555511474609375,-3.728969097137451
1761399238663235800,9.30123583984375,-0.9619453549385071,-10.683825492858887,-4.253523826599121
1761399238673318000,9.31131787109375,-0.9273042678833008,-10.668712615966797,-4.716801643371582
1761399238683397400,9.3213974609375,-0.6335656046867371,-10.554688453674316,-4.810774326324463
1761399238693479000,9.33147900390625,-0.23485621809959412,-10.646041870117188,-4.690690040588379
1761399238703547100,9.341547119140625,0.21697452664375305,-10.897882461547852,-4.566191673278809
1761399238713634600,9.351634521484375,0.529268205165863,-10.970755577087402,-4.857460975646973
1761399238723720700,9.361720703125,0.3387047350406647,-10.863615036010742,-5.644105911254883
1761399238733802000,9.371802001953125,-0.10205284506082535,-10.750265121459961,-7.237297534942627
1761399238743867600,9.38186767578125,-0.34992754459381104,-10.444331169128418,-8.569520950317383
1761399238753963000,9.391962890625,-0.5062240362167358,-9.960627555847168,-9.5972318649292
1761399238764044300,9.402044189453125,-1.1543045043945312,-9.204732894897461,-9.895983695983887
1761399238774111700,9.41211181640625,-0.9698013067245483,-8.79584789276123,-9.505728721618652
1761399238784205800,9.422205810546876,-0.6712743043899536,-8.593313217163086,-7.844078063964844
1761399238794285600,9.43228564453125,0.05843348428606987,-8.6967134475708,-5.5540242195129395
1761399238804366600,9.44236669921875,0.815599799156189,-9.700632095336914,-3.5952680110931396
1761399238814447000,9.452447021484375,1.6722750663757324,-11.526360511779785,-1.864858627319336
1761399238824528100,9.462528076171875,2.3324012756347656,-13.59367847442627,-0.411503404378891
1761399238834597000,9.47259716796875,2.224961519241333,-14.926351547241211,0.7139958143234253
1761399238844676600,9.482676513671874,1.3634229898452759,-14.953210830688477,1.5371522903442383
1761399238854763800,9.492763671875,0.17993922531604767,-14.175395011901855,1.873836874961853
1761399238864838400,9.50283837890625,-0.8853309154510498,-12.981736183166504,1.65656316280365
1761399238874931200,9.51293115234375,-1.1850550174713135,-11.729642868041992,0.6422445774078369
1761399238884999400,9.52299951171875,-0.772429347038269,-10.854187965393066,-0.8566752672195435
1761399238895092500,9.533092529296875,0.13213001191616058,-10.727669715881348,-2.6572647094726562
1761399238905145900,9.543145751953125,1.0093804597854614,-11.138874053955078,-4.505139350891113
1761399238915254300,9.553254150390625,1.161412239074707,-11.117849349975586,-5.440748691558838
1761399238925335000,9.5633349609375,0.8686463236808777,-10.356718063354492,-5.263128757476807
1761399238935415600,9.57341552734375,0.27712884545326233,-9.499893188476562,-5.003208160400391
1761399238945494500,9.58349462890625,-0.142155721783638,-8.973243713378906,-4.85791015625
1761399238955575000,9.593574951171876,-0.2514660060405731,-8.687061309814453,-4.49870491027832
1761399238965655300,9.6036552734375,0.4325275123119354,-8.659004211425781,-3.9521536827087402
1761399238975726600,9.6137265625,0.46178165078163147,-9.005640029907227,-2.9212253093719482
1761399238985819100,9.623819091796875,-0.05110124126076698,-9.101258277893066,-2.4282443523406982
1761399238995891200,9.63389111328125,-0.552312433719635,-9.024569511413574,-1.9081788063049316
1761399239005980400,9.64398046875,-0.4180874824523926,-8.480037689208984,-1.484330177307129
1761399239016061000,9.65406103515625,0.15839140117168427,-7.828366279602051,-1.044545292854309
1761399239026140000,9.664139892578126,0.6652140021324158,-7.359925746917725,-0.3769371211528778
1761399239036230700,9.674230712890624,1.164030909538269,-7.094768047332764,0.20395605266094208
1761399239046303200,9.68430322265625,1.687089204788208,-6.968024730682373,-0.04653729498386383
1761399239056384500,9.694384521484375,1.8187702894210815,-6.963535785675049,-0.17402853071689606
1761399239066464500,9.704464599609375,1.753229022026062,-7.123647689819336,-0.09202712774276733
1761399239076544800,9.714544677734375,1.4416835308074951,-7.384840488433838,0.15427637100219727
1761399239086614500,9.724614501953125,1.194931149482727,-7.214328289031982,-0.4023755192756653
1761399239096693800,9.73469384765625,1.2058546543121338,-6.828711986541748,-0.8678981065750122
1761399239106787000,9.744787109375,0.9739163517951965,-6.469955921173096,-1.6985365152359009
1761399239116855300,9.754855224609376,1.0406547784805298,-6.047977924346924,-1.6157869100570679
1761399239126946800,9.76494677734375,1.454327940940857,-5.348347187042236,-1.3425486087799072
1761399239137029400,9.775029296875,1.8150293827056885,-4.68410587310791,-1.067365050315857
1761399239147110400,9.7851103515625,2.1874773502349854,-4.17144775390625,-0.9405471682548523
1761399239157177900,9.795177734375,2.5936686992645264,-4.028618335723877,-1.1246014833450317
1761399239167269600,9.80526953125,3.0481927394866943,-4.190676212310791,-1.5667057037353516
1761399239177352400,9.8153525390625,3.730390787124634,-4.673107624053955,-2.190619707107544
1761399239187433200,9.82543310546875,4.493841648101807,-5.465812683105469,-3.082834005355835
1761399239197513200,9.83551318359375,4.557886600494385,-6.518812656402588,-4.294225215911865
1761399239207594500,9.845594482421875,4.2783637046813965,-7.874753952026367,-5.985579013824463
1761399239217672700,9.855672607421875,5.304129600524902,-9.769539833068848,-7.965583801269531
1761399239227755800,9.865755859375,5.507861137390137,-11.719318389892578,-9.464728355407715
1761399239237826000,9.875825927734375,5.141623020172119,-13.234997749328613,-9.92082405090332
1761399239247911200,9.8859111328125,5.624653339385986,-13.699098587036133,-9.338284492492676
1761399239257997600,9.89599755859375,5.6984992027282715,-12.415955543518066,-7.981370449066162
1761399239268065800,9.906065673828126,5.348646640777588,-10.433931350708008,-6.195894718170166
1761399239278133800,9.9161337890625,5.189731597900391,-8.742801666259766,-4.673182487487793
1761399239288214500,9.926214599609375,5.191676616668701,-7.484798431396484,-3.6395606994628906
1761399239298295000,9.936294921875,5.38014554977417,-6.665457725524902,-2.8535144329071045
1761399239308372200,9.946372314453125,5.722067356109619,-6.639944553375244,-2.3466169834136963
1761399239318456600,9.95645654296875,5.084237098693848,-9.251420021057129,-2.816927909851074
1761399239328525800,9.96652587890625,4.602104663848877,-14.209811210632324,-4.4880805015563965
1761399239338617000,9.9766171875,3.672032117843628,-19.290233612060547,-5.072490215301514
1761399239348707800,9.986707763671875,2.1534347534179688,-21.953184127807617,-6.01887321472168
1761399239358777600,9.996777587890625,0.9943419098854065,-18.64888572692871,-7.213056564331055
1761399239368885200,10.00688525390625,-2.271049976348877,-11.164162635803223,-6.569015979766846
1761399239378966000,10.016966064453126,-3.6040966510772705,-5.307122230529785,-4.084059238433838
1761399239389046800,10.027046875,-1.5527145862579346,-1.6938228607177734,-1.0850223302841187
1761399239399102000,10.03710205078125,-0.3561375141143799,0.4380640983581543,1.020678162574768
1761399239409204200,10.047204345703125,-0.683020830154419,-0.06501753628253937,2.0346972942352295
1761399239419288600,10.05728857421875,-1.3596820831298828,-2.258181095123291,2.5959880352020264
1761399239429369300,10.067369384765625,-2.412083387374878,-4.8918776512146,1.7241992950439453
1761399239439451100,10.077451171875,-3.3721582889556885,-9.175703048706055,-0.29620763659477234
1761399239449530400,10.0875302734375,-3.9089083671569824,-14.75688648223877,-3.647416591644287
1761399239459612000,10.09761181640625,-4.480972766876221,-17.65364646911621,-5.660416603088379
1761399239469692000,10.10769189453125,-0.4816834628582001,-17.79595184326172,-6.975955486297607
1761399239479760000,10.117759765625,2.169670581817627,-15.74965763092041,-7.456516742706299
1761399239489828600,10.12782861328125,2.3412299156188965,-10.567781448364258,-4.6891188621521
1761399239499907800,10.137907958984375,1.1464484930038452,-7.437063694000244,-2.2858641147613525
1761399239510015500,10.148015380859375,-0.21622633934020996,-6.703016757965088,-1.2315922975540161
1761399239520095500,10.158095458984375,-0.2865560054779053,-7.189413547515869,-1.3462895154953003
1761399239530176500,10.168176513671876,0.30623334646224976,-7.9619927406311035,-1.7436522245407104
1761399239540253200,10.178253173828125,0.645237386226654,-8.6135892868042,-2.1680245399475098
1761399239550337500,10.188337646484374,0.6025158166885376,-8.889222145080566,-2.583867311477661
1761399239560418300,10.198418212890624,0.5130325555801392,-8.945934295654297,-3.0540287494659424
1761399239570499300,10.208499267578125,0.4512321949005127,-8.864606857299805,-3.297189950942993
1761399239580580400,10.218580322265625,0.46911388635635376,-8.456918716430664,-3.0049476623535156
1761399239590660600,10.22866064453125,0.40873512625694275,-7.993640899658203,-2.391059398651123
1761399239600716000,10.238716064453126,0.403273344039917,-7.645359516143799,-1.8882769346237183
1761399239610822000,10.24882177734375,0.46402621269226074,-7.660398006439209,-1.5683517456054688
1761399239620903200,10.258903076171874,0.5864297747612,-7.84609842300415,-1.597680687904358
1761399239630952000,10.268951904296875,0.8227075338363647,-7.920617580413818,-1.963095784187317
1761399239641039000,10.2790390625,1.095571756362915,-8.024091720581055,-2.6325743198394775
1761399239651144700,10.289144775390625,1.3851205110549927,-7.998803615570068,-3.154360771179199
1761399239661225200,10.29922509765625,1.4673463106155396,-7.904082775115967,-3.5428199768066406
1761399239671301400,10.30930126953125,1.5158289670944214,-7.867421627044678,-3.6962733268737793
1761399239681378000,10.3193779296875,1.5774048566818237,-7.668478488922119,-3.7491703033447266
1761399239691468000,10.329468017578124,1.4193874597549438,-7.530811786651611,-3.386523485183716
1761399239701523700,10.339523681640625,1.0942250490188599,-7.800907611846924,-2.6965444087982178
1761399239711629300,10.34962939453125,0.6055833697319031,-8.440533638000488,-2.071208953857422
1761399239721703000,10.359702880859375,0.1645265519618988,-9.166126251220703,-1.488669753074646
1761399239731786800,10.369786865234374,-0.10923545062541962,-9.642722129821777,-1.2405705451965332
1761399239741870600,10.37987060546875,-0.14499883353710175,-9.743877410888672,-1.3211504220962524
1761399239751951600,10.38995166015625,-0.0941968709230423,-9.720608711242676,-1.6175825595855713
1761399239762032000,10.4000322265625,0.12539631128311157,-9.940351486206055,-2.083479166030884
1761399239772113000,10.41011279296875,0.2745850086212158,-10.314221382141113,-2.727818727493286
1761399239782194200,10.420194091796875,0.26313772797584534,-10.59112548828125,-3.2808046340942383
1761399239792274200,10.430274169921875,-0.11761515587568283,-10.617162704467773,-4.124237060546875
1761399239802351000,10.44035107421875,-0.7725789546966553,-10.35993480682373,-4.944774627685547
1761399239812436000,10.45043603515625,-1.4060697555541992,-10.039037704467773,-5.77870512008667
1761399239822517200,10.460517333984376,-1.9461866617202759,-9.684770584106445,-6.432097911834717
1761399239832597500,10.470597412109376,-2.214038133621216,-9.65140151977539,-7.121328353881836
1761399239842678300,10.48067822265625,-2.034996509552002,-10.043900489807129,-7.767089366912842
1761399239852735500,10.490735595703125,-1.4840309619903564,-10.512341499328613,-8.243760108947754
1761399239862835200,10.500835205078126,-0.8001871109008789,-10.73881721496582,-7.970671653747559
1761399239872920300,10.51092041015625,-0.522758960723877,-10.756175994873047,-7.987056732177734
1761399239882975200,10.520975341796875,-0.7332242727279663,-10.794632911682129,-8.372448921203613
1761399239893080000,10.531080078125,-1.3290064334869385,-11.290157318115234,-9.027786254882812
1761399239903136800,10.54113671875,-2.050708532333374,-11.479373931884766,-9.116820335388184
1761399239913243100,10.5512431640625,-2.3970448970794678,-10.981155395507812,-8.386514663696289
1761399239923319000,10.561319091796875,-2.0091092586517334,-10.491541862487793,-7.069553852081299
1761399239933404000,10.57140380859375,-0.5545569658279419,-10.613870620727539,-5.467833042144775
1761399239943485200,10.581485107421875,0.27989715337753296,-10.620828628540039,-3.1857845783233643
1761399239953565000,10.59156494140625,0.9856629371643066,-10.947412490844727,-1.4573954343795776
1761399239963646500,10.601646484375,1.0333224534988403,-11.980958938598633,-0.40948331356048584
1761399239973727200,10.611727294921875,0.978181004524231,-13.190330505371094,0.32538697123527527
1761399239983807000,10.621806884765626,0.460659384727478,-14.173150062561035,0.9399486184120178
1761399239993884200,10.63188427734375,-0.5377227663993835,-14.13244915008545,1.105747103691101
1761399240003968300,10.64196826171875,-1.2407950162887573,-12.861950874328613,1.2270283699035645
1761399240014050000,10.652050048828125,-1.4422820806503296,-11.732336044311523,0.9995043873786926
1761399240024130000,10.662130126953125,-1.2566566467285156,-11.15189266204834,0.5240309238433838
1761399240034186000,10.67218603515625,-0.820687472820282,-11.015646934509277,-0.3428197503089905
1761399240044264700,10.6822646484375,-0.4314052164554596,-10.792238235473633,-1.2069768905639648
1761399240054372900,10.692372802734376,0.2998737692832947,-10.778546333312988,-2.2830958366394043
1761399240064427800,10.702427734375,0.7104793787002563,-10.288931846618652,-2.820519208908081
1761399240074533400,10.712533447265624,0.5013607740402222,-9.681253433227539,-3.155034065246582
1761399240084614100,10.7226142578125,-0.1182137057185173,-9.008482933044434,-3.4869303703308105
1761399240094695200,10.732695068359375,-0.6676082015037537,-8.438813209533691,-3.8353614807128906
1761399240104775400,10.742775390625,-0.7761702537536621,-8.196025848388672,-4.682310104370117
1761399240114856200,10.752856201171875,-0.16093525290489197,-8.638877868652344,-4.681711673736572
1761399240124937500,10.7629375,0.13624504208564758,-9.27842903137207,-3.636343479156494
1761399240135007000,10.773007080078125,-0.007631517946720123,-9.688286781311035,-2.9677627086639404
1761399240145098500,10.783098388671876,-0.37304654717445374,-9.988011360168457,-2.479569911956787
1761399240155179300,10.79317919921875,-0.35254621505737305,-10.106523513793945,-2.1734862327575684
1761399240165259800,10.803259765625,0.10265139490365982,-9.613842010498047,-2.116549015045166
1761399240175318300,10.813318359375,0.49537530541419983,-9.006912231445312,-1.530643105506897
1761399240185421800,10.823421875,0.47749361395835876,-8.251541137695312,-0.8764274716377258
1761399240195502600,10.833502685546875,0.3547159433364868,-7.806743621826172,-0.3429693877696991
1761399240205571600,10.843571533203125,0.7345709800720215,-7.677157402038574,0.47143328189849854
1761399240215663000,10.8536630859375,1.086817979812622,-7.271190643310547,0.5958569645881653
1761399240225744000,10.863743896484374,1.608155369758606,-6.771101474761963,0.24121582508087158
1761399240235814700,10.873814697265624,1.9148375988006592,-6.433145046234131,0.021622633561491966
1761399240245905200,10.8839052734375,1.9557634592056274,-6.133121967315674,-0.010250176303088665
1761399240255986000,10.89398583984375,1.9588310718536377,-5.809679985046387,-0.309824675321579
1761399240266067000,10.90406689453125,1.9522470235824585,-5.694608688354492,-0.21555297076702118
1761399240276147700,10.914147705078125,1.9561376571655273,-5.68084192276001,0.06434416770935059
1761399240286228200,10.924228271484376,1.887005090713501,-5.7836432456970215,0.24765023589134216
1761399240296309000,10.93430908203125,1.8480992317199707,-5.817012310028076,0.2718167006969452
1761399240306395600,10.944395751953126,1.9128174781799316,-5.706280708312988,0.07242459803819656
1761399240316470800,10.954470703125,2.187178134918213,-5.454814434051514,-0.30787938833236694
1761399240326527500,10.964527587890625,2.5680058002471924,-5.238962173461914,-0.7835773229598999
1761399240336606500,10.9746064453125,2.9316251277923584,-5.4356608390808105,-1.5327379703521729
1761399240346687500,10.9846875,3.3388638496398926,-6.068328857421875,-2.493112087249756
1761399240356767700,10.994767822265626,3.6913352012634277,-6.9910688400268555,-3.695749521255493
1761399240366848000,11.004847900390626,4.15992546081543,-8.23620319366455,-5.205368518829346
1761399240376929000,11.014928955078124,4.626420497894287,-9.80328369140625,-7.082647323608398
1761399240387019000,11.02501904296875,4.632406234741211,-11.618087768554688,-9.096769332885742
1761399240397099800,11.035099853515625,4.582651615142822,-13.279813766479492,-11.049614906311035
1761399240407196200,11.045196044921875,4.819976806640625,-13.997325897216797,-12.140547752380371
1761399240417277400,11.05527734375,4.715455055236816,-12.914997100830078,-11.936891555786133
1761399240427335200,11.065335205078124,3.896862506866455,-10.44627571105957,-11.176133155822754
1761399240437439200,11.075439208984376,3.466729164123535,-8.023643493652344,-9.687687873840332
1761399240447519700,11.085519775390624,4.115258693695068,-5.987374782562256,-8.688932418823242
1761399240457600300,11.095600341796874,4.835314750671387,-4.250606060028076,-8.162057876586914
1761399240467644700,11.105644775390624,4.7305684089660645,-2.730811595916748,-7.247398376464844
1761399240477736000,11.11573583984375,3.950432777404785,-2.0772693157196045,-5.8167877197265625
1761399240487816700,11.125816650390625,1.9243396520614624,-5.393388271331787,-4.3774237632751465
1761399240497897500,11.1358974609375,0.20216040313243866,-12.152443885803223,-5.000065803527832
1761399240508001300,11.146001220703125,0.18248306214809418,-17.20189094543457,-5.55709171295166
1761399240518080000,11.156080078125,-1.4235025644302368,-19.52149772644043,-5.265747547149658
1761399240528162300,11.166162353515626,-2.6384851932525635,-17.46001434326172,-5.189881324768066
1761399240538220000,11.176219970703125,1.3571382761001587,-14.050597190856934,-3.603797197341919
1761399240548326400,11.186326416015625,4.0061726570129395,-11.00015926361084,-0.2593967914581299
1761399240558403300,11.1964033203125,1.469441294670105,-8.11634349822998,1.1763012409210205
1761399240568488200,11.20648828125,1.0792611837387085,-6.165218830108643,2.804133892059326
1761399240578568200,11.216568115234375,1.1328314542770386,-5.276446342468262,5.234398365020752
1761399240588649200,11.226649169921876,0.019003976136446,-4.871302604675293,6.541482925415039
1761399240598730200,11.236730224609374,-1.2207435369491577,-4.998868465423584,6.327725410461426
1761399240608784100,11.2467841796875,-3.0504374504089355,-7.1699604988098145,4.098499298095703
1761399240618865200,11.256865234375,-6.258518218994141,-11.541922569274902,0.9834931492805481
1761399240628967700,11.2669677734375,-6.750077724456787,-15.21777057647705,-1.2587515115737915
1761399240639027200,11.277027099609375,-4.198980808258057,-16.75761604309082,-4.085555553436279
1761399240649133600,11.287133544921875,-1.1997195482254028,-15.541062355041504,-6.478709697723389
1761399240659213600,11.297213623046876,0.2659808397293091,-11.703680992126465,-6.228066921234131
1761399240669295000,11.307295166015624,0.547075092792511,-8.678157806396484,-5.0807952880859375
1761399240679375400,11.317375244140624,0.629675030708313,-7.702445983886719,-4.5341691970825195
1761399240689451800,11.32745166015625,0.23537994921207428,-8.03763484954834,-3.768623113632202
1761399240699517000,11.337516845703124,0.24353520572185516,-8.720281600952148,-2.3422775268554688
1761399240709617000,11.347616943359375,0.15981295704841614,-8.881889343261719,-1.1257237195968628
1761399240719698200,11.3576982421875,-0.44015902280807495,-9.048511505126953,-0.7537246346473694
1761399240729778400,11.3677783203125,-0.9457845091819763,-8.506897926330566,-0.6379051208496094
1761399240739859200,11.377859130859376,-1.4596400260925293,-8.069656372070312,-0.7563433051109314
1761399240749961200,11.387961181640625,-1.6340426206588745,-7.9405198097229,-1.3611785173416138
1761399240760017000,11.398016845703125,-1.7144728899002075,-8.01257038116455,-2.4460511207580566
1761399240770101800,11.408101806640625,-1.85468327999115,-8.132430076599121,-3.4765305519104004
1761399240780170800,11.418170654296874,-1.717690110206604,-8.214506149291992,-4.348094940185547
1761399240790238200,11.42823828125,-1.4737807512283325,-8.224456787109375,-4.940061092376709
1761399240800343300,11.43834326171875,-1.085396409034729,-8.024466514587402,-5.263428211212158
1761399240810404400,11.448404296875,-0.7083095908164978,-7.85462760925293,-5.132345199584961
1761399240820500700,11.458500732421875,-0.27308863401412964,-7.785943984985352,-4.97470235824585
1761399240830585300,11.46858544921875,0.24256256222724915,-7.899219512939453,-4.5842976570129395
1761399240840667000,11.4786669921875,0.7573907375335693,-8.081028938293457,-4.157082557678223
1761399240850746400,11.488746337890625,1.1549779176712036,-8.388235092163086,-3.5369842052459717
1761399240860828400,11.498828369140625,0.9877578616142273,-8.846949577331543,-3.3842790126800537
1761399240870908700,11.50890869140625,0.7865700721740723,-9.148544311523438,-3.4427871704101562
1761399240880963800,11.5189638671875,0.6181529760360718,-9.30229663848877,-3.4083704948425293
1761399240891043800,11.5290439453125,0.40304890275001526,-9.293842315673828,-3.2573113441467285
1761399240901150500,11.539150390625,0.3297264575958252,-9.70197868347168,-3.752985954284668
1761399240911218700,11.54921875,0.11275193840265274,-9.772682189941406,-4.014028549194336
1761399240921311700,11.559311767578125,0.12060791254043579,-9.098864555358887,-4.055253982543945
1761399240931387400,11.569387451171876,0.1223287433385849,-8.448390007019043,-4.178929328918457
1761399240941462500,11.579462646484375,-0.0793079286813736,-8.574234962463379,-4.656946659088135
1761399240951550000,11.589550048828125,-0.43686699867248535,-9.17809772491455,-5.303306579589844
1761399240961634800,11.599634765625,-0.5570259690284729,-9.483358383178711,-5.0097174644470215
1761399240971715600,11.609715576171874,-0.512658417224884,-9.465102195739746,-4.259808540344238
1761399240981783300,11.619783203125,-0.45848962664604187,-9.5501708984375,-3.422062397003174
1761399240991864600,11.629864501953126,-0.5595698356628418,-9.887229919433594,-3.1984291076660156
1761399241001944600,11.639944580078126,-0.653841495513916,-10.225186347961426,-3.3335518836975098
1761399241012035800,11.650035888671875,-0.5979518890380859,-10.282198905944824,-3.8198740482330322
1761399241022119000,11.660118896484375,-0.43005847930908203,-10.121487617492676,-4.055403709411621
1761399241032189400,11.670189453125,-0.25079262256622314,-9.995492935180664,-4.080916881561279
1761399241042267100,11.68026708984375,-0.11439795047044754,-9.995567321777344,-3.998765707015991
1761399241052360400,11.6903603515625,-0.031124621629714966,-10.07509994506836,-3.957465887069702
1761399241062429000,11.700428955078126,-0.2586486041545868,-10.338611602783203,-4.409670829772949
1761399241072522200,11.710522216796875,-0.8806921243667603,-10.423905372619629,-5.117905616760254
1761399241082601000,11.72060107421875,0.3010708689689636,-10.018088340759277,-5.817610740661621
1761399241092671200,11.730671142578124,1.9583821296691895,-10.099565505981445,-6.648698329925537
1761399241102764000,11.740763916015625,1.3807061910629272,-9.964742660522461,-6.6424880027771
1761399241112844500,11.750844482421876,0.50510174036026,-9.598729133605957,-6.227393627166748
1761399241122925800,11.76092578125,0.3437175750732422,-9.967286109924316,-5.812822341918945
1761399241133016300,11.771016357421875,0.7303811311721802,-10.70402717590332,-4.6973490715026855
1761399241143084800,11.781084716796874,1.5233107805252075,-11.839178085327148,-2.842740535736084
1761399241153167600,11.791167724609375,2.042029619216919,-13.417704582214355,-0.9614964127540588
1761399241163238100,11.801238037109375,1.840916633605957,-15.245079040527344,0.38643911480903625
1761399241173329000,11.811328857421875,1.373897671699524,-16.501510620117188,1.4503624439239502
1761399241183409400,11.821409423828126,0.7168389558792114,-16.440834045410156,2.00768780708313
1761399241193491000,11.831490966796874,-0.0520738884806633,-14.861783027648926,1.7053450345993042
1761399241203558400,11.841558349609375,-0.3247136175632477,-13.07750415802002,0.4100070297718048
1761399241213652000,11.85165185546875,0.12592004239559174,-11.932701110839844,-1.377638578414917
1761399241223732500,11.861732421875,1.0500071048736572,-11.394978523254395,-3.080364942550659
1761399241233813200,11.871813232421875,1.7536779642105103,-11.018864631652832,-4.181548118591309
1761399241243894000,11.88189404296875,1.7529296875,-10.577957153320312,-4.895693778991699
1761399241253974800,11.891974853515626,1.2408698797225952,-9.847426414489746,-5.092466831207275
1761399241264055800,11.902055908203126,0.9715221524238586,-9.110237121582031,-5.139303684234619
1761399241274133800,11.9121337890625,1.275062084197998,-8.751779556274414,-4.744783878326416
1761399241284216800,11.922216796875,1.1019313335418701,-8.377835273742676,-4.075305461883545
1761399241294285300,11.932285400390626,0.5654805302619934,-8.11596965789795,-3.345073938369751
1761399241304358700,11.942358642578125,0.14866496622562408,-7.747786521911621,-2.6740241050720215
1761399241314459000,11.952458984375,-0.26074352860450745,-7.2853312492370605,-1.9672856330871582
1761399241324539400,11.962539306640625,-0.4614075720310211,-6.782474040985107,-1.548449993133545
1761399241334618000,11.9726181640625,-0.42743980884552,-6.407482147216797,-1.1929857730865479
1761399241344701000,11.982700927734374,-0.1925836056470871,-6.174197196960449,-1.097666621208191
1761399241354763300,11.99276318359375,0.1553238332271576,-6.162525653839111,-1.1212345361709595
1761399241364862200,12.0028623046875,0.5198410153388977,-6.155791759490967,-0.9195231199264526
1761399241374930200,12.01293017578125,0.9934440851211548,-6.041318893432617,-0.4637269377708435
1761399241385010700,12.0230107421875,1.4585177898406982,-5.747805118560791,0.08476970344781876
1761399241395104500,12.0331044921875,1.7386393547058105,-5.353808879852295,0.535702645778656
1761399241405157000,12.0431572265625,1.8540847301483154,-5.032686710357666,0.7582137584686279
1761399241415265000,12.05326513671875,1.7871218919754028,-4.8602294921875,0.8120833039283752
1761399241425346000,12.063345947265624,1.6532710790634155,-4.804788589477539,0.7416039705276489
1761399241435427300,12.07342724609375,1.596483588218689,-4.810774326324463,0.6049100160598755
1761399241445516500,12.0835166015625,1.657685399055481,-4.902053356170654,0.20852001011371613
1761399241455588900,12.0935888671875,1.6483330726623535,-5.0201921463012695,-0.42504560947418213
1761399241465669400,12.10366943359375,1.6638953685760498,-5.080570697784424,-1.0949732065200806
1761399241475749400,12.113749267578125,2.043675661087036,-5.159803867340088,-1.7029508352279663
1761399241485830700,12.12383056640625,2.845059871673584,-5.406107425689697,-2.4629602432250977
1761399241495911000,12.133910888671876,4.209754943847656,-6.042067050933838,-3.439420461654663
1761399241505992200,12.1439921875,6.279242992401123,-7.188740253448486,-4.572775840759277
1761399241516055000,12.154054931640625,7.5535569190979,-8.86715030670166,-5.692887783050537
1761399241526153000,12.164153076171875,6.8524298667907715,-10.585289001464844,-6.848763465881348
1761399241536234800,12.17423486328125,6.33445930480957,-12.383559226989746,-8.277278900146484
1761399241546312700,12.184312744140625,6.6653828620910645,-13.95206069946289,-9.364022254943848
1761399241556395300,12.194395263671876,7.277774810791016,-13.78364372253418,-9.541417121887207
1761399241566475800,12.204475830078126,6.960168838500977,-12.232725143432617,-8.563984870910645
1761399241576556300,12.214556396484374,6.669722080230713,-10.702381134033203,-7.35932731628418
1761399241586637000,12.224636962890624,6.70413875579834,-9.44183349609375,-6.220510005950928
1761399241596717800,12.2347177734375,6.613907337188721,-8.419958114624023,-5.1886091232299805
1761399241606754300,12.24475439453125,5.7218427658081055,-7.382820129394531,-4.37188720703125
1761399241616879400,12.25487939453125,5.098302841186523,-6.054711818695068,-4.089820384979248
1761399241626960000,12.2649599609375,4.951658248901367,-4.296020984649658,-4.207509994506836
1761399241637041200,12.275041259765626,5.826364517211914,-2.695871114730835,-4.152742862701416
1761399241647121400,12.285121337890626,5.925200462341309,-3.657966136932373,-3.9223756790161133
1761399241657169400,12.29516943359375,4.981360912322998,-8.817994117736816,-4.345401287078857
1761399241667282700,12.30528271484375,4.034154891967773,-14.878766059875488,-3.963451385498047
1761399241677363500,12.315363525390625,3.3428292274475098,-18.90947914123535,-2.681206703186035
1761399241687434500,12.3254345703125,0.547075092792511,-19.774311065673828,-2.9991116523742676
1761399241697525000,12.33552490234375,-1.7592145204544067,-16.60341453552246,-3.3732056617736816
1761399241707605500,12.34560546875,0.13901333510875702,-11.727473258972168,-3.044826030731201
1761399241717686500,12.3556865234375,2.057068109512329,-7.789984226226807,-1.8441338539123535
1761399241727741200,12.3657412109375,0.0338929183781147,-5.39750337600708,-0.5760299563407898
1761399241737848300,12.375848388671875,-1.5107412338256836,-4.426804065704346,0.4554968774318695
1761399241747929000,12.38592919921875,-1.613317847251892,-4.507383823394775,1.7218799591064453
1761399241758006500,12.396006591796874,-1.4257471561431885,-4.701164722442627,2.967463254928589
1761399241768086000,12.4060859375,-1.465700387954712,-5.549759387969971,3.161468505859375
1761399241778168000,12.41616796875,-2.3395838737487793,-8.11133098602295,1.3988871574401855
1761399241788252000,12.426251953125,-2.947561502456665,-11.615918159484863,-1.7235260009765625
1761399241798331400,12.436331298828126,-2.967313766479492,-14.662165641784668,-4.986523628234863
1761399241808412400,12.446412353515624,-0.9794529676437378,-16.243310928344727,-7.13771390914917
1761399241818493700,12.45649365234375,0.3941454589366913,-14.385111808776855,-7.2352776527404785
1761399241828574000,12.466573974609375,1.0298060178756714,-10.639458656311035,-5.719223976135254
1761399241838651400,12.4766513671875,0.6319944262504578,-8.46058464050293,-4.423586845397949
1761399241848735000,12.48673486328125,-0.18906711041927338,-7.662417888641357,-3.4846856594085693
1761399241858816500,12.49681640625,0.07055412977933884,-7.64805269241333,-2.3552958965301514
1761399241868897300,12.506897216796874,0.6367828249931335,-8.145896911621094,-1.6556652784347534
1761399241878977300,12.516977294921874,0.4232499599456787,-8.560467720031738,-1.4306851625442505
1761399241889058600,12.52705859375,-0.1586906760931015,-8.646510124206543,-1.4327800273895264
1761399241899108400,12.5371083984375,-0.7742998003959656,-8.471059799194336,-1.6749686002731323
1761399241909208600,12.54720849609375,-0.9102455377578735,-8.163703918457031,-1.928903579711914
1761399241919300400,12.55730029296875,-1.049483299255371,-7.866673469543457,-2.3365912437438965
1761399241929357600,12.567357666015624,-1.2934675216674805,-7.617825984954834,-2.839897394180298
1761399241939462000,12.5774619140625,-1.5117138624191284,-7.556474685668945,-3.449296474456787
1761399241949542400,12.58754248046875,-1.586308240890503,-7.757587432861328,-4.103137969970703
1761399241959623000,12.597622802734374,-1.409661054611206,-8.1749267578125,-4.593799591064453
1761399241969699600,12.607699462890626,-1.099312663078308,-8.531513214111328,-4.753163814544678
1761399241979784200,12.6177841796875,-0.6400748491287231,-8.800711631774902,-4.577489376068115
1761399241989865500,12.627865478515625,-0.1296609789133072,-9.074697494506836,-4.371812343597412
1761399241999945500,12.637945556640625,0.4122515916824341,-9.133729934692383,-4.083684921264648
1761399242010001000,12.6480009765625,0.9453355669975281,-9.026065826416016,-3.7533600330352783
1761399242020107300,12.658107177734376,1.4625579118728638,-8.851364135742188,-3.5241901874542236
1761399242030188300,12.668188232421874,1.4596400260925293,-8.779388427734375,-3.533392906188965
1761399242040264400,12.678264404296876,0.9552116394042969,-8.679130554199219,-3.2840964794158936
1761399242050349800,12.688349853515625,0.38628947734832764,-8.743549346923828,-3.5213470458984375
1761399242060429600,12.6984296875,-0.2617909908294678,-8.771905899047852,-3.9967455863952637
1761399242070510300,12.70851025390625,-0.5248538851737976,-8.694693565368652,-4.356997966766357
1761399242080591600,12.718591552734376,-0.34603697061538696,-8.551340103149414,-4.503942489624023
1761399242090671600,12.728671630859376,0.059480950236320496,-9.028983116149902,-4.896367073059082
1761399242100749000,12.7387490234375,0.39377135038375854,-9.470489501953125,-5.188758850097656
1761399242110833200,12.748833251953124,0.49372929334640503,-9.110535621643066,-5.174842357635498
1761399242120914700,12.758914794921875,0.5018845200538635,-8.513108253479004,-4.958616256713867
1761399242130995000,12.768994873046875,0.4910358190536499,-8.448164939880371,-5.0243072509765625
1761399242141075200,12.7790751953125,0.36309564113616943,-8.81088638305664,-4.994080066680908
1761399242151156500,12.789156494140625,0.071077860891819,-9.304391860961914,-4.79513692855835
1761399242161233000,12.79923291015625,-0.38561612367630005,-9.855731010437012,-4.3843817710876465
1761399242171317800,12.80931787109375,-0.9026140570640564,-10.087594985961914,-4.158129692077637
1761399242181398800,12.819398681640624,-0.998681366443634,-9.830292701721191,-3.9766194820404053
1761399242191453700,12.82945361328125,-0.704867959022522,-9.577404975891113,-3.9745993614196777
1761399242201559800,12.839559814453125,-0.2908954918384552,-9.603218078613281,-4.166359901428223
1761399242211640300,12.849640380859375,-0.07549217343330383,-9.73325252532959,-4.308440685272217
1761399242221721900,12.859721923828126,-0.4040963649749756,-10.031929969787598,-4.816984176635742
1761399242231797500,12.869797607421875,-1.138742208480835,-10.420912742614746,-5.4328179359436035
