time,seconds_elapsed,z,y,x
1761400699182785000,0.101784912109375,1.6775124073028564,-9.051130294799805,-3.2317233085632324
1761400699192865800,0.11186572265625,1.725022315979004,-9.083451271057129,-3.2537200450897217
1761400699202959600,0.121959716796875,1.7396119832992554,-9.046341896057129,-3.3225533962249756
1761400699213040600,0.13204052734375,1.753229022026062,-8.998382568359375,-3.3127522468566895
1761400699223121700,0.14212158203125,1.7069162130355835,-8.953117370605469,-3.2924013137817383
1761400699233215000,0.152215087890625,1.6653916835784912,-8.946009635925293,-3.300855875015259
1761400699243290600,0.16229052734375,1.6433202028274536,-8.984466552734375,-3.2848446369171143
1761400699253383700,0.1723837890625,1.6528221368789673,-8.96725845336914,-3.280954122543335
1761400699263469300,0.18246923828125,1.6855180263519287,-8.901717185974121,-3.2671127319335938
1761400699273538800,0.192538818359375,1.6862661838531494,-8.911144256591797,-3.237259864807129
1761400699283606800,0.202606689453125,1.6318728923797607,-8.95341682434082,-3.2399535179138184
1761400699293700900,0.212700927734375,1.6507272720336914,-8.995464324951172,-3.215188503265381
1761400699303782000,0.222781982421875,1.6253637075424194,-8.992023468017578,-3.1770308017730713
1761400699313855700,0.232855712890625,1.6154128313064575,-8.858845710754395,-3.099743127822876
1761400699323932700,0.2429326171875,1.654168963432312,-8.957756042480469,-3.225588321685791
1761400699334019000,0.25301904296875,1.7787421941757202,-8.828768730163574,-3.1584010124206543
1761400699344105500,0.26310546875,1.9658640623092651,-8.814627647399902,-3.2068088054656982
1761400699354186200,0.273186279296875,2.0690391063690186,-8.805724143981934,-3.3174657821655273
1761400699364273000,0.28327294921875,2.0620062351226807,-8.754847526550293,-3.5247137546539307
1761400699374335200,0.293335205078125,0.9515455365180969,-8.435371398925781,-5.19130277633667
1761400699384425000,0.303425048828125,2.121936082839966,-9.080683708190918,-2.8190977573394775
1761400699394510000,0.313510009765625,2.104278802871704,-8.360177993774414,-2.798372983932495
1761400699404591000,0.323591064453125,2.2061820030212402,-8.855478286743164,-3.3079638481140137
1761400699414659000,0.3336591796875,2.191891670227051,-9.101557731628418,-3.783811330795288
1761400699424752000,0.343752197265625,2.1408653259277344,-9.183858871459961,-3.9433250427246094
1761400699434826200,0.353826171875,2.170792818069458,-9.076193809509277,-3.982530117034912
1761400699444903000,0.36390283203125,2.156277894973755,-8.925509452819824,-4.155585765838623
1761400699454979600,0.3739794921875,2.0071640014648438,-8.80235767364502,-4.15259313583374
1761400699465076000,0.384075927734375,1.9567362070083618,-8.770259857177734,-3.9094321727752686
1761400699475144400,0.39414453125,1.9604771137237549,-8.731653213500977,-3.7947349548339844
1761400699485237800,0.40423779296875,2.002225875854492,-8.518569946289062,-3.6996402740478516
1761400699495319000,0.414319091796875,1.983446478843689,-8.284012794494629,-3.862595558166504
1761400699505399800,0.42439990234375,1.947608232498169,-8.021697998046875,-4.082263469696045
1761400699515470800,0.434470947265625,1.8531121015548706,-8.098012924194336,-4.267365455627441
1761400699525559800,0.444559814453125,1.7979706525802612,-7.840785980224609,-4.076876640319824
1761400699535653000,0.454653076171875,1.7301100492477417,-7.8617353439331055,-4.071863651275635
1761400699545724000,0.464723876953125,1.6279823780059814,-7.942464828491211,-3.8638675212860107
1761400699555804200,0.47480419921875,1.5631892681121826,-7.882983684539795,-3.4689738750457764
1761400699565873000,0.484872802734375,1.4498387575149536,-7.7171854972839355,-3.051260471343994
1761400699575940900,0.49494091796875,1.3949966430664062,-7.533280849456787,-2.890549659729004
1761400699586035000,0.505034912109375,1.4008324146270752,-7.441253662109375,-2.9857192039489746
1761400699596141000,0.51514111328125,1.3880383968353271,-7.541959762573242,-3.164386510848999
1761400699606201300,0.525201416015625,1.4206594228744507,-7.181782245635986,-3.1390976905822754
1761400699616290000,0.5352900390625,1.4107085466384888,-6.870311260223389,-3.038017511367798
1761400699626371000,0.54537109375,1.2256067991256714,-6.685434341430664,-2.931774854660034
1761400699636439300,0.555439208984375,1.2012158632278442,-6.2358479499816895,-3.063530683517456
1761400699646531000,0.565531005859375,1.1445032358169556,-5.8657941818237305,-3.3401358127593994
1761400699656614000,0.57561376953125,1.3658173084259033,-5.650540351867676,-3.5364603996276855
1761400699666708200,0.585708251953125,1.578676700592041,-5.433640956878662,-3.3551743030548096
1761400699676760000,0.595760009765625,1.90092134475708,-5.350217819213867,-2.910900354385376
1761400699686854000,0.60585400390625,2.2661867141723633,-5.517662048339844,-2.6465654373168945
1761400699696923400,0.61592333984375,2.6350433826446533,-5.716306209564209,-2.8568811416625977
1761400699707005400,0.62600537109375,3.544316291809082,-5.883077144622803,-3.6339492797851562
1761400699717086500,0.63608642578125,4.860977649688721,-6.159233570098877,-4.932878494262695
1761400699727175000,0.6461748046875,5.104587554931641,-6.507290363311768,-5.646350383758545
1761400699737241000,0.656240966796875,3.520972967147827,-6.645481109619141,-5.504868030548096
1761400699747342000,0.666342041015625,2.9641714096069336,-6.727781772613525,-5.095534801483154
1761400699757421000,0.676421142578125,4.121693134307861,-6.854824066162109,-5.531204700469971
1761400699767491000,0.686490966796875,3.564666986465454,-6.2794671058654785,-3.3405847549438477
1761400699777584600,0.696584716796875,1.6531214714050293,-5.51272439956665,-2.01464581489563
1761400699787657700,0.70665771484375,1.9479823112487793,-5.873650074005127,-3.477428436279297
1761400699797746400,0.716746337890625,3.500023603439331,-8.131531715393066,-6.5865983963012695
1761400699807814100,0.726814208984375,4.5854949951171875,-11.122713088989258,-8.9889554977417
1761400699817908700,0.73690869140625,5.168557643890381,-13.593080520629883,-10.117447853088379
1761400699827967500,0.746967529296875,4.806883811950684,-16.11028480529785,-11.875913619995117
1761400699838059300,0.757059326171875,4.8602294921875,-18.214412689208984,-13.68802547454834
1761400699848151000,0.767151123046875,5.270685195922852,-18.951602935791016,-14.12234878540039
1761400699858221000,0.777220947265625,6.688950538635254,-20.39702796936035,-14.815020561218262
1761400699868313300,0.787313232421875,6.933907508850098,-22.08815574645996,-15.75437068939209
1761400699878381000,0.797381103515625,7.069404125213623,-24.17664909362793,-16.811859130859375
1761400699888472800,0.807472900390625,7.215001583099365,-24.652570724487305,-18.00177764892578
1761400699898556000,0.817555908203125,7.005508899688721,-24.22760009765625,-17.833511352539062
1761400699908636000,0.827635986328125,7.494674205780029,-23.35034942626953,-16.433950424194336
1761400699918704600,0.83770458984375,7.560140609741211,-22.720748901367188,-14.638822555541992
1761400699928794400,0.84779443359375,7.7567644119262695,-20.615947723388672,-12.07231330871582
1761400699938879200,0.857879150390625,8.467917442321777,-16.629825592041016,-8.27750301361084
1761400699948960800,0.867960693359375,8.82592487335205,-13.281010627746582,-3.2714521884918213
1761400699959006500,0.87800634765625,5.8156657218933105,-12.37525463104248,0.8064718842506409
1761400699969109800,0.88810986328125,3.366023063659668,-12.156634330749512,1.6199767589569092
1761400699979186200,0.898186279296875,1.833434820175171,-10.699986457824707,-1.0743980407714844
1761400699989284400,0.908284423828125,-1.4202853441238403,-8.859593391418457,-2.3208792209625244
1761400699999361800,0.91836181640625,-3.2026937007904053,-7.0248870849609375,-2.5453357696533203
1761400700009432600,0.9284326171875,-3.8623709678649902,-4.248361110687256,-2.7124061584472656
1761400700019524600,0.938524658203125,-2.975543737411499,-2.0825066566467285,-2.772710084915161
1761400700029605400,0.94860546875,-1.3379846811294556,-0.3390040099620819,-2.4130561351776123
1761400700039675600,0.958675537109375,0.2338835746049881,0.8535329103469849,-1.5245827436447144
1761400700049344300,0.96834423828125,0.2132335901260376,1.2027870416641235,-0.40611645579338074
1761400700064890600,0.983890625,-0.013542203232645988,-0.31117141246795654,1.466822624206543
1761400700074971600,0.9939716796875,0.8050503134727478,-1.2109423875808716,2.6117000579833984
1761400700085052400,1.004052490234375,0.17874212563037872,-1.3386579751968384,3.00943660736084
1761400700095133700,1.0141337890625,-1.7327287197113037,-1.6824504137039185,2.6739492416381836
1761400700105214500,1.02421435546875,-3.156306028366089,-2.6523265838623047,1.9107226133346558
1761400700115273700,1.034273681640625,-2.8004677295684814,-3.613673448562622,0.7029974460601807
1761400700125377300,1.044377197265625,-1.2769324779510498,-3.455132246017456,-0.051026422530412674
1761400700135458000,1.0544580078125,0.37147536873817444,-2.603843927383423,-0.4322282373905182
1761400700145513200,1.06451318359375,1.291148066520691,-1.7981951236724854,-0.9256582260131836
1761400700155595300,1.07459521484375,0.8939350843429565,-1.0302549600601196,-1.2978817224502563
1761400700165673500,1.084673583984375,0.030151978135108948,0.17313070595264435,-1.956362009048462
1761400700175755500,1.094755615234375,-0.8913164138793945,0.9314941167831421,-0.8040028810501099
1761400700185854700,1.104854736328125,-1.599401593208313,2.2067806720733643,1.4045734405517578
1761400700195917300,1.114917236328125,-2.0067899227142334,4.199728965759277,3.373579740524292
1761400700205997800,1.124997802734375,-1.9323452711105347,5.689595699310303,4.342333793640137
1761400700216088800,1.1350888671875,-1.583689570426941,5.569885730743408,4.4764838218688965
1761400700226160400,1.145160400390625,-0.9526678323745728,3.721487283706665,3.996521234512329
1761400700236241700,1.15524169921875,-0.6753893494606018,2.421435832977295,3.4613423347473145
1761400700246347300,1.16534716796875,-0.5452794432640076,2.537330150604248,3.341557502746582
1761400700256428000,1.175427978515625,0.08993220329284668,3.024400472640991,3.1478514671325684
1761400700266509300,1.18550927734375,1.0776900053024292,3.401487350463867,2.662651538848877
1761400700276590000,1.195590087890625,2.479794502258301,3.4445080757141113,1.629703164100647
1761400700286660000,1.20566015625,3.902174711227417,3.3331029415130615,0.3324199318885803
1761400700296751900,1.215751953125,4.660837173461914,2.689361810684204,-1.1314847469329834
1761400700306810000,1.22581005859375,3.4623897075653076,1.5309423208236694,-1.5280991792678833
1761400700316917200,1.235917236328125,0.24809914827346802,0.3306991159915924,-0.9203460812568665
1761400700326969300,1.24596923828125,-2.1250035762786865,-1.49854576587677,-1.437942624092102
1761400700337050000,1.256050048828125,-2.9928269386291504,-3.5639936923980713,-3.380463123321533
1761400700347156500,1.266156494140625,-1.0695347785949707,-4.468403339385986,-6.458134651184082
1761400700357212400,1.27621240234375,3.5411739349365234,-4.958316802978516,-10.596363067626953
1761400700367318500,1.286318603515625,8.451532363891602,-7.114744663238525,-16.564208984375
1761400700377374000,1.2963740234375,10.372729301452637,-11.748048782348633,-20.951284408569336
1761400700387481000,1.306481201171875,7.704166889190674,-12.327594757080078,-16.0668888092041
1761400700397535700,1.31653564453125,2.607285737991333,-10.712481498718262,-10.954370498657227
1761400700407643400,1.326643310546875,4.395230770111084,-12.632631301879883,-8.06666374206543
1761400700417723100,1.33672314453125,6.497788429260254,-17.89261817932129,-8.306982040405273
1761400700427783400,1.346783447265625,12.167482376098633,-26.01980972290039,-13.425411224365234
1761400700437897200,1.356897216796875,13.9647798538208,-35.94534683227539,-21.14304542541504
1761400700447923200,1.366923095703125,12.742988586425781,-40.768165588378906,-23.967754364013672
1761400700458043400,1.37704345703125,15.344364166259766,-44.11174392700195,-28.305225372314453
1761400700468124200,1.387124267578125,16.260221481323242,-41.68978500366211,-28.33238410949707
1761400700478175500,1.397175537109375,13.039570808410645,-28.208932876586914,-22.148534774780273
1761400700488291300,1.407291259765625,12.347047805786133,-22.4929256439209,-18.884191513061523
1761400700498345000,1.417344970703125,10.677241325378418,-23.503952026367188,-16.6798038482666
1761400700508452000,1.4274521484375,7.186794757843018,-26.589778900146484,-14.494945526123047
1761400700518532000,1.437531982421875,4.805836200714111,-25.723676681518555,-10.725350379943848
1761400700528609300,1.447609375,3.2434699535369873,-22.42364501953125,-9.930251121520996
1761400700538694000,1.45769384765625,2.698115587234497,-17.75719451904297,-10.17408561706543
1761400700548761300,1.46776123046875,3.441141128540039,-13.277420043945312,-10.222567558288574
1761400700558830800,1.477830810546875,4.965499401092529,-9.089661598205566,-8.996811866760254
1761400700568942800,1.48794287109375,4.649838924407959,-6.210409641265869,-7.035885334014893
1761400700579018800,1.498018798828125,1.5121628046035767,-5.339069843292236,-3.3656489849090576
1761400700589098800,1.5080986328125,-0.3620481789112091,-5.454814434051514,-0.18076223134994507
1761400700599175700,1.51817578125,-0.6581062078475952,-4.944550037384033,2.1803696155548096
1761400700609260300,1.52826025390625,-1.7822587490081787,-3.9029228687286377,2.7578959465026855
1761400700619330000,1.538330078125,-4.547711372375488,-2.869450807571411,0.8625859618186951
1761400700629412400,1.548412353515625,-5.182997703552246,-1.4733319282531738,-0.8543559312820435
1761400700639479000,1.55847900390625,-5.661838054656982,0.21630115807056427,-3.224316358566284
1761400700649584400,1.56858447265625,-2.8487260341644287,0.87897127866745,-5.988048076629639
1761400700659661000,1.5786611328125,1.5863831043243408,1.5542110204696655,-9.53969669342041
1761400700669720600,1.588720458984375,4.511498928070068,2.4069957733154297,-6.823025703430176
1761400700679805700,1.5988056640625,4.122815132141113,0.09210194647312164,0.9634417295455933
1761400700689923800,1.608923828125,2.1332337856292725,-3.692307949066162,5.595398902893066
1761400700699988700,1.61898876953125,1.2049567699432373,-5.239785194396973,7.413869857788086
1761400700710070500,1.629070556640625,-0.157119482755661,-5.03867244720459,7.32505989074707
1761400700720132000,1.639132080078125,-0.4076876640319824,-4.229731559753418,5.282731056213379
1761400700730231600,1.6492314453125,0.6774842739105225,-3.125256299972534,3.1839890480041504
1761400700740312600,1.6593125,1.4317326545715332,-1.9128174781799316,1.6525229215621948
1761400700750393300,1.669393310546875,0.7023988962173462,-0.8922890424728394,0.22587797045707703
1761400700760474000,1.67947412109375,0.28244099020957947,-0.4026747941970825,-1.7443255186080933
1761400700770555100,1.68955517578125,-0.40379709005355835,-1.4246996641159058,-3.689539670944214
1761400700780636000,1.699635986328125,-1.2688521146774292,-2.1437082290649414,-3.8493525981903076
1761400700790713000,1.709713134765625,-1.4535049200057983,-2.3187096118927,-3.3809869289398193
1761400700800798000,1.7197978515625,-1.0550199747085571,-1.5667057037353516,-1.9791070222854614
1761400700810879500,1.72987939453125,-1.2804490327835083,-0.2908954918384552,-0.0019452888518571854
1761400700820959700,1.739959716796875,-1.6456395387649536,1.4086884260177612,1.49622642993927
1761400700831040800,1.750040771484375,-2.3273136615753174,1.6374094486236572,2.0890157222747803
1761400700841122000,1.7601220703125,-2.8256068229675293,0.8453028202056885,2.7950809001922607
1761400700851198500,1.770198486328125,-2.7713632583618164,0.6411223411560059,3.53204607963562
1761400700861283300,1.780283447265625,-2.2740426063537598,1.0322002172470093,4.055403709411621
1761400700871364000,1.790364013671875,-1.9776854515075684,1.7664719820022583,4.24237585067749
1761400700881446000,1.80044580078125,-1.9335423707962036,2.784381866455078,4.471321105957031
1761400700891526000,1.81052587890625,-1.8362778425216675,3.2857425212860107,4.347496032714844
1761400700901607000,1.82060693359375,-1.6155624389648438,3.069516181945801,3.736151695251465
1761400700911688700,1.830688720703125,-1.3259388208389282,2.941127061843872,3.1081228256225586
1761400700921763000,1.84076318359375,-0.2552069425582886,2.8034605979919434,2.314220428466797
1761400700931850800,1.850850830078125,1.0587608814239502,1.9890578985214233,1.5997756719589233
1761400700941931000,1.860930908203125,2.893991231918335,1.257030725479126,1.0159645080566406
1761400700952012000,1.871011962890625,3.648090124130249,0.4868459403514862,0.06217442452907562
1761400700962092800,1.8810927734375,2.839149236679077,-0.572438657283783,-0.6037877202033997
1761400700972174000,1.891174072265625,1.8329858779907227,-1.7489643096923828,-1.3875147104263306
1761400700982250500,1.90125048828125,0.020051438361406326,-2.6419267654418945,-2.0459201335906982
1761400700992335400,1.91133544921875,-1.3175591230392456,-3.7000889778137207,-3.9495348930358887
1761400701002416000,1.921416015625,-1.2455086708068848,-5.258938789367676,-6.550161838531494
1761400701012497200,1.9314970703125,2.4181437492370605,-7.370100975036621,-9.032350540161133
1761400701022578000,1.941577880859375,8.40192699432373,-9.553688049316406,-11.875016212463379
1761400701032659000,1.951658935546875,12.297218322753906,-11.900229454040527,-15.61408519744873
1761400701042736000,1.961736083984375,12.148553848266602,-13.02587890625,-16.747066497802734
1761400701052820700,1.97182080078125,9.547701835632324,-8.91181755065918,-14.061894416809082
1761400701062902000,1.981902099609375,6.647351264953613,-8.139388084411621,-13.130176544189453
1761400701072982800,1.991982666015625,12.830975532531738,-19.024551391601562,-19.131916046142578
1761400701083063600,2.0020634765625,8.318803787231445,-28.515914916992188,-26.28870964050293
1761400701093144600,2.01214453125,5.369969844818115,-33.29070281982422,-33.58451461791992
1761400701103225300,2.022225341796875,13.968670845031738,-35.91324996948242,-41.161041259765625
1761400701113303300,2.03230322265625,15.057583808898926,-32.67179870605469,-40.698360443115234
1761400701123387400,2.042387451171875,13.362189292907715,-25.815555572509766,-26.89055061340332
1761400701133468200,2.05246826171875,12.457480430603027,-22.798336029052734,-20.274324417114258
1761400701143529000,2.062529052734375,11.303475379943848,-22.06466293334961,-16.523881912231445
1761400701153630000,2.0726298828125,8.254459381103516,-24.026935577392578,-14.952313423156738
1761400701163711000,2.0827109375,5.214870452880859,-29.036205291748047,-15.8141508102417
1761400701173767000,2.092766845703125,3.087472677230835,-30.247297286987305,-16.25505828857422
1761400701183872800,2.102872802734375,0.5324854254722595,-25.3033447265625,-15.296330451965332
1761400701193953800,2.112953857421875,-1.8216134309768677,-18.34257698059082,-15.361572265625
1761400701204034600,2.12303466796875,-1.6181062459945679,-11.790919303894043,-15.640421867370605
1761400701214116000,2.1331162109375,2.5784804821014404,-7.160608291625977,-14.640019416809082
1761400701224189200,2.143189208984375,6.4129438400268555,-5.3133320808410645,-12.496760368347168
1761400701234252300,2.153252197265625,7.831882476806641,-3.8465094566345215,-8.950348854064941
1761400701244333300,2.163333251953125,4.253897666931152,-3.658489942550659,-4.399420261383057
1761400701254414000,2.1734140625,-1.7157447338104248,-4.6758012771606445,1.0389338731765747
1761400701264495000,2.1834951171875,-3.3773956298828125,-5.241730690002441,5.684807300567627
1761400701274576100,2.193576171875,-3.4392707347869873,-4.5644707679748535,7.8594160079956055
1761400701284656600,2.20365673828125,-7.243432998657227,-2.9456911087036133,6.896198749542236
1761400701294726100,2.21372607421875,-8.9157075881958,-1.0452187061309814,4.268936634063721
1761400701304807200,2.22380712890625,-3.8319199085235596,0.2884264886379242,2.8417677879333496
1761400701314908700,2.23390869140625,1.2945897579193115,1.5894505977630615,0.503829836845398
1761400701324975600,2.2439755859375,3.5197010040283203,3.333402156829834,-1.402104377746582
1761400701335086600,2.254086669921875,3.217507839202881,3.5357871055603027,-2.6413280963897705
1761400701345167600,2.264167724609375,0.969576895236969,1.4215573072433472,-1.4489409923553467
1761400701355223000,2.27422314453125,0.2949357330799103,-0.7116764783859253,0.8515875935554504
1761400701365329200,2.2843291015625,0.9472808837890625,-2.146252155303955,3.430741310119629
1761400701375407900,2.294407958984375,2.4375216960906982,-3.27227520942688,5.794043064117432
1761400701385491200,2.3044912109375,2.625990390777588,-3.840972900390625,5.707702159881592
1761400701395562200,2.314562255859375,1.806574821472168,-4.130745887756348,3.5922751426696777
1761400701405653000,2.324653076171875,1.5123872756958008,-3.741987705230713,0.6516717672348022
1761400701415734800,2.33473486328125,0.08454524725675583,-3.058443069458008,-1.20368492603302
1761400701425816600,2.344816650390625,-0.645087718963623,-2.146252155303955,-2.6378116607666016
1761400701435896600,2.354896484375,0.18233342468738556,-1.8111387491226196,-4.290409564971924
1761400701446001400,2.36500146484375,0.36982935667037964,-0.6169558763504028,-4.445807933807373
1761400701456057600,2.3750576171875,-1.0210522413253784,0.0019452888518571854,-4.291232585906982
1761400701466138400,2.385138427734375,-1.5765069723129272,0.1438017338514328,-4.2890625
1761400701476195000,2.395195068359375,-1.2909235954284668,0.6104466319084167,-3.510498285293579
1761400701486275600,2.405275634765625,-0.6698527336120605,1.302819848060608,-1.7432781457901
1761400701496381700,2.415381591796875,-0.5104138851165771,1.9858406782150269,0.19041384756565094
1761400701506454300,2.425454345703125,-0.8617630004882812,2.464980363845825,2.0079870223999023
1761400701516543200,2.435543212890625,-0.941594660282135,2.726247549057007,3.694627285003662
1761400701526624500,2.44562451171875,-0.7816320657730103,2.551246404647827,4.5318498611450195
1761400701536705000,2.455705078125,-0.6540659666061401,1.8844611644744873,4.6489410400390625
1761400701546786000,2.4657861328125,-0.6483049392700195,1.4182652235031128,3.9944262504577637
1761400701556850000,2.475849853515625,-0.7258172035217285,1.3578864336013794,3.13932204246521
1761400701566935600,2.485935546875,-0.7372645139694214,1.1697919368743896,2.3873183727264404
1761400701577028900,2.49602880859375,-0.4272153675556183,0.9588029384613037,2.051307201385498
1761400701587110000,2.50610986328125,0.015412673354148865,0.9336638450622559,1.98726224899292
1761400701597191000,2.51619091796875,1.0660183429718018,0.9428665637969971,1.635838270187378
1761400701607272000,2.52627197265625,2.316539764404297,0.2470516860485077,0.8072200417518616
1761400701617342700,2.5363427734375,3.121141195297241,-0.9077017307281494,-0.1825578808784485
1761400701627433200,2.54643310546875,3.9885904788970947,-1.9264345169067383,-0.8240543007850647
1761400701637501400,2.55650146484375,4.303203582763672,-3.1505448818206787,-1.576432228088379
1761400701647595000,2.566594970703125,3.044227361679077,-4.638391494750977,-2.3394343852996826
1761400701657665500,2.57666552734375,1.2862848043441772,-6.591461658477783,-4.129997730255127
1761400701667744300,2.586744140625,0.5021089911460876,-8.079233169555664,-6.7451395988464355
1761400701677823500,2.596823486328125,1.3515268564224243,-8.225579261779785,-10.571971893310547
1761400701687919000,2.606919189453125,3.2820017337799072,-8.617704391479492,-15.225851058959961
1761400701697999600,2.61699951171875,6.622960567474365,-10.705822944641113,-18.118045806884766
1761400701708068000,2.627068115234375,8.288501739501953,-13.04899787902832,-19.99869155883789
1761400701718161400,2.637161376953125,7.4654951095581055,-15.378780364990234,-21.132421493530273
1761400701728242700,2.64724267578125,7.61909818649292,-16.597129821777344,-22.093469619750977
1761400701738323500,2.657323486328125,7.073070526123047,-16.79689598083496,-23.364789962768555
1761400701748402400,2.66740234375,10.186355590820312,-19.516111373901367,-26.812664031982422
1761400701758479400,2.677479248046875,8.396689414978027,-24.585683822631836,-28.871828079223633
1761400701768553500,2.687553466796875,8.782305717468262,-30.61518096923828,-29.729177474975586
1761400701778635300,2.69763525390625,11.369316101074219,-38.59797286987305,-30.737808227539062
1761400701788728000,2.70772802734375,13.823746681213379,-39.536800384521484,-26.630929946899414
1761400701798809000,2.71780908203125,13.935750007629395,-30.448335647583008,-18.494909286499023
1761400701808882700,2.727882568359375,11.786580085754395,-23.795970916748047,-14.443245887756348
1761400701818971100,2.73797119140625,6.58772087097168,-23.413198471069336,-15.830686569213867
1761400701829051400,2.748051513671875,2.8011412620544434,-23.759458541870117,-17.418041229248047
1761400701839132400,2.75813232421875,0.5301660299301147,-21.277345657348633,-16.4422550201416
1761400701849213400,2.76821337890625,-1.208622932434082,-18.453533172607422,-14.671368598937988
1761400701859280000,2.77827978515625,-0.9249100685119629,-15.259220123291016,-13.664083480834961
1761400701869375700,2.788375732421875,1.8479496240615845,-11.728595733642578,-12.539631843566895
1761400701879454200,2.7984541015625,4.737900733947754,-9.436297416687012,-12.20960521697998
1761400701889537300,2.808537353515625,4.380865573883057,-7.0015435218811035,-10.854187965393066
1761400701899607000,2.81860693359375,1.9242647886276245,-4.651410102844238,-7.656806468963623
1761400701909699000,2.828698974609375,-1.413476824760437,-2.5272295475006104,-3.507131338119507
1761400701919767600,2.838767578125,-5.436708450317383,-0.962992787361145,0.9456348419189453
1761400701929847800,2.848847900390625,-5.735908508300781,-0.5323357582092285,4.326472282409668
1761400701939939800,2.85893994140625,-4.437877178192139,-0.2008136659860611,5.882179260253906
1761400701950009900,2.869009765625,-2.9881134033203125,1.2232125997543335,6.93615198135376
1761400701960104000,2.87910400390625,-0.5669020414352417,2.456899881362915,5.561506271362305
1761400701970158800,2.889158935546875,2.5818471908569336,3.1012394428253174,1.9812018871307373
1761400701990319400,2.9093193359375,3.3104326725006104,2.074052095413208,-5.44419002532959
1761400702000414500,2.91941455078125,1.9786580801010132,0.22453123331069946,-1.7574188709259033
1761400702010487800,2.92948779296875,0.6799532771110535,-0.4429273009300232,1.7822587490081787
1761400702020589000,2.939589111328125,-0.4391115605831146,-1.127594232559204,4.1157073974609375
1761400702030669800,2.949669921875,-0.574907660484314,-2.4531588554382324,5.35552978515625
1761400702040750600,2.95975048828125,-1.6279075145721436,-3.301978349685669,4.996399879455566
1761400702050832000,2.969831787109375,-1.6839468479156494,-3.250652551651001,3.4002153873443604
1761400702060912600,2.97991259765625,1.4700398445129395,-2.8464813232421875,1.1433061361312866
1761400702070989600,2.989989501953125,2.094477653503418,-2.0300586223602295,-1.1314098834991455
1761400702081074400,3.000074462890625,-1.0152912139892578,-1.4920365810394287,-2.863764524459839
1761400702101210400,3.02021044921875,0.5514145493507385,-1.3019968271255493,-2.48832368850708
1761400702111317200,3.030317138671875,0.2380734384059906,-1.290250301361084,-0.2636614739894867
1761400702121398300,3.040398193359375,-0.3331681191921234,-0.918700098991394,1.664044976234436
1761400702131475200,3.05047509765625,-0.7844751477241516,-0.17133505642414093,3.234865665435791
1761400702141559800,3.060559814453125,-0.9523685574531555,0.3942950963973999,4.225766181945801
1761400702151640800,3.070640869140625,-1.0006266832351685,1.0387094020843506,4.223596096038818
1761400702161721600,3.0807216796875,-1.3340193033218384,1.8908956050872803,4.226738452911377
1761400702171777800,3.09077783203125,-1.3668646812438965,2.466775894165039,3.81994891166687
1761400702181883600,3.100883544921875,-0.8441057205200195,2.507028341293335,2.994323253631592
1761400702191965000,3.11096484375,-0.30728083848953247,2.602646827697754,2.084077835083008
1761400702202041300,3.121041259765625,-0.24450784921646118,2.6857705116271973,1.4136264324188232
1761400702212127700,3.131127685546875,-0.40836101770401,2.7067947387695312,1.1737574338912964
1761400702222207200,3.141207275390625,-0.3347393274307251,2.5848400592803955,1.0093055963516235
1761400702232288800,3.151288818359375,0.07698854804039001,2.3757214546203613,0.8083423376083374
1761400702242369000,3.161369140625,0.504952073097229,1.8721909523010254,0.1859247237443924
1761400702252450300,3.1714501953125,0.1753004491329193,0.9240870475769043,-0.8509142398834229
1761400702262527200,3.18152734375,-0.4925321936607361,-0.31349077820777893,-1.9751415252685547
1761400702272586800,3.191586669921875,-0.993743360042572,-1.627084493637085,-3.090315818786621
1761400702282668000,3.20166796875,-0.2686743140220642,-2.6205286979675293,-4.549057960510254
1761400702292748800,3.211748779296875,3.140594005584717,-2.6365396976470947,-5.869011402130127
1761400702302855400,3.22185546875,8.127192497253418,-3.448174238204956,-7.6104936599731445
1761400702312914400,3.23191455078125,6.6256537437438965,-4.526388168334961,-9.813982009887695
1761400702323012400,3.242012451171875,-0.9864858984947205,-4.372560501098633,-11.455805778503418
1761400702333098200,3.25209814453125,2.1927895545959473,-7.030797958374023,-12.92218017578125
1761400702343178200,3.26217822265625,15.314885139465332,-13.326051712036133,-9.209147453308105
1761400702353260000,3.272260009765625,4.455983638763428,-15.022717475891113,-2.4204630851745605
1761400702363340300,3.28234033203125,-1.4002338647842407,-21.053861618041992,-4.090867519378662
1761400702373421800,3.292421875,6.486715316772461,-28.959365844726562,-20.03340721130371
1761400702383502000,3.302502197265625,10.409390449523926,-36.24724197387695,-48.728065490722656
1761400702393580300,3.312580322265625,4.099920749664307,-37.3960075378418,-37.533226013183594
1761400702403664100,3.3226640625,12.565967559814453,-33.021053314208984,-18.756027221679688
1761400702413745400,3.332745361328125,4.921655654907227,-24.257003784179688,-14.851607322692871
1761400702423826000,3.342825927734375,6.199336528778076,-22.372766494750977,-17.881694793701172
1761400702433907200,3.3529072265625,8.326359748840332,-26.430564880371094,-23.799711227416992
1761400702443961900,3.3629619140625,8.475324630737305,-32.16086196899414,-26.47066879272461
1761400702454047200,3.373047119140625,7.109058380126953,-34.813114166259766,-25.1807918548584
1761400702464149200,3.383149169921875,4.831274509429932,-33.513362884521484,-22.906675338745117
1761400702474229800,3.393229736328125,5.086331844329834,-32.09592056274414,-21.032238006591797
1761400702484311300,3.403311279296875,3.766977071762085,-29.32956886291504,-18.657041549682617
1761400702494367000,3.413366943359375,2.419041633605957,-23.608922958374023,-14.75688648223877
1761400702504473300,3.423473388671875,2.1348049640655518,-18.45974349975586,-12.56529426574707
1761400702514554600,3.4335546875,0.9131634831428528,-13.424139022827148,-10.784307479858398
1761400702524631000,3.443631103515625,2.778620719909668,-8.537348747253418,-7.983091354370117
1761400702534715600,3.453715576171875,3.872995376586914,-6.026504993438721,-4.5929765701293945
1761400702544798000,3.4637978515625,3.9372646808624268,-4.768875598907471,-1.8662054538726807
1761400702554878200,3.473878173828125,1.9595792293548584,-3.500547409057617,-0.866401731967926
1761400702564959200,3.483959228515625,-0.21839608252048492,-2.4777743816375732,-1.0965443849563599
1761400702575040000,3.4940400390625,0.13415011763572693,-0.9612720012664795,-1.3186813592910767
1761400702585096200,3.50409619140625,0.41382279992103577,-0.9576058387756348,-1.82460618019104
1761400702595201300,3.514201171875,-0.7904606461524963,-2.8464813232421875,-2.161590099334717
1761400702605282300,3.5242822265625,-1.53438401222229,-4.068347454071045,-2.452709913253784
1761400702615351600,3.5343515625,-2.7501895427703857,-4.319214820861816,-2.7968764305114746
1761400702625444400,3.5444443359375,-3.6112043857574463,-1.958980679512024,-2.546757221221924
1761400702635524900,3.55452490234375,-3.9127988815307617,1.8694974184036255,-0.8637082576751709
1761400702645581300,3.564581298828125,-2.294243812561035,4.0335564613342285,1.1240029335021973
1761400702655686700,3.574686767578125,0.14746786653995514,4.754510402679443,4.213346004486084
1761400702665768700,3.584768798828125,0.8990975618362427,3.3681929111480713,7.039925575256348
1761400702675823400,3.5948232421875,-0.09120412170886993,0.7505074143409729,6.428431510925293
1761400702685930800,3.6049306640625,0.014440028928220272,0.3182043731212616,6.111499309539795
1761400702696011000,3.615010986328125,2.1624131202697754,0.2817676067352295,5.907019138336182
1761400702706091500,3.625091552734375,3.6471173763275146,-0.435819536447525,4.820799827575684
1761400702716173600,3.635173583984375,2.6962451934814453,-0.9165303111076355,3.7078702449798584
1761400702726239700,3.64523974609375,0.9212439060211182,-1.3606547117233276,2.3715314865112305
1761400702736334600,3.65533447265625,-0.0926256775856018,-2.3006033897399902,0.7644237279891968
1761400702746390000,3.66539013671875,-0.3373579978942871,-2.948085308074951,-1.4377928972244263
1761400702756470800,3.675470703125,-0.28236615657806396,-2.7636568546295166,-3.8419456481933594
1761400702766577200,3.6855771484375,-0.3562871515750885,-1.782109022140503,-4.80433988571167
1761400702776657700,3.69565771484375,-0.13272856175899506,-0.8013842105865479,-4.094533920288086
1761400702786739000,3.705739013671875,-0.23829789459705353,0.3265840709209442,-2.079813003540039
1761400702796819700,3.71581982421875,-0.7749731540679932,0.7434744238853455,0.5388450026512146
1761400702806900200,3.725900146484375,-0.7636007070541382,1.6342670917510986,2.0173394680023193
1761400702816981200,3.735981201171875,-0.5481973886489868,2.0424036979675293,2.697068214416504
1761400702827062300,3.746062255859375,-0.20433014631271362,2.548552989959717,2.3809587955474854
1761400702837143300,3.756143310546875,0.0561889223754406,2.994921922683716,1.2840403318405151
1761400702857282000,3.776281982421875,0.699630618095398,2.5487773418426514,-0.40125325322151184
1761400702867361500,3.786361572265625,0.7838765978813171,1.4662240743637085,-0.5445312261581421
1761400702877467400,3.79646728515625,0.6218938827514648,0.5220856070518494,-0.5883750915527344
1761400702887548000,3.8065478515625,0.35598787665367126,-0.35157355666160583,-0.483404278755188
1761400702897592000,3.816592041015625,0.31461307406425476,-1.0872668027877808,0.14529810845851898
1761400702907710000,3.8267099609375,0.08506897836923599,-1.3456162214279175,1.2020388841629028
1761400702917790700,3.836790771484375,-0.8933365345001221,-0.8756044507026672,2.2619221210479736
1761400702927871700,3.846871826171875,-1.8514660596847534,-0.10729016363620758,3.0096611976623535
1761400702937953300,3.856953369140625,-2.8039841651916504,0.34656068682670593,2.7475709915161133
1761400702948031200,3.86703125,-2.951077938079834,-0.5201402902603149,1.2713210582733154
1761400702958110200,3.877110107421875,-2.1279964447021484,-1.9678093194961548,-0.6562356948852539
1761400702968191700,3.887191650390625,-0.35830724239349365,-3.6460700035095215,-2.5953147411346436
1761400702978276000,3.897276123046875,4.031611442565918,-5.386953830718994,-5.477334976196289
1761400702988356900,3.90735693359375,10.957213401794434,-6.55031156539917,-8.59660530090332
1761400702998438000,3.91743798828125,13.499631881713867,-6.836642742156982,-9.982025146484375
1761400703008519000,3.927518798828125,7.540987014770508,-7.2242045402526855,-10.01531982421875
1761400703018599700,3.937599609375,-0.9228899478912354,-11.391536712646484,-11.409343719482422
1761400703028676900,3.9476767578125,-1.4438532590866089,-15.565303802490234,-13.819631576538086
1761400703038761700,3.95776171875,4.576142311096191,-18.444854736328125,-16.47203254699707
1761400703048842500,3.967842529296875,8.947879791259766,-19.389890670776367,-18.31975746154785
1761400703058924000,3.977924072265625,8.106616973876953,-18.83091926574707,-20.179080963134766
1761400703069004500,3.988004638671875,12.353482246398926,-18.343923568725586,-20.747777938842773
1761400703079085300,3.998085205078125,15.445369720458984,-20.253150939941406,-21.505916595458984
1761400703089162500,4.00816259765625,10.397194862365723,-22.234352111816406,-23.917999267578125
1761400703099223000,4.01822314453125,8.756194114685059,-31.922340393066406,-27.630884170532227
1761400703109328100,4.028328125,14.094889640808105,-44.802398681640625,-32.97593688964844
1761400703119409700,4.03840966796875,16.42818832397461,-44.040218353271484,-31.602190017700195
1761400703129490200,4.048490234375,17.103504180908203,-30.577247619628906,-22.93076515197754
1761400703139562000,4.05856201171875,15.12761402130127,-26.112884521484375,-15.884330749511719
1761400703149652000,4.06865185546875,11.675324440002441,-26.306217193603516,-13.77780818939209
1761400703159729000,4.07872900390625,9.036465644836426,-24.83535385131836,-12.255245208740234
1761400703169814000,4.08881396484375,5.961562156677246,-21.235820770263672,-11.000234603881836
1761400703179869200,4.098869140625,3.7020344734191895,-16.41180419921875,-10.478074073791504
1761400703189936000,4.10893603515625,3.0440778732299805,-12.57225227355957,-11.23523998260498
1761400703200057000,4.11905712890625,3.865962266921997,-11.758223533630371,-12.920160293579102
1761400703210146800,4.129146728515625,2.480767011642456,-10.089914321899414,-13.415984153747559
1761400703220214800,4.13921484375,0.22692543268203735,-7.293112277984619,-12.192696571350098
1761400703230299400,4.14929931640625,-1.124975562095642,-4.421117782592773,-9.783082008361816
1761400703240380400,4.15938037109375,-1.309104561805725,-1.8017115592956543,-5.877241611480713
1761400703250461200,4.169461181640625,-1.5313912630081177,0.20058920979499817,-2.3253684043884277
1761400703260543000,4.17954296875,-2.4684219360351562,1.7539771795272827,1.4264204502105713
1761400703270606800,4.18960693359375,-4.6168437004089355,1.6916531324386597,4.443338871002197
1761400703280699600,4.19969970703125,-5.4898295402526855,1.5146318674087524,6.271611213684082
1761400703290759700,4.209759765625,-4.490325450897217,2.1663784980773926,6.774618148803711
1761400703300840400,4.21984033203125,-1.8534114360809326,3.0399627685546875,6.744091987609863
1761400703310921500,4.22992138671875,1.1267712116241455,3.1052796840667725,5.574150562286377
1761400703321001700,4.240001708984375,2.902819871902466,1.1286416053771973,2.44014048576355
1761400703331082000,4.25008203125,2.3599348068237305,-0.8629601001739502,1.2143092155456543
1761400703341163300,4.260163330078125,0.9959130883216858,-1.498321294784546,1.5006407499313354
1761400703351252700,4.270252685546875,-0.7606827616691589,-1.3501052856445312,2.074052095413208
1761400703361334800,4.280334716796875,-1.737741470336914,-1.371802806854248,2.24897837638855
1761400703371415600,4.29041552734375,-1.6011972427368164,-1.6793828010559082,2.4268975257873535
1761400703381494300,4.300494384765625,-0.2894739508628845,-2.3785645961761475,2.0970213413238525
1761400703391593500,4.310593505859375,0.9861866235733032,-2.921449899673462,1.398363471031189
1761400703401674800,4.3206748046875,1.1301380395889282,-3.0079402923583984,0.7359925508499146
1761400703411752000,4.330751953125,1.317933201789856,-2.4005613327026367,0.2033575028181076
1761400703421837300,4.34083740234375,2.2667105197906494,-0.2379986196756363,-0.39885905385017395
1761400703431917600,4.35091748046875,1.6398037672042847,1.123329520225525,-1.7708114385604858
1761400703441998300,4.360998291015625,0.5160253047943115,0.8258499503135681,-2.3303065299987793
1761400703452054000,4.371053955078125,-0.18166005611419678,-0.1247977614402771,-2.3552210330963135
1761400703462160100,4.38116015625,-0.6745663285255432,-0.17006313800811768,-2.5245361328125
1761400703472221400,4.391221435546875,-1.1738321781158447,0.3182043731212616,-1.7339258193969727
1761400703482318300,4.401318359375,-1.60837984085083,1.1359739303588867,-0.6873603463172913
1761400703492403200,4.4114033203125,-1.8710685968399048,1.8391958475112915,0.1414075344800949
1761400703502484000,4.42148388671875,-1.8600702285766602,1.4144494533538818,0.5004629492759705
1761400703512539000,4.431538818359375,-1.6476596593856812,1.1849054098129272,0.7397335171699524
1761400703522645800,4.441645751953125,-1.184531331062317,1.1723358631134033,1.1561750173568726
1761400703532726800,4.451726806640625,-0.7482628226280212,1.426270842552185,1.376217007637024
1761400703542769400,4.461769287109375,-0.2454056739807129,1.653794765472412,1.7108815908432007
1761400703552888600,4.471888671875,0.4652981460094452,1.4920365810394287,1.955464243888855
1761400703562969900,4.481969970703125,1.258452296257019,1.3773393630981445,1.6201263666152954
1761400703573025000,4.49202490234375,2.1489455699920654,1.3898340463638306,0.8469488620758057
1761400703583131100,4.502131103515625,2.7866263389587402,1.2907739877700806,-0.18001404404640198
1761400703593212200,4.512212158203125,3.2358384132385254,0.969427227973938,-1.3299041986465454
1761400703603289000,4.5222890625,2.7217583656311035,0.4240729808807373,-1.6575357913970947
1761400703613348900,4.532348876953125,1.7445499897003174,-0.2974047362804413,-1.0998363494873047
1761400703623454700,4.542454833984375,0.8444049954414368,-0.40117841958999634,-1.467121958732605
1761400703633535500,4.552535400390625,1.3658920526504517,-1.47348153591156,-4.303353309631348
1761400703643616500,4.562616455078125,3.0237271785736084,-4.395380020141602,-8.148964881896973
1761400703653696300,4.5726962890625,4.6740803718566895,-9.133804321289062,-12.905345916748047
1761400703663778600,4.582778564453125,6.713266849517822,-14.852130889892578,-17.737367630004883
1761400703673855500,4.59285546875,6.556746006011963,-13.328296661376953,-19.165733337402344
1761400703683898000,4.602898193359375,7.131653308868408,-9.606884002685547,-16.449438095092773
1761400703694021400,4.613021484375,8.0192289352417,-9.406893730163574,-11.501445770263672
1761400703714159600,4.63315966796875,15.734319686889648,-27.897611618041992,-14.946252822875977
1761400703724264000,4.643263916015625,13.453917503356934,-38.81681823730469,-25.101259231567383
1761400703734345500,4.653345458984375,10.721908569335938,-42.02212905883789,-34.758270263671875
1761400703744426000,4.663426025390625,14.101249694824219,-40.24406051635742,-42.398170471191406
1761400703754506800,4.6735068359375,15.3191499710083,-32.40970993041992,-35.707275390625
1761400703764562400,4.6835625,17.118318557739258,-27.245864868164062,-28.36231231689453
1761400703774669600,4.693669677734375,16.974889755249023,-25.034820556640625,-23.973291397094727
1761400703784749600,4.70374951171875,13.819108009338379,-22.57096290588379,-17.885509490966797
1761400703794831400,4.713831298828125,10.71337890625,-18.836456298828125,-12.794539451599121
1761400703804920300,4.72392041015625,8.593388557434082,-15.747636795043945,-10.5530424118042
1761400703814992600,4.73399267578125,6.5545759201049805,-13.291036605834961,-10.117447853088379
1761400703825073400,4.744073486328125,4.830676078796387,-10.79044246673584,-10.191143989562988
1761400703835155000,4.754155029296875,3.6366426944732666,-8.533907890319824,-10.204985618591309
1761400703845235200,4.764235107421875,3.3850271701812744,-7.367108345031738,-9.76325511932373
1761400703855315700,4.774315673828125,2.335094928741455,-6.813898086547852,-8.488641738891602
1761400703865397000,4.78439697265625,0.44764089584350586,-5.550806999206543,-6.604854106903076
1761400703875478000,4.79447802734375,-1.745672345161438,-4.596418380737305,-4.2847981452941895
1761400703885533200,4.804533203125,-3.3440263271331787,-4.1109938621521,-2.14565372467041
1761400703895615000,4.814614990234375,-4.1629180908203125,-3.809025287628174,-0.9105448126792908
1761400703905721600,4.8247216796875,-4.564695358276367,-3.4430863857269287,-0.08858546614646912
1761400703915801600,4.834801513671875,-4.488978385925293,-2.704699754714966,0.9683049321174622
1761400703925883600,4.844883544921875,-3.5731215476989746,-1.7604864835739136,2.349609613418579
1761400703935963600,4.854963623046875,-2.1202900409698486,-0.6739677786827087,3.7008373737335205
1761400703946045000,4.865044921875,-0.9394248723983765,0.47569796442985535,4.676699161529541
1761400703956102000,4.875101806640625,0.37746086716651917,1.0161141157150269,4.8436198234558105
1761400703966206200,4.885206298828125,0.7916577458381653,1.3592331409454346,4.298340320587158
1761400703976281000,4.895281005859375,1.1035025119781494,1.6776620149612427,3.5708022117614746
1761400703986368300,4.9053681640625,1.6085294485092163,1.3708300590515137,3.071237087249756
1761400703996449500,4.915449462890625,1.7117046117782593,0.9013420939445496,2.8569560050964355
1761400704006529800,4.92552978515625,1.447594165802002,0.862660825252533,2.556483745574951
1761400704016585700,4.935585693359375,0.9920225143432617,1.1584194898605347,2.185906171798706
1761400704026691300,4.94569140625,0.4654477834701538,1.1353005170822144,1.6918776035308838
1761400704036772600,4.955772705078125,0.07885901629924774,1.045517921447754,1.134627103805542
1761400704046828800,4.965828857421875,-0.08252514153718948,1.0045171976089478,0.7528268098831177
1761400704056934100,4.97593408203125,-0.09651625901460648,0.900818407535553,0.46170684695243835
1761400704067015700,4.986015625,-0.12060791254043579,0.861314058303833,0.04159925505518913
1761400704077096200,4.99609619140625,-0.02132335864007473,0.7383119463920593,-0.43110594153404236
1761400704087177200,5.00617724609375,0.19565117359161377,0.7841010689735413,-1.0931026935577393
1761400704097258200,5.01625830078125,0.1156698688864708,0.9089736342430115,-1.8086698055267334
1761400704107338800,5.0263388671875,0.11514613777399063,1.0743980407714844,-2.1152024269104004
1761400704117418500,5.03641845703125,0.030151978135108948,1.4299370050430298,-1.9170821905136108
1761400704127501300,5.046501220703125,0.17178396880626678,1.680654764175415,-1.2659341096878052
1761400704137569300,5.0565693359375,0.3246387839317322,1.751807451248169,-0.5017349123954773
1761400704147644200,5.06664404296875,0.6883329749107361,1.4418331384658813,0.16819266974925995
1761400704157743600,5.07674365234375,0.8640823364257812,0.9023147821426392,0.643815815448761
1761400704167811800,5.086811767578125,0.8925135135650635,-0.021173721179366112,0.823156476020813
1761400704177903400,5.0969033203125,0.2795230448246002,-0.9258078932762146,1.0041431188583374
1761400704187974100,5.10697412109375,-0.6144120097160339,-1.4548516273498535,1.0947487354278564
1761400704198056000,5.117055908203125,-1.375019907951355,-2.005892038345337,0.4361936151981354
1761400704208123100,5.127123046875,-1.7886930704116821,-2.5469069480895996,-1.0806827545166016
1761400704218229200,5.137229248046875,-1.354669213294983,-3.0172178745269775,-2.4946086406707764
1761400704228287200,5.147287353515625,0.06456862390041351,-3.0377931594848633,-3.403357744216919
1761400704238388700,5.157388671875,2.87064790725708,-3.4397945404052734,-3.725078582763672
1761400704248460800,5.167460693359375,5.4916253089904785,-4.464961528778076,-4.488230228424072
1761400704258521300,5.177521240234375,7.879242897033691,-5.6291422843933105,-5.173870086669922
1761400704268609500,5.187609619140625,8.739883422851562,-8.661772727966309,-6.7393035888671875
1761400704278702300,5.197702392578125,7.264681339263916,-13.965229034423828,-12.253823280334473
1761400704288795600,5.207795654296875,3.9666683673858643,-17.371129989624023,-20.235118865966797
1761400704298876400,5.21787646484375,5.4700026512146,-18.732831954956055,-24.8309383392334
1761400704308955400,5.227955322265625,9.447894096374512,-18.833314895629883,-23.00902557373047
1761400704319026000,5.23802587890625,13.304055213928223,-19.511096954345703,-21.52065658569336
1761400704329094000,5.248093994140625,10.527828216552734,-20.757802963256836,-22.68648338317871
1761400704339176000,5.258176025390625,8.688333511352539,-24.0692081451416,-23.021297454833984
1761400704349255700,5.268255615234375,12.991986274719238,-29.7080020904541,-26.02646827697754
1761400704359336400,5.27833642578125,13.824344635009766,-33.38167953491211,-30.519487380981445
1761400704369441000,5.28844091796875,12.980613708496094,-35.22850799560547,-31.478364944458008
1761400704379524400,5.2985244140625,13.92969036102295,-33.04297637939453,-27.552846908569336
1761400704389604400,5.308604248046875,14.740575790405273,-30.41010284423828,-22.90996551513672
1761400704399673900,5.318673828125,12.817583084106445,-28.2403564453125,-19.836410522460938
1761400704409766400,5.328766357421875,7.963862895965576,-22.180034637451172,-16.712276458740234
1761400704419848000,5.338847900390625,5.444639205932617,-14.147637367248535,-13.4645414352417
1761400704429915600,5.34891552734375,5.248763561248779,-8.493430137634277,-10.875736236572266
1761400704440007200,5.359007080078125,6.1308770179748535,-7.289072036743164,-9.12968921661377
1761400704450090800,5.3690908203125,4.460622310638428,-8.24166488647461,-7.580865383148193
1761400704460145700,5.379145751953125,1.8288707733154297,-9.233687400817871,-6.020668983459473
1761400704470257000,5.3892568359375,-1.4695161581039429,-9.47497844696045,-4.449474334716797
1761400704480320300,5.3993203125,-4.721739768981934,-7.62605619430542,-3.1954362392425537
1761400704490414000,5.4094140625,-6.8937296867370605,-4.980313777923584,-3.0318074226379395
1761400704500494000,5.419494140625,-6.7172322273254395,-2.5050084590911865,-1.8127847909927368
1761400704510561300,5.429561279296875,-5.393612861633301,-1.3096283674240112,-0.1273415982723236
1761400704520645000,5.43964501953125,-4.771494388580322,-0.9422680139541626,0.6240636110305786
1761400704530724900,5.449724853515625,-3.540949583053589,-0.5372738242149353,0.3143137991428375
1761400704540818700,5.459818603515625,-1.1953799724578857,0.9996540546417236,-0.08634089678525925
1761400704550899500,5.4698994140625,1.1621605157852173,2.567556858062744,-0.6762123703956604
1761400704560948500,5.479948486328125,1.9081788063049316,3.4158525466918945,-1.2547861337661743
1761400704571036000,5.490035888671875,2.1320366859436035,3.8454620838165283,0.07900865375995636
1761400704581116400,5.500116455078125,1.560046911239624,0.18659809231758118,2.3792378902435303
1761400704591223000,5.51022314453125,0.877774178981781,-1.030853509902954,3.8320693969726562
1761400704601285000,5.52028515625,0.14844051003456116,-0.6335656046867371,4.394781589508057
1761400704611385300,5.53038525390625,-0.20186112821102142,-0.5571008324623108,4.767304420471191
1761400704621465900,5.5404658203125,0.0157119482755661,-0.6798036694526672,4.899509429931641
1761400704631532300,5.5505322265625,0.5931634902954102,-0.7206547260284424,4.125209331512451
1761400704641627400,5.56062744140625,0.8107365369796753,-0.9283517003059387,2.9549686908721924
1761400704651689700,5.570689697265625,1.5922189950942993,-1.0663175582885742,2.272172212600708
1761400704661777000,5.58077685546875,2.2807765007019043,-1.0146178007125854,0.7529016137123108
1761400704671870000,5.590869873046875,2.987739324569702,-1.2732664346694946,-1.6333693265914917
1761400704681951500,5.600951416015625,2.7082910537719727,-1.6533459424972534,-3.2982373237609863
1761400704692020000,5.61102001953125,1.1569231748580933,-1.7855507135391235,-3.9486372470855713
1761400704702113500,5.621113525390625,-0.295160174369812,-1.792583703994751,-3.3026516437530518
1761400704712194300,5.6311943359375,-0.41853639483451843,-0.5415384769439697,-1.7348235845565796
1761400704722264300,5.641264404296875,-0.5984007716178894,0.787617564201355,0.4985924959182739
1761400704732355600,5.65135546875,-1.0570400953292847,1.8899978399276733,2.3104794025421143
1761400704742436600,5.6614365234375,-1.6284312009811401,2.5445127487182617,3.141192674636841
1761400704752505600,5.671505615234375,-2.1252281665802,1.9739444255828857,2.899228572845459
1761400704762596900,5.681596923828125,-2.04315185546875,0.4523544907569885,2.458022117614746
1761400704772681000,5.691680908203125,-1.7104326486587524,-0.13691841065883636,2.0200328826904297
1761400704782760700,5.7017607421875,-1.5346084833145142,0.259471595287323,1.4847043752670288
1761400704792841500,5.711841552734375,-1.197026014328003,0.8824129700660706,1.3541455268859863
1761400704802922500,5.721922607421875,-0.7656956315040588,1.3926023244857788,1.5506197214126587
1761400704812980500,5.73198046875,-0.10893617570400238,1.0920552015304565,1.2375030517578125
1761400704823058700,5.74205859375,0.7751976251602173,0.932691216468811,0.7102549076080322
1761400704833165000,5.7521650390625,1.879373550415039,0.37304654717445374,0.20096330344676971
1761400704843233800,5.76223388671875,2.9422495365142822,-0.7863456010818481,-0.7528268098831177
1761400704853319400,5.7723193359375,3.668365955352783,-2.1377227306365967,-2.0148704051971436
1761400704863400400,5.782400390625,4.350114822387695,-3.528080701828003,-2.507477283477783
1761400704873489400,5.792489501953125,3.6967971324920654,-2.8226141929626465,-0.7795370817184448
1761400704883567400,5.8025673828125,1.3646949529647827,-1.978508472442627,-0.5362263321876526
1761400704893650700,5.812650634765625,0.9755623936653137,-2.1449053287506104,-3.3090860843658447
1761400704903731500,5.8227314453125,3.751788854598999,-3.4290952682495117,-7.675062656402588
1761400704913789000,5.832788818359375,7.226149559020996,-7.013664245605469,-13.192200660705566
1761400704923893800,5.842893798828125,12.346075057983398,-10.205509185791016,-14.287997245788574
1761400704933973800,5.852973876953125,15.153501510620117,-12.050167083740234,-14.985832214355469
1761400704944055300,5.86305517578125,12.22890853881836,-9.747393608093262,-16.832809448242188
1761400704954123500,5.87312353515625,6.0184245109558105,-5.950937747955322,-18.589553833007812
1761400704964213500,5.883213623046875,0.7307552695274353,-6.997054576873779,-22.960468292236328
1761400704974298000,5.893298095703125,3.9385366439819336,-10.9469633102417,-27.032407760620117
1761400704984367400,5.903367431640625,12.326847076416016,-18.12769889831543,-30.632762908935547
1761400704994460000,5.9134599609375,13.87918758392334,-26.65532112121582,-32.799442291259766
1761400705004541000,5.923541015625,11.722085952758789,-34.4277229309082,-33.52720260620117
1761400705014606800,5.93360693359375,14.72142219543457,-38.380775451660156,-33.09527587890625
1761400705024702700,5.94370263671875,16.550817489624023,-33.54478454589844,-29.39234161376953
1761400705034783200,5.953783203125,18.584991455078125,-24.828170776367188,-20.53940773010254
1761400705044866300,5.9638662109375,16.147693634033203,-19.47563362121582,-16.08514404296875
1761400705054945000,5.973945068359375,10.51166820526123,-18.115503311157227,-14.775815963745117
1761400705065026300,5.9840263671875,6.628422260284424,-18.085126876831055,-14.700248718261719
1761400705075106800,5.99410693359375,3.7883753776550293,-17.782634735107422,-14.299070358276367
1761400705085186300,6.004186279296875,1.1589432954788208,-16.58463478088379,-13.09067153930664
1761400705095258400,6.01425830078125,-0.2884264886379242,-14.539538383483887,-12.626870155334473
1761400705105349600,6.024349609375,-1.6141408681869507,-11.962254524230957,-12.921431541442871
1761400705115411000,6.034410888671875,1.398064136505127,-11.14194107055664,-13.484817504882812
1761400705125502700,6.044502685546875,3.2788591384887695,-9.025691032409668,-12.192546844482422
1761400705135580000,6.054579833984375,2.068290948867798,-7.118036270141602,-8.976086616516113
1761400705145659400,6.064659423828125,-0.2090437412261963,-6.756062984466553,-5.64687442779541
1761400705155743700,6.07474365234375,-1.6607530117034912,-5.729025363922119,-3.16550874710083
1761400705165835500,6.08483544921875,-1.6483330726623535,-3.9888148307800293,-0.12951134145259857
1761400705175916500,6.09491650390625,-4.222099781036377,-2.1051018238067627,2.368987798690796
1761400705185997000,6.1049970703125,-6.160580158233643,-1.361328125,2.9531729221343994
1761400705196063700,6.115063720703125,-5.630264759063721,-0.8047510385513306,3.40986704826355
1761400705206134000,6.125134033203125,-3.457451820373535,0.06913257390260696,4.395305633544922
1761400705216240400,6.135240478515625,0.0512508787214756,0.5704185366630554,4.2265143394470215
1761400705226296600,6.145296630859375,3.798326253890991,0.7534253597259521,2.9688849449157715
1761400705236402000,6.15540185546875,4.891802787780762,0.06958148628473282,0.09105448424816132
1761400705246484700,6.165484619140625,3.100865364074707,-0.46739307045936584,0.010025719180703163
1761400705256563200,6.175563232421875,0.1836053431034088,-0.364442378282547,3.004199504852295
1761400705266642400,6.185642333984375,-2.1091420650482178,-0.21914426982402802,5.107056617736816
1761400705276723500,6.195723388671875,-2.9019968509674072,-0.9943419098854065,5.604302406311035
1761400705286794200,6.205794189453125,-2.8623428344726562,-2.1378724575042725,4.854618072509766
1761400705296886800,6.21588671875,-1.9837456941604614,-3.278709650039673,3.391685962677002
1761400705306968000,6.225968017578125,-0.21712416410446167,-3.709217071533203,1.4728829860687256
1761400705317049300,6.23604931640625,1.4723591804504395,-3.4643349647521973,-1.1608885526657104
1761400705327117300,6.246117431640625,2.8160300254821777,-2.921300172805786,-3.5261354446411133
1761400705337185500,6.256185546875,2.958634853363037,-1.9399019479751587,-4.688071250915527
1761400705347267300,6.266267333984375,2.6482114791870117,0.20881928503513336,-4.144362926483154
1761400705357360400,6.2763603515625,0.979602575302124,0.9513959288597107,-2.503586769104004
1761400705367443700,6.286443603515625,-0.13018471002578735,0.6043862700462341,-0.9686042070388794
1761400705377534700,6.29653466796875,-0.2082955539226532,0.4139724373817444,-0.17477671802043915
1761400705387615200,6.306615234375,-0.3503016233444214,0.4759224057197571,0.30780455470085144
1761400705397684000,6.31668408203125,-0.511536180973053,0.7704092264175415,0.24518121778964996
1761400705407764700,6.3267646484375,-0.6570587158203125,1.4342015981674194,0.6147860884666443
1761400705417858300,6.3368583984375,-0.5549310445785522,1.7001824378967285,1.3040916919708252
1761400705427911400,6.346911376953125,-0.7056161165237427,1.6711528301239014,1.638681411743164
1761400705438019800,6.357019775390625,-1.1013327836990356,1.0937012434005737,1.9329438209533691
1761400705448101000,6.36710107421875,-1.1117326021194458,0.3585317134857178,2.3347954750061035
1761400705458180400,6.377180419921875,-1.0143933296203613,-0.07781155407428741,2.8104186058044434
1761400705468250000,6.38725,-0.7366659641265869,-0.2463034987449646,2.99245285987854
1761400705478344000,6.397343994140625,-0.0355389304459095,-0.08589198440313339,2.7201123237609863
1761400705498505500,6.41750537109375,2.4216601848602295,-0.375291109085083,0.7041197419166565
1761400705508586800,6.427586669921875,2.9479355812072754,-1.212738037109375,-0.9230395555496216
1761400705518666000,6.437666015625,2.9693338871002197,-1.5387234687805176,-2.4012346267700195
1761400705528748500,6.44774853515625,3.578583240509033,-1.5954362154006958,-2.6996867656707764
1761400705538816300,6.457816162109375,4.312855243682861,-2.1132571697235107,-2.271573781967163
1761400705548909800,6.467909912109375,4.184690475463867,-2.9217491149902344,-1.8799721002578735
1761400705558991400,6.477991455078125,3.7579989433288574,-4.036100387573242,-3.913172960281372
1761400705579152400,6.49815234375,5.975104331970215,-9.424026489257812,-13.161300659179688
1761400705589229800,6.508229736328125,5.397727966308594,-13.013982772827148,-17.06392478942871
1761400705599315200,6.518315185546875,7.144821643829346,-14.575526237487793,-20.228086471557617
1761400705609395500,6.5283955078125,8.91765308380127,-12.00101089477539,-21.202451705932617
1761400705619477800,6.538477783203125,9.226954460144043,-7.1146697998046875,-20.527660369873047
1761400705629557800,6.548557861328125,7.971569538116455,-5.265597820281982,-20.870704650878906
1761400705639638800,6.558638671875,6.064961910247803,-4.449100017547607,-22.988901138305664
1761400705649715500,6.568715576171875,8.920495986938477,-5.61799430847168,-23.042171478271484
1761400705659800600,6.578800537109375,12.453664779663086,-13.040543556213379,-25.267581939697266
1761400705669894100,6.58889404296875,9.318233489990234,-24.411205291748047,-28.722864151000977
1761400705679961600,6.598961669921875,8.499490737915039,-34.342281341552734,-31.286155700683594
1761400705690035700,6.60903564453125,14.652813911437988,-40.258724212646484,-30.816368103027344
1761400705700123600,6.61912353515625,17.56169319152832,-37.224674224853516,-24.730009078979492
1761400705710179600,6.6291796875,12.026598930358887,-27.24945640563965,-19.928062438964844
1761400705720281600,6.639281494140625,7.261688709259033,-22.044612884521484,-19.224990844726562
1761400705730366700,6.64936669921875,6.292410850524902,-19.62250328063965,-20.448801040649414
1761400705740447500,6.659447509765625,5.382240295410156,-18.04981231689453,-21.352388381958008
1761400705750528300,6.6695283203125,3.083881378173828,-15.49183177947998,-20.471546173095703
1761400705760609300,6.679609375,0.5565770864486694,-12.217611312866211,-17.697790145874023
1761400705770690000,6.68968994140625,0.7058405876159668,-8.402750015258789,-13.351415634155273
1761400705780767000,6.69976708984375,1.0678139925003052,-7.410727500915527,-9.819369316101074
1761400705790826800,6.70982666015625,0.6804022192955017,-7.722497463226318,-6.190881729125977
1761400705800910000,6.71991015625,-1.0895113945007324,-7.092672824859619,-3.515735626220703
1761400705810990000,6.729989990234375,-1.9847931861877441,-5.71780252456665,-1.4420576095581055
1761400705821095400,6.740095458984375,-2.2008697986602783,-3.9619548320770264,-0.4278887212276459
1761400705831175400,6.750175537109375,-2.347290277481079,-3.304222822189331,-0.16145898401737213
1761400705841252600,6.760252685546875,-2.6081087589263916,-3.2836475372314453,-0.4926818311214447
1761400705851338000,6.770337890625,-3.8395514488220215,-2.056095600128174,-0.1761234551668167
1761400705861418800,6.780418701171875,-4.621632099151611,-0.8933365345001221,0.3197007477283478
1761400705871499300,6.790499267578125,-4.15371561050415,0.9626935124397278,-0.1182137057185173
1761400705881580000,6.800580078125,-1.750909686088562,2.469095230102539,-0.7514800429344177
1761400705891661000,6.8106611328125,0.5052513480186462,3.342006206512451,-0.8105120658874512
1761400705901742000,6.8207421875,1.0821791887283325,3.013476848602295,0.8683470487594604
1761400705911819500,6.830819580078125,-0.09636662155389786,0.8120833039283752,3.230152130126953
1761400705921904400,6.840904296875,-1.127594232559204,-1.1772738695144653,3.7148284912109375
1761400705931984600,6.850984619140625,-1.5743372440338135,-2.570474863052368,4.278139114379883
1761400705942043600,6.861043701171875,-1.6146645545959473,-3.8248119354248047,4.870779037475586
1761400705952146700,6.871146728515625,-1.3860182762145996,-4.599860191345215,4.435932159423828
1761400705962227500,6.8812275390625,-0.267851322889328,-4.7695488929748535,3.0488662719726562
1761400705972326000,6.891325927734375,1.6355390548706055,-4.324003219604492,0.9867851734161377
1761400705982389500,6.901389404296875,2.6909329891204834,-3.4561049938201904,-0.7024737596511841
1761400705992470300,6.91147021484375,2.2846670150756836,-1.8841619491577148,-1.3585598468780518
1761400706002551800,6.9215517578125,1.9574095010757446,-0.22453123331069946,-1.5347580909729004
1761400706012631800,6.9316318359375,2.264465808868408,1.0799345970153809,-1.6572364568710327
1761400706022688300,6.941688232421875,1.51395845413208,0.16587328910827637,-2.291475534439087
1761400706032794400,6.95179443359375,0.6396259665489197,-0.5372738242149353,-2.35379958152771
1761400706042851300,6.961851318359375,-0.1263689547777176,-0.8784475922584534,-1.8633623123168945
1761400706052956200,6.9719560546875,-0.7489362359046936,-1.3882628679275513,-1.170465350151062
1761400706063012600,6.9820126953125,-0.6466588973999023,-1.3024457693099976,-0.43357497453689575
1761400706073117400,6.992117431640625,-0.37566521763801575,-1.2303204536437988,-0.1776946634054184
1761400706083198700,7.00219873046875,-0.6623708605766296,-0.08536825329065323,0.424970805644989
1761400706093267500,7.012267333984375,-0.45078328251838684,0.923638105392456,1.7271173000335693
1761400706103359000,7.02235888671875,-0.503829836845398,0.8942343592643738,2.5703251361846924
1761400706113428700,7.0324287109375,-0.6723217368125916,0.7561936378479004,2.9233202934265137
1761400706123522300,7.042522216796875,-0.661697506904602,0.6989572644233704,2.779069662094116
1761400706133592800,7.0525927734375,-0.37641340494155884,0.7436240911483765,2.276287317276001
1761400706143684000,7.06268408203125,0.024091655388474464,1.2132617235183716,2.064624786376953
1761400706153765400,7.072765380859375,0.276754766702652,2.076446294784546,1.8674025535583496
1761400706163825000,7.082824951171875,0.8981249332427979,2.8551602363586426,1.6834230422973633
1761400706173914600,7.09291455078125,1.4818612337112427,2.414477586746216,1.4621838331222534
1761400706184008400,7.103008544921875,2.226832151412964,1.3596073389053345,1.1392658948898315
1761400706194076400,7.113076416015625,3.22371768951416,-0.14447510242462158,0.8137292861938477
1761400706204157400,7.123157470703125,4.38460636138916,-1.6789339780807495,-0.19041384756565094
1761400706214238000,7.133238037109375,4.596118927001953,-2.2399253845214844,-2.402057647705078
1761400706224331800,7.143331787109375,4.279186725616455,-2.364348888397217,-4.539855480194092
1761400706234393300,7.153393310546875,5.163993835449219,-2.6699090003967285,-6.674959659576416
1761400706244493000,7.1634931640625,6.622137546539307,-3.878232717514038,-8.83131217956543
1761400706264654000,7.183654052734375,4.468328475952148,-9.51089096069336,-17.23630714416504
1761400706274735900,7.19373583984375,3.3833811283111572,-10.921974182128906,-18.627038955688477
1761400706284804600,7.2038046875,4.642431735992432,-9.5833158493042,-16.8732852935791
1761400706304979000,7.22397900390625,10.577433586120605,-8.883535385131836,-12.803143501281738
1761400706315060200,7.234060302734375,10.955717086791992,-8.7059907913208,-17.988012313842773
1761400706325140700,7.244140625,8.410231590270996,-12.734384536743164,-24.280946731567383
1761400706335221800,7.2542216796875,5.0061259269714355,-22.457536697387695,-30.636953353881836
1761400706345302500,7.264302490234375,7.132925510406494,-31.73200035095215,-36.23093032836914
1761400706355360800,7.27436083984375,16.76913833618164,-40.99419403076172,-38.75718688964844
1761400706365443800,7.28444384765625,15.311668395996094,-40.995914459228516,-32.16520309448242
1761400706375543600,7.29454345703125,11.990984916687012,-28.77239418029785,-22.042142868041992
1761400706385624600,7.30462451171875,9.212364196777344,-19.737051010131836,-18.89735984802246
1761400706395708200,7.314708251953125,7.599645137786865,-18.624345779418945,-20.000337600708008
1761400706405788000,7.324787841796875,3.3492636680603027,-17.366268157958984,-18.760366439819336
1761400706415867400,7.334867431640625,1.6118215322494507,-18.011280059814453,-19.712434768676758
1761400706425926700,7.3449267578125,1.6492308378219604,-19.614572525024414,-19.071237564086914
1761400706436031000,7.355031005859375,-0.2015618532896042,-19.86992835998535,-16.621746063232422
1761400706446112300,7.3651123046875,-0.031947627663612366,-16.28528594970703,-12.709844589233398
1761400706456192800,7.37519287109375,0.45512276887893677,-11.22671127319336,-9.663372039794922
1761400706466260700,7.3852607421875,0.02588730677962303,-7.555202960968018,-9.376891136169434
1761400706476352800,7.395352783203125,-0.04189852997660637,-6.542904376983643,-9.9139404296875
1761400706486433000,7.40543310546875,-0.9136872291564941,-7.503727436065674,-8.783802032470703
1761400706496515800,7.415515869140625,-0.5880758166313171,-6.775291442871094,-6.771251201629639
1761400706506597400,7.425597412109375,-0.3464858829975128,-6.506691932678223,-4.3581953048706055
1761400706516678100,7.43567822265625,-2.3785645961761475,-6.207940578460693,-1.9547908306121826
1761400706526759200,7.44575927734375,-4.10710334777832,-5.17050313949585,-0.04324526712298393
1761400706536818700,7.455818603515625,-3.8035635948181152,-2.263942241668701,1.9560627937316895
1761400706546891800,7.465891845703125,-0.7593360543251038,0.8043021559715271,3.276839017868042
1761400706557002000,7.476001953125,2.1004631519317627,2.0201826095581055,4.436081886291504
1761400706567082500,7.48608251953125,1.917007327079773,2.6833014488220215,6.239963054656982
1761400706577164000,7.4961640625,0.7868693470954895,3.20291805267334,8.521562576293945
1761400706587244300,7.506244384765625,-0.8138041496276855,1.9700539112091064,7.694141387939453
1761400706597325000,7.516324951171875,-1.0794109106063843,0.49709612131118774,6.4007487297058105
1761400706607396900,7.52639697265625,0.11454758793115616,-0.7497591972351074,6.909292221069336
1761400706617481200,7.536481201171875,0.8914660215377808,-1.8871546983718872,6.1588592529296875
1761400706627568400,7.546568359375,-0.9875333905220032,-2.6262147426605225,3.149273157119751
1761400706637648600,7.556648681640625,-2.2830958366394043,-3.491793632507324,-0.5690718293190002
1761400706647730200,7.566730224609375,-4.188207149505615,-2.9672389030456543,-2.4880244731903076
1761400706657798100,7.576798095703125,-0.9944167137145996,-2.0025253295898438,-2.984297513961792
1761400706667891700,7.5868916015625,1.0870423316955566,-1.3857190608978271,-4.1483283042907715
1761400706677947400,7.596947509765625,0.5080944895744324,-0.02536357380449772,-4.8203511238098145
1761400706688031500,7.607031494140625,0.3030909597873688,1.8501193523406982,-3.718719005584717
1761400706698119200,7.617119140625,0.14365209639072418,3.1170260906219482,-1.2423661947250366
1761400706708190200,7.627190185546875,-0.8044517636299133,2.645742416381836,1.2580033540725708
1761400706718296300,7.63729638671875,-1.2853870391845703,1.8410662412643433,3.04370379447937
1761400706728377300,7.64737744140625,-1.047238826751709,1.5770307779312134,3.758821964263916
1761400706738445300,7.6574453125,-0.8595932126045227,1.4609867334365845,3.7618894577026367
1761400706748539100,7.6675390625,-0.3734206557273865,1.5190461874008179,3.5719244480133057
1761400706758620200,7.6776201171875,0.5945850014686584,1.3762918710708618,3.0651767253875732
1761400706768701200,7.687701171875,1.5219640731811523,1.201066255569458,2.6122984886169434
1761400706778770400,7.6977705078125,1.9330934286117554,1.4863502979278564,2.308908224105835
1761400706788853500,7.707853515625,1.6091279983520508,1.63112473487854,2.173261880874634
1761400706798942000,7.71794189453125,0.8186673521995544,1.3543699979782104,1.6464625597000122
1761400706809022500,7.7280224609375,0.28079497814178467,1.101706862449646,0.7353940010070801
1761400706819105800,7.738105712890625,-1.206079125404358,0.5050269365310669,0.3843441903591156
1761400706829189400,7.748189453125,-3.4338839054107666,-1.0799345970153809,0.7562684416770935
1761400706839267600,7.758267578125,-3.9311294555664062,-2.919579267501831,1.6418237686157227
1761400706849348000,7.76834814453125,-2.7752537727355957,-3.922600269317627,1.9080290794372559
1761400706859429400,7.778429443359375,-1.0101286172866821,-3.7183449268341064,0.37386956810951233
1761400706869520400,7.788520263671875,2.675295829772949,-3.103334426879883,-3.0090625286102295
1761400706879591200,7.798591064453125,9.783231735229492,-2.27441668510437,-8.587028503417969
1761400706889672200,7.808672119140625,10.523488998413086,-0.35987845063209534,-13.095834732055664
1761400706899740200,7.818740234375,5.779078960418701,1.6071078777313232,-15.324162483215332
1761400706909834200,7.828834228515625,6.567744255065918,0.016310499981045723,-16.404621124267578
1761400706919914200,7.838914306640625,8.564059257507324,-2.353200912475586,-7.0138139724731445
1761400706929994200,7.848994140625,3.2823758125305176,-5.59450101852417,1.8354548215866089
1761400706940076300,7.859076171875,-6.012364387512207,-9.989058494567871,5.0201921463012695
1761400706950157300,7.8691572265625,-5.66655158996582,-19.440692901611328,1.7164181470870972
1761400706960238800,7.87923876953125,11.739968299865723,-31.90019416809082,-19.251327514648438
1761400706970319400,7.8893193359375,5.411868572235107,-36.83195114135742,-45.592559814453125
1761400706980399900,7.89939990234375,4.231601715087891,-32.07235336303711,-39.80135726928711
1761400706990481000,7.90948095703125,7.794772624969482,-29.639318466186523,-28.545692443847656
1761400707000558600,7.91955859375,14.434791564941406,-31.134721755981445,-17.78757095336914
1761400707010649900,7.92964990234375,11.946842193603516,-26.163312911987305,-11.353079795837402
1761400707020712200,7.939712158203125,14.065561294555664,-25.57688331604004,-13.671415328979492
1761400707030792200,7.949792236328125,11.212719917297363,-29.105562210083008,-19.211000442504883
1761400707040885500,7.959885498046875,10.26745891571045,-30.89777183532715,-22.34807777404785
1761400707050947000,7.969947021484375,8.9866361618042,-32.01272201538086,-21.488035202026367
1761400707061035300,7.98003515625,6.748730659484863,-30.692020416259766,-18.345272064208984
1761400707071116000,7.990115966796875,5.714660167694092,-31.45771598815918,-16.389806747436523
1761400707081209300,8.000209228515626,3.1477019786834717,-30.369550704956055,-16.019678115844727
1761400707091290400,8.010290283203124,1.4377928972244263,-26.38829231262207,-15.708881378173828
1761400707101371100,8.02037109375,1.933916449546814,-21.842077255249023,-15.09753704071045
1761400707111452700,8.03045263671875,1.45574951171875,-13.969867706298828,-14.886472702026367
1761400707121518000,8.04051806640625,1.904512643814087,-5.838260650634766,-13.702614784240723
1761400707131602000,8.050601806640625,4.865092754364014,0.632293701171875,-11.143512725830078
1761400707141695000,8.060695068359376,4.16067361831665,3.5488054752349854,-7.46646785736084
1761400707151763200,8.07076318359375,1.8617911338806152,3.187804698944092,-3.114407539367676
1761400707161844200,8.08084423828125,0.8337807655334473,2.0340240001678467,0.8504653573036194
1761400707171926500,8.090926513671874,-1.64885675907135,1.7523311376571655,2.573542356491089
1761400707181999000,8.1009990234375,-3.233070135116577,1.66120183467865,2.283843994140625
1761400707192099000,8.11109912109375,-3.057021379470825,0.9763853549957275,0.8341548442840576
1761400707202167800,8.121167724609375,-2.006340980529785,0.5531353950500488,-0.6202479004859924
1761400707212248600,8.13124853515625,-0.0496048666536808,1.4131027460098267,-0.5282955765724182
1761400707222321400,8.1413212890625,2.338087558746338,2.56770658493042,0.48654666543006897
1761400707232411400,8.151411376953124,2.592172145843506,0.2716670632362366,0.25415948033332825
1761400707242504200,8.161504150390625,-0.6577320694923401,-2.8762593269348145,1.6772879362106323
1761400707252583400,8.17158349609375,-3.341557502746582,-3.4392707347869873,4.176385402679443
1761400707262665500,8.18166552734375,-3.244891405105591,-3.178302764892578,5.79254674911499
1761400707272747000,8.1917470703125,-1.2521674633026123,-3.796680212020874,6.825270652770996
1761400707282827300,8.2018271484375,-0.336460143327713,-3.9875428676605225,5.957521915435791
1761400707292909300,8.211909423828125,-0.9650129079818726,-4.157007694244385,4.631283760070801
1761400707302978000,8.22197802734375,-1.7091606855392456,-3.623474597930908,2.688164710998535
1761400707313073400,8.232073486328124,-1.1438298225402832,-3.185335636138916,0.05162497237324715
1761400707323147500,8.2421474609375,1.4875473976135254,-2.1657798290252686,-1.4726585149765015
1761400707333231900,8.25223193359375,3.5306243896484375,-0.7919570207595825,-2.4076690673828125
1761400707343313700,8.262313720703125,4.372710227966309,0.383670836687088,-3.193042039871216
1761400707353394000,8.272393798828125,1.7317559719085693,-0.08379705995321274,-2.780416250228882
1761400707363449300,8.282449462890625,-0.9240870475769043,-0.300921231508255,-2.261024236679077
1761400707373530600,8.292530517578125,-1.0974421501159668,-0.5731868743896484,-2.2567596435546875
1761400707383611600,8.302611572265626,-0.4621557593345642,-0.32673370838165283,-1.71013343334198
1761400707393692200,8.312692138671874,-0.5891980528831482,0.9500491619110107,0.09120412170886993
1761400707403773400,8.3227734375,-0.6589292287826538,2.2030396461486816,1.9028666019439697
1761400707413880300,8.33288037109375,-0.5826888680458069,2.787299633026123,2.9496564865112305
1761400707423960300,8.342960205078125,-0.6457610726356506,2.6861445903778076,3.1640124320983887
1761400707434041600,8.35304150390625,-0.6211457252502441,2.276810884475708,2.9450178146362305
1761400707444118000,8.363117919921875,-0.11432313174009323,1.6698060035705566,2.4431331157684326
1761400707454203100,8.373203125,0.05835866555571556,1.2488006353378296,1.914613127708435
1761400707464284000,8.383283935546874,0.1925836056470871,0.8934113383293152,1.9157354831695557
1761400707474349600,8.393349609375,0.7606079578399658,0.4131494164466858,1.981950044631958
1761400707484446700,8.40344677734375,1.0091559886932373,-0.03890577703714371,1.8411411046981812
1761400707494527000,8.41352685546875,0.6096236109733582,-0.6502501964569092,1.5789011716842651
1761400707504621000,8.42362109375,0.5214122533798218,-1.3608044385910034,1.4167689085006714
1761400707514689300,8.433689208984376,0.45183074474334717,-1.9181296825408936,1.5123872756958008
1761400707524769300,8.443769287109374,0.06247369945049286,-2.0730793476104736,1.1191396713256836
1761400707534850600,8.4538505859375,0.059480950236320496,-2.733729362487793,-0.3843441903591156
1761400707544931300,8.463931396484375,1.3720271587371826,-3.590928554534912,-3.050811529159546
1761400707555012000,8.47401220703125,3.314697504043579,-4.357447147369385,-5.940687656402588
1761400707565094700,8.4840947265625,5.462595462799072,-6.355632781982422,-8.643442153930664
1761400707597856000,8.51685595703125,8.011148452758789,-14.784943580627441,-18.82126808166504
1761400707607936800,8.526936767578125,6.236895561218262,-12.927716255187988,-18.214937210083008
1761400707618014000,8.537013916015624,6.863428115844727,-9.52121639251709,-13.958121299743652
1761400707628094500,8.547094482421874,6.384662628173828,-5.257442474365234,-13.763068199157715
1761400707638176000,8.557176025390625,6.802974700927734,-5.201478004455566,-17.028310775756836
1761400707648260600,8.567260498046876,4.769923210144043,-5.398251533508301,-19.009363174438477
1761400707658341600,8.577341552734374,6.5447001457214355,-8.88443374633789,-20.66398048400879
1761400707668422400,8.58742236328125,9.932271003723145,-16.493804931640625,-23.604583740234375
1761400707678504000,8.59750390625,9.130587577819824,-22.531084060668945,-24.430883407592773
1761400707688584200,8.607584228515625,6.915576934814453,-25.580772399902344,-24.360553741455078
1761400707698661000,8.6176611328125,8.700603485107422,-28.396953582763672,-19.704130172729492
1761400707708721200,8.62772119140625,12.712388038635254,-27.92185401916504,-17.131261825561523
1761400707718828300,8.637828369140625,13.698275566101074,-22.04423713684082,-16.532411575317383
1761400707728907500,8.647907470703124,10.198775291442871,-18.756624221801758,-15.37653636932373
1761400707738988800,8.65798876953125,6.477662563323975,-18.441713333129883,-14.665233612060547
1761400707749069800,8.66806982421875,6.447659969329834,-19.90838623046875,-15.78317642211914
1761400707759146500,8.678146484375,5.852775573730469,-20.809429168701172,-17.795278549194336
1761400707769206300,8.688206298828124,5.011887073516846,-22.450878143310547,-20.073060989379883
1761400707779313000,8.69831298828125,2.5995044708251953,-21.468656539916992,-20.352659225463867
1761400707789373000,8.708373046875,0.9460089206695557,-18.77570343017578,-18.3300838470459
1761400707799474700,8.718474609375,0.6259341239929199,-16.055591583251953,-16.381502151489258
1761400707809555500,8.728555419921875,0.7337480187416077,-12.80276870727539,-14.59453010559082
1761400707819611000,8.73861083984375,1.28231942653656,-9.521066665649414,-12.305374145507812
1761400707829692000,8.74869189453125,1.666439175605774,-7.414319038391113,-8.016012191772461
1761400707839798000,8.758798095703124,1.9923498630523682,-6.0930938720703125,-4.477306842803955
1761400707849878800,8.768878662109374,2.3104794025421143,-4.6956281661987305,-1.833434820175171
1761400707859959800,8.778959716796875,1.2503718137741089,-3.6909611225128174,0.37723639607429504
1761400707870041600,8.78904150390625,0.34678515791893005,-3.1541361808776855,1.9152116775512695
1761400707880122400,8.799122314453125,-0.09127894043922424,-2.4512135982513428,3.1007156372070312
1761400707890198500,8.809198486328125,-1.390208125114441,-2.099191188812256,3.092784881591797
1761400707900263700,8.819263671875,-2.46557879447937,-1.838073492050171,1.8525135517120361
1761400707910344700,8.8293447265625,-2.6565163135528564,-1.0459668636322021,-0.06599018722772598
1761400707920445400,8.839445556640625,-1.6240917444229126,0.2621650993824005,-2.195707321166992
1761400707930526200,8.849526123046875,-0.1487397849559784,1.6094273328781128,-3.650409460067749
1761400707940607200,8.859607177734375,1.1808651685714722,2.7310359477996826,-3.4023849964141846
1761400707950688000,8.86968798828125,2.057217836380005,2.9792098999023438,-1.8072482347488403
1761400707960765000,8.879764892578125,0.6557120084762573,0.18824410438537598,0.1553238332271576
1761400707970819000,8.889819091796875,-2.310105323791504,-2.585737943649292,2.4262988567352295
1761400707980917800,8.899917724609375,-4.360664367675781,-3.8265328407287598,4.850203514099121
1761400707991011800,8.91001171875,-4.486060619354248,-3.806705951690674,7.1945013999938965
1761400708001092600,8.920092529296875,-3.049464702606201,-3.13700270652771,7.426888465881348
1761400708011174100,8.930174072265626,0.0022445640061050653,-2.180818557739258,4.9712605476379395
1761400708021251800,8.940251953125,2.97741436958313,-1.4917372465133667,2.2870612144470215
1761400708031335700,8.950335693359374,2.9536218643188477,-1.155351996421814,1.043123722076416
1761400708041416200,8.960416259765625,0.4148702621459961,-0.5917419195175171,0.41270050406455994
1761400708051497200,8.970497314453125,-0.4472668170928955,0.2578255832195282,-0.6575076580047607
1761400708061578000,8.980577880859375,0.908524751663208,0.5965303182601929,-1.6324714422225952
1761400708071648800,8.990648681640625,1.6236428022384644,0.1354968547821045,-2.3854479789733887
1761400708081736200,9.000736083984375,1.6556652784347534,-0.26912322640419006,-1.8293945789337158
1761400708091769300,9.010769287109374,0.5464017391204834,-1.0172364711761475,-0.4851999282836914
1761400708101901800,9.02090185546875,-0.8432078957557678,-1.2685527801513672,0.33922845125198364
1761400708111983000,9.030983154296875,-1.3816040754318237,-1.243039608001709,0.891914963722229
1761400708122050600,9.041050537109374,-0.9210942983627319,-1.0594342947006226,1.3618518114089966
1761400708132145200,9.051145263671875,-0.41038113832473755,-0.6140379309654236,1.4186393022537231
1761400708142225400,9.061225341796876,-0.367061048746109,0.05050269141793251,1.6074072122573853
1761400708152294000,9.0712939453125,-0.5071966648101807,0.7515549063682556,1.684470534324646
1761400708162387500,9.081387451171874,-0.14657004177570343,1.2654104232788086,1.6567127704620361
1761400708172468000,9.091468017578125,0.8258499503135681,0.9710732698440552,1.4122048616409302
1761400708182549500,9.101549560546875,1.9948937892913818,0.39953240752220154,1.0866682529449463
1761400708192629800,9.111629638671875,2.5698013305664062,-0.10220248252153397,1.162609338760376
1761400708202711000,9.1217109375,2.3074119091033936,-0.13923779129981995,0.7970446944236755
1761400708212770000,9.13177001953125,1.876530408859253,-0.2753331959247589,-0.16736966371536255
1761400708222847500,9.141847412109374,0.7032219171524048,0.2634370028972626,-0.9126397371292114
1761400708232954000,9.1519541015625,-1.142483115196228,-0.6091746687889099,-0.39392098784446716
1761400708243021600,9.162021484375,-0.01062426995486021,-1.2230629920959473,-1.310600996017456
1761400708253115600,9.17211572265625,2.8465561866760254,-1.3554174900054932,-4.084134101867676
1761400708263196200,9.182196044921875,5.688847541809082,-0.5757306814193726,-8.172831535339355
1761400708273277700,9.192277587890626,8.307954788208008,-2.48136568069458,-9.334393501281738
1761400708283356200,9.202356201171876,10.24306869506836,-6.201581001281738,-11.009437561035156
1761400708293439000,9.21243896484375,11.485060691833496,-11.15697956085205,-14.381969451904297
1761400708303508000,9.222508056640624,10.144681930541992,-19.56960678100586,-20.682161331176758
1761400708313589000,9.232589111328124,6.813748359680176,-19.7940616607666,-22.028301239013672
1761400708323669200,9.242669189453125,7.983989238739014,-13.070021629333496,-16.040029525756836
1761400708333766400,9.252766357421875,8.763227462768555,-10.075998306274414,-14.627076148986816
1761400708343842000,9.262842041015626,10.916287422180176,-16.244733810424805,-21.473371505737305
1761400708353917000,9.2729169921875,9.149890899658203,-22.934057235717773,-27.006744384765625
1761400708364005600,9.283005615234375,12.909161567687988,-28.906469345092773,-35.691261291503906
1761400708374074000,9.29307421875,12.396428108215332,-34.16368865966797,-40.18996810913086
1761400708384142000,9.30314208984375,8.28790283203125,-38.19993591308594,-34.37250518798828
1761400708394223400,9.313223388671876,9.814431190490723,-34.28923416137695,-25.23406219482422
1761400708404327400,9.323327392578125,13.732617378234863,-24.81485366821289,-16.627656936645508
1761400708414418700,9.333418701171874,10.01524543762207,-18.318710327148438,-10.477251052856445
1761400708424473000,9.34347314453125,5.145663261413574,-17.296161651611328,-8.129735946655273
1761400708434572300,9.353572265625,4.379593372344971,-16.860567092895508,-10.203339576721191
1761400708444652800,9.36365283203125,0.85256028175354,-17.493608474731445,-15.389703750610352
1761400708454711600,9.373711669921875,-1.427467942237854,-19.207035064697266,-18.612749099731445
1761400708464814600,9.383814697265626,0.3155857026576996,-17.113903045654297,-18.42270851135254
1761400708474893600,9.3938935546875,3.020509958267212,-11.78096866607666,-14.065635681152344
1761400708484967200,9.40396728515625,3.853916645050049,-8.707113265991211,-9.193360328674316
1761400708495057200,9.41405712890625,4.390292644500732,-8.284012794494629,-5.790900707244873
1761400708505138200,9.42413818359375,2.758868455886841,-6.41848087310791,-3.6682910919189453
1761400708515219700,9.4342197265625,0.20283377170562744,-4.45209264755249,-1.955389380455017
1761400708525290200,9.444290283203125,-1.7898154258728027,-1.9611504077911377,-1.1514613628387451
1761400708535379200,9.454379150390626,-4.122066974639893,-0.9538649320602417,-0.25348609685897827
1761400708545464800,9.46446484375,-5.230657577514648,-2.4625861644744873,-0.09943418949842453
1761400708555520500,9.4745205078125,-5.502548694610596,-3.258807897567749,-1.2618191242218018
1761400708565622300,9.484622314453125,-2.975543737411499,-2.85486102104187,-2.3248445987701416
1761400708575693800,9.49469384765625,-0.5436334013938904,-2.0148704051971436,-1.3868412971496582
1761400708585786000,9.5047861328125,-0.7318775057792664,-0.45819035172462463,0.8461258411407471
1761400708595854300,9.514854248046875,-1.1595418453216553,1.0800094604492188,3.0924108028411865
1761400708605935400,9.524935302734375,-0.9553613066673279,1.8621652126312256,5.076231479644775
1761400708616016600,9.5350166015625,0.26725277304649353,1.4919617176055908,7.336881637573242
1761400708626084400,9.54508447265625,1.6262614727020264,-0.10295066982507706,8.217573165893555
1761400708636190500,9.5551904296875,1.2809727191925049,-1.6545430421829224,7.52819299697876
1761400708646271500,9.565271484375,-0.9154828786849976,-1.6300772428512573,7.433996200561523
1761400708656350000,9.575349853515625,-0.3513490855693817,-1.42223060131073,6.8127007484436035
1761400708666431000,9.585430908203126,2.733804225921631,-1.498620629310608,4.0435075759887695
1761400708676513800,9.595513671875,4.7597479820251465,-2.732532262802124,0.32695817947387695
1761400708686595000,9.605594970703125,4.039616584777832,-3.6990416049957275,-2.399813175201416
1761400708696663000,9.6156630859375,1.358709454536438,-3.7740848064422607,-3.6495864391326904
1761400708706756600,9.625756591796875,-0.2521393597126007,-3.3104326725006104,-5.0789995193481445
1761400708716822500,9.635822509765624,-0.603039562702179,-2.6723780632019043,-5.312284469604492
1761400708726893300,9.645893310546874,-1.7175405025482178,-1.1202619075775146,-3.489623785018921
1761400708736983300,9.6559833984375,-2.2811505794525146,0.22363340854644775,-1.4045734405517578
1761400708747080200,9.666080078125,-2.4647557735443115,0.5900210738182068,0.0719008669257164
1761400708757161200,9.6761611328125,-2.459368944168091,0.6300491690635681,0.74040687084198
1761400708767230000,9.68622998046875,-1.8514660596847534,1.9378069639205933,1.7066917419433594
1761400708777323500,9.696323486328126,-1.2503718137741089,2.4984991550445557,1.9923498630523682
1761400708787402200,9.70640234375,-0.6523451209068298,3.3248727321624756,2.03507137298584
1761400708797477600,9.7164775390625,-0.1711854189634323,3.3621325492858887,2.00536847114563
1761400708807565800,9.72656591796875,0.2967313826084137,2.5552866458892822,1.9049615859985352
1761400708817646800,9.736646728515625,1.3555670976638794,2.4688708782196045,1.7744027376174927
1761400708827728100,9.74672802734375,2.5730185508728027,2.173785448074341,1.7534534931182861
1761400708837796400,9.75679638671875,3.600804567337036,1.6100258827209473,1.3075333833694458
1761400708847888000,9.766887939453126,4.289586544036865,0.6821978688240051,0.45407530665397644
1761400708857970400,9.776970458984374,1.7901146411895752,0.38958150148391724,0.8738836050033569
1761400708868053500,9.787053466796875,-3.550675868988037,0.7653215527534485,2.3965210914611816
1761400708878132200,9.79713232421875,-7.019275665283203,0.9026140570640564,2.1110873222351074
1761400708888213500,9.807213623046875,-7.608099460601807,-0.22370822727680206,0.07586626708507538
1761400708898294500,9.81729443359375,-4.61893892288208,-1.451933741569519,-2.4824130535125732
1761400708908347100,9.82734716796875,0.3390040099620819,-2.87992525100708,-5.7813239097595215
1761400708918454300,9.837454345703126,6.618620872497559,-4.643479347229004,-9.846529006958008
1761400708928537300,9.847537353515625,11.981707572937012,-5.919064998626709,-13.643957138061523
1761400708938614300,9.8576142578125,11.871499061584473,-4.74807596206665,-12.983306884765625
1761400708948699100,9.86769921875,4.2509050369262695,-2.826504707336426,-8.136320114135742
1761400708958751500,9.87775146484375,-3.097947359085083,-5.060070514678955,-4.369866847991943
1761400708968861000,9.88786083984375,0.9190741777420044,-12.486584663391113,-4.971560001373291
1761400708978939400,9.897939453125,12.405705451965332,-15.00700569152832,-10.725948333740234
1761400708999103500,9.918103515625,1.9721487760543823,-15.404593467712402,-16.303390502929688
1761400709009173000,9.928173095703125,12.946122169494629,-22.096088409423828,-19.572898864746094
1761400709019265300,9.938265380859375,17.810989379882812,-36.36904525756836,-27.367746353149414
1761400709029346000,9.948345947265626,7.690624713897705,-38.30760192871094,-28.389022827148438
1761400709039425000,9.958425048828126,17.16313362121582,-46.33319091796875,-35.541324615478516
1761400709049496600,9.96849658203125,18.942325592041016,-41.6624755859375,-28.210878372192383
1761400709059588900,9.9785888671875,13.629816055297852,-27.426403045654297,-17.658884048461914
1761400709069670000,9.988669921875,9.411906242370605,-24.79180908203125,-13.723564147949219
1761400709079748000,9.998748046875,9.046341896057129,-27.897388458251953,-13.078475952148438
1761400709089820700,10.008820556640625,8.462455749511719,-30.355859756469727,-11.64846420288086
1761400709099912700,10.01891259765625,7.458462238311768,-28.687698364257812,-10.54601001739502
1761400709109990700,10.02899072265625,5.073462963104248,-27.532272338867188,-13.56509780883789
1761400709120074800,10.03907470703125,2.076446294784546,-23.564929962158203,-17.6332950592041
1761400709130155000,10.049155029296875,1.26728093624115,-16.19984245300293,-18.156652450561523
1761400709140236000,10.059236083984375,3.230900287628174,-7.950919151306152,-16.77190589904785
1761400709150313200,10.069313232421875,4.317119598388672,-4.215740203857422,-14.322488784790039
1761400709160397800,10.079397705078126,3.9316532611846924,-3.5586814880371094,-10.39764404296875
1761400709170477300,10.089477294921876,2.1519384384155273,-3.692457675933838,-5.7754130363464355
1761400709190638800,10.109638916015625,0.806696355342865,-1.4558242559432983,0.8721627593040466
1761400709200710100,10.119710205078125,-0.17904140055179596,0.36975452303886414,0.7238719463348389
1761400709210802700,10.129802734375,-2.154482364654541,0.095917709171772,-0.8166472315788269
1761400709220884000,10.139884033203124,-3.3628058433532715,-1.432480812072754,-2.6380362510681152
1761400709230939000,10.14993896484375,-3.3262195587158203,-1.6528221368789673,-4.290484428405762
1761400709241041400,10.16004150390625,-2.345569372177124,-1.2001683712005615,-4.628066539764404
1761400709251126000,10.1701259765625,-2.533140182495117,-0.12831424176692963,-4.378620624542236
1761400709261207600,10.18020751953125,-3.2502036094665527,0.26912322640419006,-1.909450650215149
1761400709271262500,10.190262451171876,-2.472761392593384,0.20058920979499817,2.441711664199829
1761400709281357300,10.200357421875,-0.761954665184021,-0.2406172752380371,5.582829475402832
1761400709291449600,10.21044970703125,0.4686649739742279,-1.239298701286316,6.594903469085693
1761400709301526800,10.22052685546875,0.7434744238853455,-0.8727613091468811,7.608548641204834
1761400709311599400,10.230599365234376,0.5148282051086426,-0.6673089265823364,6.959345817565918
1761400709321692700,10.240692626953125,0.38052842020988464,-0.3529202938079834,6.066832065582275
1761400709331773700,10.250773681640625,0.6102969646453857,-0.6072294116020203,5.261332988739014
1761400709341854200,10.260854248046876,0.688108503818512,-1.6445173025131226,4.357222557067871
1761400709351922700,10.270922607421875,0.4843769371509552,-3.0341269969940186,2.4964041709899902
1761400709362014200,10.28101416015625,1.64885675907135,-4.375254154205322,0.12427403032779694
1761400709372096800,10.2910966796875,1.852064609527588,-4.970287799835205,-1.827000379562378
1761400709382157300,10.3011572265625,0.5818658471107483,-4.720692157745361,-1.908552885055542
1761400709392246000,10.31124609375,0.2529623806476593,-4.090792655944824,-1.0764929056167603
1761400709402327800,10.321327880859375,1.0830769538879395,-2.8856863975524902,-0.8405144214630127
1761400709412417000,10.3314169921875,1.1789199113845825,-1.542015552520752,-1.1919384002685547
1761400709422501600,10.341501708984374,0.18225860595703125,-0.4808604419231415,-1.3099275827407837
1761400709432580900,10.351580810546874,-0.6553378701210022,0.18375498056411743,-0.7520037889480591
1761400709442646500,10.361646484375,-0.744297444820404,0.40304890275001526,-0.21682488918304443
1761400709452744700,10.37174462890625,-0.5020341873168945,1.3947721719741821,-0.20844519138336182
1761400709462825000,10.381824951171875,-0.5036053657531738,1.8096424341201782,-0.39975687861442566
1761400709472907500,10.391907470703124,-0.6141875386238098,1.509993076324463,-0.43043258786201477
1761400709482970400,10.401970458984374,-1.1566238403320312,0.6918494701385498,-0.31543606519699097
1761400709493066000,10.41206591796875,-1.7776199579238892,0.7439981698989868,0.41442134976387024
1761400709503138300,10.42213818359375,-1.7753753662109375,1.0732009410858154,1.30274498462677
1761400709513217300,10.43221728515625,-1.4003835916519165,1.2154314517974854,1.9905542135238647
1761400709523311000,10.44231103515625,-0.8814403414726257,1.282618761062622,2.6502315998077393
1761400709533384000,10.452384033203124,0.035913024097681046,1.4025533199310303,2.746448516845703
1761400709543472600,10.46247265625,0.612017810344696,1.4570213556289673,2.390385866165161
1761400709553533000,10.472532958984376,0.8330325484275818,1.1670985221862793,1.8053028583526611
1761400709563633200,10.482633056640625,0.8869768977165222,0.9995043873786926,0.7983914613723755
1761400709573702700,10.49270263671875,1.3958944082260132,0.9296236038208008,-0.8155249357223511
1761400709583796500,10.50279638671875,2.411933660507202,0.4165911078453064,-2.029160737991333
1761400709593859600,10.512859619140626,1.5199439525604248,0.4444985091686249,-1.6535704135894775
1761400709603932400,10.522932373046874,-0.395043283700943,-0.009277531877160072,-1.9087773561477661
1761400709614013700,10.533013671875,-0.6206967830657959,-2.528052568435669,-4.318466663360596
1761400709624115700,10.54311572265625,2.3471407890319824,-5.4117937088012695,-8.916231155395508
1761400709634200800,10.553200927734375,5.789478778839111,-8.96149730682373,-15.88455581665039
1761400709644281600,10.563281494140625,6.302511692047119,-16.50442886352539,-18.838476181030273
1761400709654363000,10.57336279296875,5.853972911834717,-21.028947830200195,-12.691438674926758
1761400709664443100,10.583443115234376,3.593996047973633,-18.83548355102539,-9.06871223449707
1761400709674524700,10.593524658203124,11.909132957458496,-18.393829345703125,-8.553585052490234
1761400709684605200,10.603605224609375,12.706253051757812,-19.15982437133789,-11.772065162658691
1761400709694687500,10.6136875,5.23103141784668,-22.58263397216797,-20.44348907470703
1761400709704767000,10.62376708984375,17.198898315429688,-39.026084899902344,-36.19090270996094
1761400709714848000,10.633847900390625,22.696359634399414,-49.323097229003906,-38.69830322265625
1761400709724923000,10.6439228515625,17.907655715942383,-37.70276641845703,-25.879375457763672
1761400709734984400,10.653984375,15.040300369262695,-22.643760681152344,-20.97769546508789
1761400709745090800,10.6640908203125,11.688567161560059,-18.439617156982422,-17.55219268798828
1761400709755172000,10.674172119140625,10.512191772460938,-22.399627685546875,-14.242656707763672
1761400709765252400,10.68425244140625,9.129988670349121,-26.627338409423828,-13.811924934387207
1761400709775333400,10.69433349609375,6.814870834350586,-28.720993041992188,-15.53545093536377
1761400709785414700,10.70441455078125,4.624101161956787,-28.76782989501953,-18.45054054260254
1761400709795496000,10.714495849609374,2.8984055519104004,-25.674896240234375,-19.653104782104492
1761400709805590000,10.724590087890626,2.5089738368988037,-20.923303604125977,-18.41560173034668
1761400709815658500,10.734658447265625,1.4241758584976196,-16.44607162475586,-16.277130126953125
1761400709825738200,10.74473828125,2.20580792427063,-12.815189361572266,-14.125639915466309
1761400709835819000,10.754819091796875,5.4508490562438965,-7.935805797576904,-10.585738182067871
1761400709845900800,10.76490087890625,4.814889430999756,-2.58813214302063,-5.789179801940918
1761400709855980800,10.774980712890626,1.565882682800293,-1.0203039646148682,0.005611410364508629
1761400709866061800,10.785061767578124,-1.0310779809951782,-2.351929187774658,3.4736874103546143
1761400709876142300,10.795142333984375,1.0134207010269165,-4.596193790435791,3.0389153957366943
1761400709886224000,10.805223876953125,1.815328598022461,-6.131924629211426,0.6455366611480713
1761400709896304400,10.815304443359375,-1.7617583274841309,-4.596642971038818,-1.1121066808700562
1761400709916469000,10.835468994140625,-4.679392337799072,-0.5800701975822449,-2.356642723083496
1761400709926547000,10.845546875,-2.5981576442718506,0.6508487462997437,-1.9655647277832031
1761400709936628000,10.8556279296875,-0.8090905547142029,0.7158663272857666,-0.8941594958305359
1761400709946684000,10.865683837890625,-0.870067834854126,1.6457892656326294,0.8770260214805603
1761400709956790300,10.875790283203125,-0.8462755084037781,2.2347629070281982,2.9868414402008057
1761400709966859000,10.88585888671875,-1.3667899370193481,0.23942017555236816,4.381014823913574
1761400709976926500,10.895926513671874,-1.6697312593460083,-0.9818471670150757,5.410147666931152
1761400709987033300,10.906033447265624,0.1934066116809845,-2.1298668384552,5.725658416748047
1761400709997113300,10.91611328125,1.8254292011260986,-3.1709704399108887,4.631583213806152
1761400710007195400,10.9261953125,1.210044503211975,-3.842244863510132,3.2000749111175537
1761400710017275400,10.936275390625,-0.4049941897392273,-3.604321002960205,2.103156566619873
1761400710027356400,10.9463564453125,-1.2180501222610474,-2.0121021270751953,1.2716203927993774
1761400710037412400,10.956412353515624,0.38905778527259827,-0.6253355741500854,-0.6335656046867371
1761400710047518500,10.9665185546875,1.955164909362793,-0.5607669353485107,-2.7234044075012207
1761400710057586400,10.97658642578125,1.9188029766082764,-1.1061211824417114,-3.82690691947937
1761400710067680000,10.986679931640625,1.0598831176757812,-1.5017629861831665,-3.9264907836914062
1761400710077761500,10.996761474609375,0.23956981301307678,-1.9782840013504028,-3.4967315196990967
1761400710087842300,11.00684228515625,-0.49649757146835327,-1.8757073879241943,-2.625840663909912
1761400710097918000,11.01691796875,-0.8034791350364685,-1.0384101867675781,-1.1011831760406494
1761400710108001500,11.02700146484375,-1.1377695798873901,0.06950666755437851,1.0569652318954468
1761400710118080300,11.037080322265625,-1.1105355024337769,1.4502876996994019,3.0348751544952393
1761400710128163600,11.04716357421875,-0.7934533953666687,2.1377975940704346,4.147131443023682
1761400710138248700,11.057248779296875,-0.6333411931991577,2.3477392196655273,3.993678092956543
1761400710148327200,11.0673271484375,-0.8404396176338196,2.4180688858032227,3.647491455078125
1761400710158408400,11.077408447265626,-0.9854384660720825,2.8697500228881836,3.5458126068115234
1761400710168489000,11.087489013671876,-0.5991489887237549,3.4023849964141846,3.77909779548645
1761400710178570800,11.09757080078125,0.11065700650215149,3.444208860397339,3.7766287326812744
1761400710188626000,11.1076259765625,0.801608681678772,3.0335283279418945,3.3493385314941406
1761400710198728000,11.11772802734375,1.2473790645599365,2.4040029048919678,2.562918186187744
1761400710208787500,11.127787353515625,1.4152724742889404,1.9131168127059937,1.7931822538375854
1761400710218854700,11.137854736328125,1.2652608156204224,1.2984055280685425,1.1150245666503906
1761400710228949000,11.147948974609376,0.29568392038345337,0.863932728767395,0.37963059544563293
1761400710239030000,11.158030029296874,-1.203460454940796,-0.1876455545425415,-1.2782793045043945
1761400710249137000,11.168136962890625,-1.4692916870117188,-1.6264111995697021,-2.432508945465088
1761400710259213600,11.178213623046876,-2.4652047157287598,-2.5447371006011963,-3.3563714027404785
1761400710269298200,11.188298095703125,-2.553041934967041,-2.5522937774658203,-3.555988073348999
1761400710279380000,11.1983798828125,-0.5838111042976379,-2.6913070678710938,-4.42433500289917
1761400710299541000,11.218541015625,5.826439380645752,-4.3977742195129395,-10.195183753967285
1761400710309621800,11.228621826171874,7.52086067199707,-6.511181354522705,-12.792144775390625
1761400710319699200,11.23869921875,5.415534496307373,-7.727585315704346,-11.716999053955078
1761400710329783600,11.248783447265625,1.0226234197616577,-10.6739501953125,-9.372700691223145
1761400710339864800,11.25886474609375,0.8530839681625366,-14.5660982131958,-10.684124946594238
1761400710349945600,11.268945556640626,10.679935455322266,-21.150527954101562,-18.07293128967285
1761400710360002600,11.27900244140625,8.383147239685059,-24.09397315979004,-19.107524871826172
1761400710370107400,11.289107421875,5.2929816246032715,-24.442480087280273,-19.379566192626953
1761400710380165400,11.299165283203125,17.45754623413086,-33.239601135253906,-31.226900100708008
1761400710390265300,11.309265380859374,13.742792129516602,-41.0814323425293,-41.62162399291992
1761400710400345600,11.319345703125,16.844181060791016,-47.51457977294922,-41.93122482299805
1761400710410405600,11.329405517578126,15.964088439941406,-33.98501968383789,-28.492795944213867
1761400710420512800,11.3395126953125,15.841085433959961,-18.57010269165039,-18.826356887817383
1761400710430593000,11.349593017578124,11.209951400756836,-17.117645263671875,-15.459883689880371
1761400710440673800,11.359673828125,8.750133514404297,-20.807783126831055,-13.546243667602539
1761400710450751000,11.3697509765625,6.204498767852783,-25.046716690063477,-12.034829139709473
1761400710460835800,11.3798359375,5.156960964202881,-27.28409767150879,-10.918906211853027
1761400710470917000,11.389917236328126,0.47083473205566406,-26.670061111450195,-12.440496444702148
1761400710480997400,11.399997314453126,-3.058293342590332,-23.06214714050293,-16.54745101928711
1761400710491039500,11.41003955078125,-0.7723544836044312,-17.93047523498535,-16.861839294433594
1761400710501159200,11.4201591796875,-0.3307739198207855,-13.95520305633545,-16.846500396728516
1761400710511241000,11.430240966796875,0.1453729271888733,-11.248483657836914,-15.676858901977539
1761400710521317400,11.4403173828125,2.57002592086792,-10.004695892333984,-12.31405258178711
1761400710531402000,11.450402099609375,5.6117095947265625,-8.365265846252441,-7.480833053588867
1761400710541483000,11.46048291015625,6.385560512542725,-3.757624864578247,-2.561347007751465
1761400710551563800,11.470563720703124,0.7580640912055969,-0.9015665650367737,1.6151134967803955
1761400710561644800,11.480644775390624,-2.7029788494110107,-1.4049475193023682,4.592153549194336
1761400710571694600,11.490694580078125,-3.2317981719970703,-3.539602756500244,4.663082122802734
1761400710581803000,11.500802978515624,-2.686967611312866,-3.801393747329712,3.7283706665039062
1761400710591888400,11.510888427734375,-2.125303030014038,-1.9685574769973755,2.2641665935516357
1761400710601922300,11.52092236328125,-2.0685901641845703,0.1305588185787201,-0.21046529710292816
1761400710612024000,11.531024169921874,0.11065700650215149,3.139845848083496,-1.6002246141433716
1761400710622105000,11.54110498046875,4.006995677947998,5.51624059677124,-1.747093915939331
1761400710632211200,11.551211181640625,6.938171863555908,7.08646297454834,1.4576947689056396
1761400710642287600,11.56128759765625,3.2426469326019287,2.5312697887420654,4.959813117980957
1761400710652372700,11.571372802734375,-3.351433515548706,-1.807472586631775,7.802403926849365
1761400710662454000,11.5814541015625,-5.735011100769043,-2.2218940258026123,11.13849925994873
1761400710672534800,11.59153466796875,-6.206743240356445,-1.4386907815933228,9.906907081604004
1761400710682615800,11.60161572265625,-3.2590322494506836,-0.8744821548461914,6.385036468505859
1761400710692671200,11.611671142578125,1.7065421342849731,-0.8709656596183777,2.615440845489502
1761400710702777600,11.621777587890625,2.817002773284912,-0.9336638450622559,-0.07728782296180725
1761400710712833300,11.631833251953125,1.5959599018096924,-0.9498246908187866,-0.9790040254592896
1761400710722939100,11.641939208984375,0.829590916633606,-1.2026374340057373,-1.7320553064346313
1761400710733021200,11.652021240234374,0.7005284428596497,-1.1075427532196045,-2.699312686920166
1761400710743084300,11.662084228515624,0.5891980528831482,-1.7441011667251587,-3.51162052154541
1761400710753182500,11.672182373046875,0.32029929757118225,-1.097891092300415,-4.601506233215332
1761400710763263200,11.68226318359375,-0.38067805767059326,-0.8453028202056885,-3.243694305419922
1761400710773340200,11.692340087890624,-1.1088147163391113,-0.2999485731124878,-2.1716904640197754
1761400710783424800,11.7024248046875,-1.4389899969100952,-0.2742109000682831,-1.4894179105758667
1761400710793505500,11.712505615234376,-1.5506197214126587,-0.516623854637146,-0.5473743677139282
1761400710803562000,11.72256201171875,-1.8229601383209229,0.12120646238327026,0.9749638438224792
1761400710813642000,11.73264208984375,-1.6237925291061401,1.5153800249099731,2.5195231437683105
1761400710823749600,11.74274951171875,-1.155277132987976,2.6412534713745117,3.479149103164673
1761400710833829400,11.752829345703125,-0.758288562297821,3.162067174911499,3.9893386363983154
1761400710843907300,11.7629072265625,-0.30122050642967224,2.7137527465820312,3.669563055038452
1761400710853991400,11.772991455078126,0.013093290850520134,2.0456957817077637,2.9746460914611816
1761400710864047400,11.78304736328125,0.737937867641449,1.465625524520874,2.3990650177001953
1761400710874154000,11.793154052734375,1.9218705892562866,1.0667665004730225,1.8544588088989258
1761400710884234500,11.803234375,2.839672803878784,0.7294085025787354,1.1610381603240967
1761400710894314800,11.813314697265625,3.2386815547943115,0.4191349446773529,0.9531915783882141
1761400710904370200,11.8233701171875,2.605041027069092,0.07549217343330383,0.7071873545646667
1761400710914477600,11.8334775390625,0.8043769598007202,-0.7181856632232666,0.06980594247579575
1761400710924532000,11.843531982421876,-1.9167829751968384,-1.7210569381713867,-0.8590695261955261
1761400710934640600,11.853640625,-2.5021653175354004,-2.988337755203247,-2.775179147720337
1761400710944720100,11.86372021484375,-0.1767968386411667,-4.185962200164795,-5.403488636016846
1761400710954800400,11.87380029296875,4.749273300170898,-5.409698963165283,-7.522581577301025
1761400710964881700,11.883881591796875,11.181221008300781,-7.705812931060791,-9.517999649047852
1761400710974962000,11.8939619140625,12.726004600524902,-12.822221755981445,-13.676353454589844
1761400710985043500,11.90404345703125,8.744597434997559,-16.41868782043457,-17.9825496673584
1761400710995124700,11.914124755859374,3.3160440921783447,-15.31421184539795,-16.6287784576416
1761400711005205000,11.924205078125,0.6426935195922852,-11.201870918273926,-14.880936622619629
1761400711015285800,11.93428564453125,0.22931963205337524,-8.841113090515137,-13.897293090820312
1761400711025366500,11.944366455078125,10.617012977600098,-10.729989051818848,-20.12700653076172
1761400711035408100,11.954408203125,16.419809341430664,-10.98048210144043,-24.80377960205078
1761400711045529300,11.964529296875,5.718550682067871,-13.444564819335938,-26.947189331054688
1761400711055583700,11.974583740234374,1.3402292728424072,-25.941699981689453,-29.7696533203125
1761400711065690600,11.984690673828124,4.509553909301758,-43.719696044921875,-36.092891693115234
1761400711075747600,11.99474755859375,12.071414947509766,-47.55236053466797,-31.486820220947266
1761400711085826600,12.00482666015625,17.733179092407227,-32.65317153930664,-20.912229537963867
1761400711095934200,12.014934326171876,14.807912826538086,-21.17267417907715,-13.893403053283691
1761400711106014700,12.0250146484375,10.162039756774902,-20.658519744873047,-12.77224349975586
1761400711116081400,12.035081298828125,5.463493347167969,-21.68907356262207,-13.380819320678711
1761400711126150700,12.045150634765625,2.357166290283203,-20.4914493560791,-13.723713874816895
1761400711136257300,12.05525732421875,0.8648305535316467,-18.907459259033203,-14.869040489196777
1761400711146337800,12.065337890625,-1.2327146530151367,-16.980426788330078,-16.033370971679688
1761400711156419000,12.075419189453125,-1.8546085357666016,-15.141380310058594,-16.206201553344727
1761400711166503200,12.085503173828124,-1.7267431020736694,-12.840402603149414,-15.445144653320312
1761400711176580400,12.095580322265626,0,-11.860501289367676,-11.995473861694336
1761400711186662000,12.105661865234374,0.2371755987405777,-11.411887168884277,-7.441253662109375
1761400711196742100,12.1157421875,1.1656769514083862,-10.276885986328125,-3.9059903621673584
1761400711206823200,12.1258232421875,2.6408045291900635,-8.306234359741211,-3.263371706008911
1761400711216904000,12.135904052734375,1.750685214996338,-6.226869583129883,-3.042581558227539
1761400711226985000,12.14598486328125,-2.2485294342041016,-6.061744689941406,-2.4263737201690674
1761400711237067300,12.1560673828125,-4.498779773712158,-6.788010597229004,-1.2866590023040771
1761400711247146800,12.166146728515624,-3.948113441467285,-5.846715450286865,1.0188076496124268
1761400711257227800,12.176227783203124,-2.2557120323181152,-3.2106993198394775,2.742408514022827
1761400711267308500,12.18630859375,-0.5058499574661255,-0.66274493932724,2.430713176727295
1761400711277364500,12.196364501953125,1.289053201675415,1.7076643705368042,1.0420763492584229
1761400711287444500,12.206444580078125,3.191171646118164,3.327042579650879,-0.3093009293079376
1761400711297551400,12.21655126953125,4.039242744445801,4.356698989868164,-0.15524901449680328
1761400711307632400,12.22663232421875,3.2437691688537598,4.901305198669434,1.5642367601394653
1761400711317688300,12.236688232421875,-0.27660512924194336,2.768669843673706,2.0931308269500732
1761400711327794200,12.246794189453125,-3.8326680660247803,0.35082536935806274,3.7125089168548584
1761400711337875000,12.256875,-4.8296284675598145,-0.8164976239204407,5.323507308959961
1761400711347956500,12.26695654296875,-3.0639796257019043,-1.6267104148864746,6.069525718688965
1761400711358034700,12.27703466796875,-1.141585350036621,-2.0300586223602295,4.978368282318115
1761400711368114000,12.287114013671875,0.002094926545396447,-2.1494693756103516,2.8149826526641846
1761400711378174500,12.297174560546875,0.5143792629241943,-2.2654385566711426,0.05918167158961296
1761400711388255200,12.307255126953125,0.4729296565055847,-2.681206703186035,-1.9223195314407349
1761400711398360800,12.31736083984375,0.20709845423698425,-2.9839982986450195,-2.9706804752349854
1761400711408416300,12.327416259765625,0.04571428894996643,-2.7399394512176514,-3.7568764686584473
1761400711418497300,12.337497314453126,-0.5222352743148804,-2.693476915359497,-3.997793197631836
1761400711428578300,12.347578369140624,-0.6715735793113708,-1.8415151834487915,-3.2229695320129395
1761400711438658600,12.357658447265624,-0.5519382953643799,-0.9589526057243347,-2.202889919281006
1761400711448740000,12.367739990234375,-0.26994624733924866,0.4819827377796173,-1.566406488418579
1761400711458821000,12.377821044921875,0.05918167158961296,1.6988357305526733,-0.1429039090871811
1761400711468891100,12.38789111328125,0.0776619166135788,2.0021512508392334,1.2921206951141357
1761400711478988500,12.397988525390625,-0.32606035470962524,1.449315071105957,2.1052515506744385
1761400711489072600,12.40807275390625,-0.5950339436531067,0.6023662090301514,2.1651813983917236
1761400711499170300,12.41817041015625,-0.586579442024231,-0.44838908314704895,1.5615432262420654
1761400711509251600,12.42825146484375,-0.6303484439849854,-0.9161562323570251,0.9460089206695557
1761400711519332400,12.438332275390625,-0.7965958118438721,-0.27308863401412964,0.9710732698440552
1761400711539489300,12.4584892578125,0.13287819921970367,1.7510592937469482,1.6027684211730957
1761400711549574700,12.46857470703125,1.3876643180847168,2.22196888923645,1.1573721170425415
1761400711559648500,12.4786484375,2.7819876670837402,1.6635960340499878,0.10639233887195587
1761400711569736400,12.488736328125,3.2545430660247803,0.7319523692131042,-0.6313958764076233
1761400711599975000,12.518974853515624,7.187617778778076,-2.1345057487487793,-1.3266122341156006
1761400711610059800,12.529059814453126,9.06863784790039,-3.2347910404205322,-3.277437686920166
1761400711620141000,12.53914111328125,9.697789192199707,-6.063465595245361,-6.2930097579956055
1761400711630221300,12.54922119140625,8.631022453308105,-10.450615882873535,-8.698957443237305
1761400711640302300,12.55930224609375,10.225261688232422,-16.302867889404297,-10.605116844177246
1761400711650383400,12.56938330078125,10.970157623291016,-22.562658309936523,-12.342558860778809
1761400711660464600,12.579464599609375,7.941641807556152,-23.863906860351562,-15.194951057434082
1761400711670519300,12.589519287109376,5.806387901306152,-17.17435646057129,-18.477027893066406
1761400711680626400,12.59962646484375,4.227187633514404,-7.149759769439697,-19.335647583007812
1761400711690707200,12.609707275390624,3.9518544673919678,-2.8044331073760986,-19.589656829833984
1761400711700788000,12.6197880859375,4.5609540939331055,-3.7000889778137207,-19.38166046142578
1761400711710852400,12.629852294921875,3.0958523750305176,-3.211148262023926,-18.28900718688965
1761400711720950300,12.6399501953125,2.960355520248413,-1.9458874464035034,-17.811439514160156
1761400711731027000,12.65002685546875,3.614346742630005,-3.8593034744262695,-17.12175941467285
1761400711741111800,12.66011181640625,4.959887981414795,-8.771158218383789,-18.674474716186523
1761400711751170300,12.67017041015625,4.9368438720703125,-16.539817810058594,-16.508319854736328
1761400711761248300,12.680248291015625,3.25184965133667,-21.37079429626465,-12.179304122924805
1761400711771354400,12.690354248046875,7.212457656860352,-23.867273330688477,-11.709068298339844
1761400711781435400,12.700435302734375,11.557709693908691,-24.873661041259766,-11.476381301879883
1761400711791500000,12.7105,11.115455627441406,-24.363845825195312,-7.9286980628967285
1761400711801593300,12.72059326171875,6.725536823272705,-20.620586395263672,-5.9094133377075195
1761400711811673300,12.73067333984375,2.609006404876709,-14.264429092407227,-6.960991859436035
1761400711821759500,12.740759521484375,3.8301241397857666,-10.434454917907715,-9.417293548583984
1761400711831840000,12.750840087890625,5.689895153045654,-7.724218368530273,-8.627730369567871
1761400711841920800,12.760920654296875,4.56424617767334,-4.949712753295898,-6.827739715576172
1761400711851988700,12.77098876953125,3.2525978088378906,-2.2894554138183594,-6.238616466522217
1761400711862081000,12.7810810546875,1.3655179738998413,-1.9437177181243896,-5.9199628829956055
1761400711872163300,12.791163330078126,0.4870704114437103,-3.1138088703155518,-5.419949054718018
1761400711882244600,12.80124462890625,0.5253028273582458,-4.584522247314453,-4.544793605804443
1761400711892325000,12.8113251953125,0.6269815564155579,-5.7382283210754395,-3.4332103729248047
1761400711902406100,12.82140625,1.0364649295806885,-6.054337501525879,-3.4460792541503906
1761400711912487400,12.8314873046875,1.4145243167877197,-5.908515930175781,-3.220949411392212
1761400711922566100,12.841566162109375,2.047865390777588,-4.127304553985596,-2.5918729305267334
1761400711932649200,12.851649169921876,2.5371055603027344,-2.8010663986206055,-2.6862943172454834
1761400711942729500,12.8617294921875,2.212691307067871,-2.342202663421631,-2.9082069396972656
1761400711952785400,12.871785400390625,1.454327940940857,-2.9325978755950928,-3.2218472957611084
1761400711962863900,12.88186376953125,1.6014964580535889,-3.433734178543091,-2.730886220932007
1761400711972969700,12.8919697265625,1.5164275169372559,-3.7207391262054443,-1.6811037063598633
1761400711983053300,12.90205322265625,0.6905027627944946,-3.9153428077697754,-1.3667899370193481
1761400711993122800,12.912122802734375,-0.0347159244120121,-4.083311080932617,-1.4386907815933228
1761400712003190300,12.922190185546874,-0.0014215572737157345,-4.303951740264893,-1.2474539279937744
1761400712013292800,12.932292724609376,0.8138041496276855,-5.621510982513428,-0.9998036623001099
1761400712023364900,12.94236474609375,3.0214078426361084,-9.560870170593262,-1.910872220993042
1761400712033458400,12.95245849609375,3.348515510559082,-13.742118835449219,-4.821174144744873
1761400712043538700,12.96253857421875,2.3954737186431885,-12.45590877532959,-2.9156887531280518
1761400712053618000,12.972617919921875,2.962749719619751,-10.615141868591309,0.2932897210121155
1761400712063701200,12.982701171875,2.7090392112731934,-8.920721054077148,0.9152584075927734
1761400712073782000,12.992781982421874,2.4001123905181885,-9.253889083862305,-1.291372537612915
1761400712083868200,13.0028681640625,2.0964977741241455,-9.679607391357422,-4.382212162017822
1761400712093943600,13.012943603515625,1.738115668296814,-10.469843864440918,-6.907496452331543
1761400712104024800,13.02302490234375,2.1394436359405518,-10.955492973327637,-8.455272674560547
