time,seconds_elapsed,z,y,x
1761315430625257500,0.247257568359375,2.366501569747925,-8.82951545715332,-3.972085475921631
1761315430644179500,0.266179443359375,2.407179594039917,-8.848658561706543,-3.950550079345703
1761315430663101400,0.285101318359375,2.3808584213256836,-8.839086532592773,-3.94097900390625
1761315430682023400,0.3040234375,2.366501569747925,-8.82951545715332,-3.94815731048584
1761315430700945400,0.3229453125,2.3736801147460938,-8.851051330566406,-3.955335855484009
1761315430719867400,0.341867431640625,2.3641088008880615,-8.8438720703125,-3.9601213932037354
1761315430738789400,0.360789306640625,2.3497519493103027,-8.83669376373291,-3.9744784832000732
1761315430757711400,0.37971142578125,2.352144718170166,-8.85344409942627,-3.9696927070617676
1761315430776633300,0.39863330078125,2.3545374870300293,-8.846264839172363,-3.9744784832000732
1761315430795555300,0.417555419921875,2.400001049041748,-8.846264839172363,-3.9744784832000732
1761315430814477300,0.436477294921875,2.3712873458862305,-8.83669376373291,-3.981656789779663
1761315430833399300,0.4553994140625,2.3641088008880615,-8.85344409942627,-3.9696927070617676
1761315430852321300,0.4743212890625,2.3856441974639893,-8.870193481445312,-3.972085475921631
1761315430871243300,0.4932431640625,2.3736801147460938,-8.889336585998535,-3.9385859966278076
1761315430890165200,0.512165283203125,2.359323024749756,-8.863015174865723,-3.964907169342041
1761315430909087200,0.531087158203125,2.3712873458862305,-8.865407943725586,-3.964907169342041
1761315430928009200,0.55000927734375,2.3712873458862305,-8.889336585998535,-3.9146578311920166
1761315430946931200,0.56893115234375,2.359323024749756,-8.86780071258545,-3.9050865173339844
1761315430965853200,0.587853271484375,2.3497519493103027,-8.874979019165039,-3.9385859966278076
1761315430984775200,0.606775146484375,2.3545374870300293,-8.851051330566406,-3.924229145050049
1761315431003697200,0.625697265625,2.3784656524658203,-8.872586250305176,-3.924229145050049
1761315431022619100,0.644619140625,2.359323024749756,-8.879764556884766,-3.94097900390625
1761315431041541000,0.663541015625,2.3736801147460938,-8.874979019165039,-3.9696927070617676
1761315431060463000,0.682463134765625,2.3497519493103027,-8.851051330566406,-4.0079779624938965
1761315431079385000,0.701385009765625,2.3306093215942383,-8.85344409942627,-3.981656789779663
1761315431098307000,0.72030712890625,2.366501569747925,-8.819944381713867,-3.9625144004821777
1761315431117229000,0.73922900390625,2.368894338607788,-8.851051330566406,-3.9457645416259766
1761315431136151000,0.758151123046875,2.359323024749756,-8.839086532592773,-3.9696927070617676
1761315431155073000,0.777072998046875,2.3712873458862305,-8.831908226013184,-3.9744784832000732
1761315431173995000,0.7959951171875,2.3617160320281982,-8.83669376373291,-3.9601213932037354
1761315431192917000,0.8149169921875,2.3545374870300293,-8.879764556884766,-3.9601213932037354
1761315431211839000,0.8338388671875,2.368894338607788,-8.877371788024902,-3.94097900390625
1761315431230760700,0.8527607421875,2.344966173171997,-8.896514892578125,-3.9529430866241455
1761315431249682700,0.8716826171875,2.335394859313965,-8.846264839172363,-3.94815731048584
1761315431268604700,0.890604736328125,2.3569302558898926,-8.83669376373291,-3.94097900390625
1761315431287526700,0.909526611328125,2.3712873458862305,-8.839086532592773,-3.9696927070617676
1761315431306448600,0.92844873046875,2.3784656524658203,-8.8438720703125,-3.9936211109161377
1761315431325370600,0.94737060546875,2.390429735183716,-8.846264839172363,-3.9625144004821777
1761315431344292600,0.966292724609375,2.392822742462158,-8.85344409942627,-3.9529430866241455
1761315431363214600,0.985214599609375,2.3856441974639893,-8.855836868286133,-3.9625144004821777
1761315431382136600,1.004136474609375,2.3736801147460938,-8.80798053741455,-4.012763500213623
1761315431401058600,1.02305859375,2.383251428604126,-8.858229637145996,-4.005585193634033
1761315431419980500,1.04198046875,2.4047868251800537,-8.898907661437988,-3.9194436073303223
1761315431438902500,1.060902587890625,2.4095723628997803,-8.872586250305176,-3.902693748474121
1761315431457824500,1.079824462890625,2.4095723628997803,-8.85344409942627,-3.972085475921631
1761315431476746500,1.09874658203125,2.3736801147460938,-8.810373306274414,-3.9864425659179688
1761315431495668500,1.11766845703125,2.383251428604126,-8.82233715057373,-3.9792640209198
1761315431514590500,1.136590576171875,2.423929452896118,-8.834300994873047,-3.9625144004821777
1761315431533512400,1.155512451171875,2.421536445617676,-8.86780071258545,-3.9672999382019043
1761315431552434400,1.174434326171875,2.4119651317596436,-8.83669376373291,-3.981656789779663
1761315431571356400,1.1933564453125,2.3808584213256836,-8.786444664001465,-4.027120590209961
1761315431590278400,1.2122783203125,2.421536445617676,-8.793622970581055,-4.005585193634033
1761315431609200400,1.231200439453125,2.400001049041748,-8.784051895141602,-4.01037073135376
1761315431628122400,1.250122314453125,2.421536445617676,-8.819944381713867,-3.9672999382019043
1761315431647044400,1.26904443359375,2.4263222217559814,-8.827122688293457,-3.9433717727661133
1761315431665966300,1.28796630859375,2.4287149906158447,-8.82951545715332,-3.9529430866241455
1761315431684888300,1.306888427734375,2.431107759475708,-8.882157325744629,-3.9385859966278076
1761315431703810300,1.325810302734375,2.416750907897949,-8.83669376373291,-3.9529430866241455
1761315431722732300,1.344732177734375,2.4263222217559814,-8.863015174865723,-3.9744784832000732
1761315431741654300,1.363654296875,2.421536445617676,-8.877371788024902,-3.955335855484009
1761315431760576300,1.382576171875,2.4047868251800537,-8.851051330566406,-3.9529430866241455
1761315431779498200,1.401498291015625,2.431107759475708,-8.863015174865723,-3.9672999382019043
1761315431798420200,1.420420166015625,2.4263222217559814,-8.82951545715332,-3.9529430866241455
1761315431817342200,1.43934228515625,2.4119651317596436,-8.82951545715332,-3.9696927070617676
1761315431836264200,1.45826416015625,2.3976082801818848,-8.834300994873047,-3.955335855484009
1761315431855186200,1.477186279296875,2.4191436767578125,-8.827122688293457,-3.9864425659179688
1761315431874108200,1.496108154296875,2.3808584213256836,-8.791230201721191,-4.058227062225342
1761315431893030100,1.515030029296875,2.4095723628997803,-8.827122688293457,-4.022335052490234
1761315431911952100,1.5339521484375,2.4119651317596436,-8.870193481445312,-3.9936211109161377
1761315431930874000,1.5528740234375,2.4095723628997803,-8.827122688293457,-4.01037073135376
1761315431949796000,1.571796142578125,2.4287149906158447,-8.738588333129883,-4.067798614501953
1761315431968718000,1.590718017578125,2.407179594039917,-8.781659126281738,-4.053441524505615
1761315431987640000,1.60964013671875,2.455035924911499,-8.81515884399414,-3.996013879776001
1761315432006562000,1.62856201171875,2.4574289321899414,-8.846264839172363,-3.9625144004821777
1761315432025483800,1.64748388671875,2.4263222217559814,-8.86780071258545,-3.933800458908081
1761315432044405800,1.66640576171875,2.4047868251800537,-8.865407943725586,-3.9433717727661133
1761315432063327700,1.68532763671875,2.3880369663238525,-8.86062240600586,-3.9433717727661133
1761315432082249700,1.704249755859375,2.4335005283355713,-8.848658561706543,-3.8907296657562256
1761315432101171700,1.723171630859375,2.4023938179016113,-8.846264839172363,-3.9146578311920166
1761315432120093700,1.74209375,2.423929452896118,-8.824729919433594,-3.9840497970581055
1761315432139015700,1.761015625,2.4119651317596436,-8.82233715057373,-4.00319242477417
1761315432157937700,1.779937744140625,2.3952155113220215,-8.827122688293457,-4.024727821350098
1761315432176859600,1.798859619140625,2.423929452896118,-8.810373306274414,-4.027120590209961
1761315432195781600,1.81778173828125,2.423929452896118,-8.82233715057373,-4.0319061279296875
1761315432214703600,1.83670361328125,2.4191436767578125,-8.824729919433594,-4.024727821350098
1761315432233625600,1.85562548828125,2.438286304473877,-8.81515884399414,-4.024727821350098
1761315432252547600,1.874547607421875,2.4358935356140137,-8.819944381713867,-3.988835334777832
1761315432271469600,1.893469482421875,2.4287149906158447,-8.788837432861328,-4.0079779624938965
1761315432290391600,1.9123916015625,2.423929452896118,-8.798408508300781,-4.01037073135376
1761315432309313500,1.9313134765625,2.407179594039917,-8.810373306274414,-4.022335052490234
1761315432328235500,1.950235595703125,2.4263222217559814,-8.82951545715332,-3.9984066486358643
1761315432347157500,1.969157470703125,2.431107759475708,-8.841479301452637,-3.9601213932037354
1761315432366079500,1.98807958984375,2.4119651317596436,-8.858229637145996,-3.9912281036376953
1761315432385001500,2.00700146484375,2.416750907897949,-8.841479301452637,-4.0319061279296875
1761315432403923500,2.02592333984375,2.4119651317596436,-8.848658561706543,-3.9864425659179688
1761315432422845400,2.044845458984375,2.438286304473877,-8.819944381713867,-3.950550079345703
1761315432441767400,2.063767333984375,2.4430718421936035,-8.788837432861328,-3.9696927070617676
1761315432460689400,2.082689453125,2.4095723628997803,-8.757730484008789,-4.053441524505615
1761315432479611400,2.101611328125,2.383251428604126,-8.738588333129883,-4.077369689941406
1761315432498533400,2.120533447265625,2.416750907897949,-8.786444664001465,-4.034298896789551
1761315432517455400,2.139455322265625,2.423929452896118,-8.819944381713867,-3.9984066486358643
1761315432536377300,2.15837744140625,2.414358139038086,-8.831908226013184,-3.9672999382019043
1761315432555299300,2.17729931640625,2.4119651317596436,-8.83669376373291,-3.9984066486358643
1761315432574221300,2.19622119140625,2.4047868251800537,-8.8438720703125,-4.000799655914307
1761315432593143300,2.215143310546875,2.407179594039917,-8.874979019165039,-3.964907169342041
1761315432612065300,2.234065185546875,2.414358139038086,-8.824729919433594,-3.957728624343872
1761315432630987300,2.2529873046875,2.368894338607788,-8.848658561706543,-3.957728624343872
1761315432649909200,2.2719091796875,2.3712873458862305,-8.839086532592773,-3.950550079345703
1761315432668831200,2.290831298828125,2.359323024749756,-8.81515884399414,-3.957728624343872
1761315432687753200,2.309753173828125,2.342573404312134,-8.81515884399414,-3.9840497970581055
1761315432706675200,2.32867529296875,2.3330020904541016,-8.812766075134277,-4.0079779624938965
1761315432725597200,2.34759716796875,2.3401806354522705,-8.793622970581055,-4.046263217926025
1761315432744519200,2.366519287109375,2.400001049041748,-8.788837432861328,-3.9912281036376953
1761315432763441200,2.385441162109375,2.4335005283355713,-8.805587768554688,-4.01037073135376
1761315432782363100,2.404363037109375,2.447857618331909,-8.779266357421875,-4.051048755645752
1761315432801285000,2.42328515625,2.4646072387695312,-8.72901725769043,-4.084548473358154
1761315432820206800,2.442206787109375,2.4574289321899414,-8.755337715148926,-4.108476638793945
1761315432839128800,2.46112890625,2.4813570976257324,-8.83669376373291,-4.024727821350098
1761315432858050800,2.48005078125,2.5459632873535156,-8.872586250305176,-3.955335855484009
1761315432876972800,2.498972900390625,2.524427890777588,-8.865407943725586,-3.9768712520599365
1761315432895894800,2.517894775390625,2.4837498664855957,-8.800801277160645,-4.058227062225342
1761315432914816800,2.536816650390625,2.4885356426239014,-8.760123252868652,-4.084548473358154
1761315432933738800,2.55573876953125,2.517249345779419,-8.707481384277344,-4.0319061279296875
1761315432952660700,2.57466064453125,2.562713146209717,-8.6907320022583,-4.043870449066162
1761315432971582700,2.593582763671875,2.550748825073242,-8.72901725769043,-4.0797624588012695
1761315432990504700,2.612504638671875,2.557927370071411,-8.755337715148926,-4.089334011077881
1761315433009426700,2.6314267578125,2.517249345779419,-8.7505521774292,-4.0797624588012695
1761315433028348700,2.6503486328125,2.500499725341797,-8.803194046020508,-4.0797624588012695
1761315433047270700,2.669270751953125,2.455035924911499,-8.877371788024902,-4.06540584564209
1761315433066192600,2.688192626953125,2.400001049041748,-8.891729354858398,-3.9840497970581055
1761315433085114600,2.707114501953125,2.3497519493103027,-8.913264274597168,-3.9146578311920166
1761315433104036600,2.72603662109375,2.3401806354522705,-8.93240737915039,-3.8333017826080322
1761315433122958600,2.74495849609375,2.297109842300415,-8.886942863464355,-3.869194269180298
1761315433141880600,2.763880615234375,2.225325107574463,-8.865407943725586,-3.9433717727661133
1761315433160802600,2.782802490234375,2.2229323387145996,-8.831908226013184,-3.981656789779663
1761315433179724500,2.801724609375,2.273181438446045,-8.819944381713867,-3.9864425659179688
1761315433198646500,2.820646484375,2.3306093215942383,-8.791230201721191,-4.015156269073486
1761315433217568500,2.839568603515625,2.3186452388763428,-8.779266357421875,-4.096512317657471
1761315433236490500,2.858490478515625,2.3736801147460938,-8.769695281982422,-4.1347975730896
1761315433255412500,2.87741259765625,2.390429735183716,-8.784051895141602,-4.101297855377197
1761315433274334500,2.89633447265625,2.4119651317596436,-8.781659126281738,-4.108476638793945
1761315433293256400,2.91525634765625,2.423929452896118,-8.83669376373291,-4.074976921081543
1761315433312178400,2.934178466796875,2.421536445617676,-8.851051330566406,-4.082155227661133
1761315433331100400,2.953100341796875,2.4095723628997803,-8.82951545715332,-4.034298896789551
1761315433350022400,2.9720224609375,2.390429735183716,-8.786444664001465,-4.01754903793335
1761315433368944400,2.9909443359375,2.400001049041748,-8.784051895141602,-4.00319242477417
1761315433387866400,3.009866455078125,2.4095723628997803,-8.793622970581055,-4.070191383361816
1761315433406788400,3.028788330078125,2.416750907897949,-8.798408508300781,-4.036691665649414
1761315433425710300,3.04771044921875,2.392822742462158,-8.824729919433594,-3.9984066486358643
1761315433444632300,3.06663232421875,2.421536445617676,-8.886942863464355,-3.957728624343872
1761315433463554300,3.08555419921875,2.4526431560516357,-8.86780071258545,-3.8835511207580566
1761315433482476300,3.104476318359375,2.4430718421936035,-8.886942863464355,-3.9146578311920166
1761315433501398300,3.123398193359375,2.431107759475708,-8.903693199157715,-3.895515203475952
1761315433520320300,3.1423203125,2.447857618331909,-8.882157325744629,-3.869194269180298
1761315433539242000,3.161241943359375,2.4335005283355713,-8.865407943725586,-3.8907296657562256
1761315433558164000,3.1801640625,2.4023938179016113,-8.879764556884766,-3.90987229347229
1761315433577086000,3.1990859375,2.3784656524658203,-8.915657043457031,-3.9146578311920166
1761315433596008000,3.218008056640625,2.3545374870300293,-8.886942863464355,-3.900300979614258
1761315433614930000,3.236929931640625,2.3545374870300293,-8.877371788024902,-3.871587038040161
1761315433633852000,3.255851806640625,2.390429735183716,-8.86780071258545,-3.8883368968963623
1761315433652774000,3.27477392578125,2.4095723628997803,-8.870193481445312,-3.9122650623321533
1761315433671696000,3.29369580078125,2.342573404312134,-8.865407943725586,-3.9433717727661133
1761315433690617900,3.312617919921875,2.311466693878174,-8.812766075134277,-3.9672999382019043
1761315433709539800,3.331539794921875,2.2851455211639404,-8.834300994873047,-4.012763500213623
1761315433728461800,3.3504619140625,2.282752752304077,-8.824729919433594,-3.981656789779663
1761315433747383800,3.3693837890625,2.2779672145843506,-8.922835350036621,-3.91705060005188
1761315433766305800,3.388305908203125,2.2923240661621094,-8.96112060546875,-3.85483717918396
1761315433785227800,3.407227783203125,2.2923240661621094,-8.941978454589844,-3.814159393310547
1761315433804149800,3.426149658203125,2.256431818008423,-8.908478736877441,-3.838087558746338
1761315433823071700,3.44507177734375,2.2636101245880127,-8.882157325744629,-3.869194269180298
1761315433841993700,3.46399365234375,2.2995026111602783,-8.901300430297852,-3.8572301864624023
1761315433860915700,3.482915771484375,2.3090739250183105,-8.927620887756348,-3.7974095344543457
1761315433879837700,3.501837646484375,2.359323024749756,-8.95394229888916,-3.7639100551605225
1761315433898759700,3.520759765625,2.3784656524658203,-8.920442581176758,-3.7902309894561768
1761315433917681700,3.539681640625,2.3569302558898926,-8.915657043457031,-3.8907296657562256
1761315433936603600,3.558603759765625,2.321038007736206,-8.882157325744629,-3.94815731048584
1761315433955525600,3.577525634765625,2.289931297302246,-8.874979019165039,-3.981656789779663
1761315433974447600,3.596447509765625,2.352144718170166,-8.882157325744629,-3.9385859966278076
1761315433993369600,3.61536962890625,2.3808584213256836,-8.874979019165039,-3.895515203475952
1761315434012291600,3.63429150390625,2.3736801147460938,-8.886942863464355,-3.8979079723358154
1761315434031213600,3.653213623046875,2.337787628173828,-8.906085968017578,-3.88594388961792
1761315434050135600,3.672135498046875,2.342573404312134,-8.927620887756348,-3.8668015003204346
1761315434069057500,3.6910576171875,2.344966173171997,-8.925228118896484,-3.85483717918396
1761315434087979500,3.7099794921875,2.3090739250183105,-8.937192916870117,-3.8883368968963623
1761315434106901500,3.728901611328125,2.2755744457244873,-8.922835350036621,-3.8763725757598877
1761315434125823500,3.747823486328125,2.2612173557281494,-8.894122123718262,-3.84765887260437
1761315434144745500,3.766745361328125,2.249253273010254,-8.874979019165039,-3.82373046875
1761315434163667500,3.78566748046875,2.2636101245880127,-8.86062240600586,-3.8739798069000244
1761315434182589400,3.80458935546875,2.266003131866455,-8.874979019165039,-3.9074792861938477
1761315434201511400,3.823511474609375,2.249253273010254,-8.882157325744629,-3.9050865173339844
1761315434220433200,3.84243310546875,2.2923240661621094,-8.896514892578125,-3.91705060005188
1761315434239355100,3.861355224609375,2.2923240661621094,-8.956335067749023,-3.895515203475952
1761315434258277000,3.880277099609375,2.287538528442383,-8.96112060546875,-3.8428730964660645
1761315434277199000,3.89919921875,2.297109842300415,-8.999405860900879,-3.81655216217041
1761315434296121000,3.91812109375,2.282752752304077,-8.96829891204834,-3.838087558746338
1761315434315043000,3.93704296875,2.2612173557281494,-8.937192916870117,-3.8907296657562256
1761315434333965000,3.955965087890625,2.2396819591522217,-8.908478736877441,-3.9074792861938477
1761315434352887000,3.974886962890625,2.242074728012085,-8.894122123718262,-3.87876558303833
1761315434371809000,3.99380908203125,2.282752752304077,-8.920442581176758,-3.88594388961792
1761315434390731000,4.01273095703125,2.282752752304077,-8.922835350036621,-3.845266103744507
1761315434409653000,4.031653076171875,2.2755744457244873,-8.906085968017578,-3.799802303314209
1761315434428575000,4.050574951171875,2.2683959007263184,-8.913264274597168,-3.814159393310547
1761315434447497000,4.0694970703125,2.251646041870117,-8.958727836608887,-3.7734813690185547
1761315434466419000,4.0884189453125,2.249253273010254,-9.004191398620605,-3.735196113586426
1761315434485341000,4.1073408203125,2.242074728012085,-8.982656478881836,-3.7471601963043213
1761315434504263000,4.126262939453125,2.289931297302246,-8.965906143188477,-3.761517286300659
1761315434523185000,4.145184814453125,2.2755744457244873,-8.898907661437988,-3.806980848312378
1761315434542107000,4.16410693359375,2.258824586868286,-8.874979019165039,-3.85483717918396
1761315434561028900,4.18302880859375,2.251646041870117,-8.877371788024902,-3.8524444103240967
1761315434579950800,4.201950927734375,2.234896421432495,-8.922835350036621,-3.8596229553222656
1761315434598872800,4.220872802734375,2.2444677352905273,-8.970691680908203,-3.845266103744507
1761315434617794800,4.239794921875,2.2636101245880127,-8.999405860900879,-3.809373617172241
1761315434636716800,4.258716796875,2.218146562576294,-8.9850492477417,-3.8045880794525146
1761315434655638800,4.277638671875,2.2133610248565674,-9.006584167480469,-3.730410575866699
1761315434674560800,4.296560791015625,2.2205393314361572,-8.997013092041016,-3.6921253204345703
1761315434693482800,4.315482666015625,2.2133610248565674,-9.020941734313965,-3.665804386138916
1761315434712404700,4.33440478515625,2.2133610248565674,-9.040083885192871,-3.656233072280884
1761315434731326700,4.35332666015625,2.218146562576294,-9.059226989746094,-3.6610186100006104
1761315434750248700,4.372248779296875,2.2301106452941895,-9.061619758605957,-3.6538400650024414
1761315434769170700,4.391170654296875,2.196611166000366,-9.028120040893555,-3.7112679481506348
1761315434788092700,4.4100927734375,2.179861545562744,-9.011369705200195,-3.7710886001586914
1761315434807014400,4.429014404296875,2.1415762901306152,-8.992227554321289,-3.7567315101623535
1761315434825936400,4.447936279296875,2.1655044555664062,-8.982656478881836,-3.737588882446289
1761315434844858400,4.4668583984375,2.194218397140503,-9.025727272033691,-3.7232320308685303
1761315434863780400,4.4857802734375,2.203789710998535,-9.004191398620605,-3.7399818897247314
1761315434882702300,4.504702392578125,2.1846470832824707,-8.989834785461426,-3.7806596755981445
1761315434901624300,4.523624267578125,2.1750757694244385,-8.992227554321289,-3.7806596755981445
1761315434920546300,4.54254638671875,2.170290231704712,-8.9850492477417,-3.799802303314209
1761315434939468300,4.56146826171875,2.1535403728485107,-8.982656478881836,-3.799802303314209
1761315434958390300,4.580390380859375,2.1367905139923096,-8.980263710021973,-3.7902309894561768
1761315434977312300,4.599312255859375,2.1415762901306152,-8.992227554321289,-3.7543387413024902
1761315434996234200,4.618234130859375,2.1655044555664062,-8.994620323181152,-3.730410575866699
1761315435015156200,4.63715625,2.196611166000366,-8.980263710021973,-3.735196113586426
1761315435034078200,4.656078125,2.218146562576294,-8.96112060546875,-3.7806596755981445
1761315435053000200,4.675000244140625,2.201396942138672,-8.989834785461426,-3.7878382205963135
1761315435071922200,4.693922119140625,2.2157537937164307,-9.011369705200195,-3.730410575866699
1761315435090844200,4.71284423828125,2.2205393314361572,-9.037691116333008,-3.7016966342926025
1761315435109766100,4.73176611328125,2.2301106452941895,-9.028120040893555,-3.7112679481506348
1761315435128688000,4.750688232421875,2.2061824798583984,-9.016156196594238,-3.735196113586426
1761315435147610000,4.769610107421875,2.201396942138672,-9.018548965454102,-3.728017568588257
1761315435166532000,4.788531982421875,2.1990039348602295,-9.013762474060059,-3.7016966342926025
1761315435185454000,4.8074541015625,2.1990039348602295,-8.992227554321289,-3.7184464931488037
1761315435204376000,4.8263759765625,2.1750757694244385,-8.994620323181152,-3.7710886001586914
1761315435223298000,4.845298095703125,2.194218397140503,-8.9850492477417,-3.806980848312378
1761315435242220000,4.864219970703125,2.172683000564575,-8.941978454589844,-3.7902309894561768
1761315435261142000,4.88314208984375,2.163111686706543,-8.94676399230957,-3.761517286300659
1761315435280064000,4.90206396484375,2.1894326210021973,-8.951549530029297,-3.7878382205963135
1761315435298986000,4.920986083984375,2.1439690589904785,-8.9850492477417,-3.7950167655944824
1761315435317908000,4.939907958984375,2.1511476039886475,-9.011369705200195,-3.737588882446289
1761315435336830000,4.958829833984375,2.155933141708374,-9.05444049835205,-3.680161237716675
1761315435355752000,4.977751953125,2.1511476039886475,-9.073583602905273,-3.6538400650024414
1761315435374674000,4.996673828125,2.1607189178466797,-9.07119083404541,-3.6323046684265137
1761315435393596000,5.015595947265625,2.1367905139923096,-9.059226989746094,-3.651447296142578
1761315435412518000,5.034517822265625,2.132004976272583,-9.059226989746094,-3.656233072280884
1761315435431440000,5.05343994140625,2.1296122074127197,-9.059226989746094,-3.627519130706787
1761315435450361900,5.07236181640625,2.1511476039886475,-9.035298347473145,-3.651447296142578
1761315435469283800,5.091283935546875,2.1535403728485107,-9.037691116333008,-3.6873397827148438
1761315435488205800,5.110205810546875,2.1511476039886475,-9.004191398620605,-3.6945180892944336
1761315435507127800,5.1291279296875,2.1918256282806396,-9.006584167480469,-3.6681971549987793
1761315435526049800,5.1480498046875,2.2157537937164307,-8.9850492477417,-3.6945180892944336
1761315435544971800,5.1669716796875,2.234896421432495,-8.973084449768066,-3.7471601963043213
1761315435563893800,5.185893798828125,2.2133610248565674,-8.997013092041016,-3.759124279022217
1761315435582815700,5.204815673828125,2.227717876434326,-9.020941734313965,-3.735196113586426
1761315435601737700,5.22373779296875,2.2205393314361572,-9.030512809753418,-3.6945180892944336
1761315435620659500,5.242659423828125,2.2468605041503906,-9.042476654052734,-3.704089403152466
1761315435639581400,5.26158154296875,2.2085752487182617,-9.025727272033691,-3.720839262008667
1761315435658503400,5.28050341796875,2.1822543144226074,-9.006584167480469,-3.735196113586426
1761315435677425400,5.29942529296875,2.1678972244262695,-8.997013092041016,-3.6921253204345703
1761315435696347400,5.318347412109375,2.1822543144226074,-9.013762474060059,-3.682554006576538
1761315435715269400,5.337269287109375,2.187039852142334,-9.013762474060059,-3.706482172012329
1761315435734191400,5.35619140625,2.163111686706543,-9.037691116333008,-3.6921253204345703
1761315435753113300,5.37511328125,2.1918256282806396,-9.011369705200195,-3.706482172012329
1761315435772035300,5.394035400390625,2.187039852142334,-9.013762474060059,-3.730410575866699
1761315435790957300,5.412957275390625,2.203789710998535,-8.987442016601562,-3.7806596755981445
1761315435809879300,5.43187939453125,2.1846470832824707,-8.970691680908203,-3.7878382205963135
1761315435828801300,5.45080126953125,2.210968017578125,-8.982656478881836,-3.799802303314209
1761315435847723300,5.46972314453125,2.203789710998535,-8.970691680908203,-3.806980848312378
1761315435866645200,5.488645263671875,2.227717876434326,-8.963513374328613,-3.8021950721740723
1761315435885567200,5.507567138671875,2.2372891902923584,-8.95394229888916,-3.7950167655944824
1761315435904489200,5.5264892578125,2.2444677352905273,-8.918049812316895,-3.78544545173645
1761315435923411200,5.5454111328125,2.2229323387145996,-8.963513374328613,-3.806980848312378
1761315435942333200,5.564333251953125,2.1894326210021973,-8.97787094116211,-3.775874137878418
1761315435961255200,5.583255126953125,2.1822543144226074,-8.994620323181152,-3.768695592880249
1761315435980177200,5.60217724609375,2.1750757694244385,-9.020941734313965,-3.759124279022217
1761315435999099100,5.62109912109375,2.1607189178466797,-8.9850492477417,-3.7782669067382812
1761315436018021000,5.640021240234375,2.1655044555664062,-8.997013092041016,-3.7328033447265625
1761315436036943000,5.658943115234375,2.170290231704712,-8.958727836608887,-3.728017568588257
1761315436055865000,5.677864990234375,2.1750757694244385,-8.951549530029297,-3.7710886001586914
1761315436074787000,5.696787109375,2.194218397140503,-8.956335067749023,-3.792623996734619
1761315436093709000,5.715708984375,2.1846470832824707,-8.970691680908203,-3.792623996734619
1761315436112631000,5.734631103515625,2.210968017578125,-9.004191398620605,-3.768695592880249
1761315436131553000,5.753552978515625,2.196611166000366,-9.016156196594238,-3.7543387413024902
1761315436150475000,5.77247509765625,2.218146562576294,-9.011369705200195,-3.7423746585845947
1761315436169397000,5.79139697265625,2.2133610248565674,-9.004191398620605,-3.751945972442627
1761315436188319000,5.810319091796875,2.201396942138672,-9.020941734313965,-3.720839262008667
1761315436207241000,5.829240966796875,2.2133610248565674,-9.020941734313965,-3.706482172012329
1761315436226163000,5.848162841796875,2.210968017578125,-9.016156196594238,-3.7112679481506348
1761315436245085000,5.8670849609375,2.2085752487182617,-9.004191398620605,-3.7016966342926025
1761315436264007000,5.8860068359375,2.218146562576294,-8.970691680908203,-3.7184464931488037
1761315436282929000,5.904928955078125,2.225325107574463,-8.949156761169434,-3.761517286300659
1761315436301851000,5.923850830078125,2.256431818008423,-8.96829891204834,-3.768695592880249
1761315436320772900,5.94277294921875,2.258824586868286,-8.96829891204834,-3.7806596755981445
1761315436339694800,5.96169482421875,2.251646041870117,-9.016156196594238,-3.7782669067382812
1761315436358616800,5.980616943359375,2.2396819591522217,-9.008976936340332,-3.7495529651641846
1761315436377538800,5.999538818359375,2.258824586868286,-8.997013092041016,-3.751945972442627
1761315436396460800,6.018460693359375,2.258824586868286,-8.987442016601562,-3.7734813690185547
1761315436415382500,6.037382568359375,2.2468605041503906,-8.949156761169434,-3.7782669067382812
1761315436434304500,6.056304443359375,2.227717876434326,-8.941978454589844,-3.8045880794525146
1761315436453226500,6.0752265625,2.1918256282806396,-8.96112060546875,-3.8189449310302734
1761315436472148500,6.0941484375,2.187039852142334,-8.93240737915039,-3.806980848312378
1761315436491070500,6.113070556640625,2.170290231704712,-8.963513374328613,-3.792623996734619
1761315436509992400,6.131992431640625,2.225325107574463,-9.001798629760742,-3.7639100551605225
1761315436528914400,6.15091455078125,2.2085752487182617,-9.001798629760742,-3.7543387413024902
1761315436547836400,6.16983642578125,2.2157537937164307,-8.994620323181152,-3.7567315101623535
1761315436566758400,6.18875830078125,2.2085752487182617,-8.970691680908203,-3.7878382205963135
1761315436585680400,6.207680419921875,2.225325107574463,-8.925228118896484,-3.7950167655944824
1761315436604602400,6.226602294921875,2.2396819591522217,-8.944371223449707,-3.783052682876587
1761315436623524400,6.2455244140625,2.2755744457244873,-8.95394229888916,-3.7902309894561768
1761315436642446300,6.2644462890625,2.2923240661621094,-8.982656478881836,-3.7710886001586914
1761315436661368300,6.283368408203125,2.2612173557281494,-8.989834785461426,-3.775874137878418
1761315436680290300,6.302290283203125,2.266003131866455,-8.994620323181152,-3.7663028240203857
1761315436699212300,6.32121240234375,2.251646041870117,-9.004191398620605,-3.7639100551605225
1761315436718134300,6.34013427734375,2.249253273010254,-8.970691680908203,-3.735196113586426
1761315436737056300,6.35905615234375,2.2468605041503906,-8.96829891204834,-3.7423746585845947
1761315436755978200,6.377978271484375,2.2229323387145996,-8.96112060546875,-3.7567315101623535
1761315436774900200,6.396900146484375,2.2205393314361572,-8.956335067749023,-3.7710886001586914
1761315436793822200,6.415822265625,2.2085752487182617,-8.982656478881836,-3.7567315101623535
1761315436812744200,6.434744140625,2.227717876434326,-8.97787094116211,-3.7256247997283936
1761315436831666200,6.453666259765625,2.2540390491485596,-8.980263710021973,-3.768695592880249
1761315436850588200,6.472588134765625,2.225325107574463,-8.975478172302246,-3.7950167655944824
1761315436869510100,6.49151025390625,2.2301106452941895,-8.958727836608887,-3.7734813690185547
1761315436888432000,6.51043212890625,2.2540390491485596,-8.9850492477417,-3.7782669067382812
1761315436907354000,6.52935400390625,2.2540390491485596,-8.980263710021973,-3.7543387413024902
1761315436926276000,6.548276123046875,2.2683959007263184,-8.980263710021973,-3.7471601963043213
1761315436945198000,6.567197998046875,2.2779672145843506,-8.975478172302246,-3.759124279022217
1761315436964120000,6.5861201171875,2.273181438446045,-8.963513374328613,-3.799802303314209
1761315436983042000,6.6050419921875,2.2636101245880127,-8.956335067749023,-3.7950167655944824
1761315437001964000,6.623964111328125,2.2636101245880127,-8.96829891204834,-3.7806596755981445
1761315437020886000,6.642885986328125,2.2636101245880127,-8.989834785461426,-3.744767427444458
1761315437039808000,6.66180810546875,2.2707886695861816,-8.973084449768066,-3.7782669067382812
1761315437058730000,6.68072998046875,2.2468605041503906,-8.980263710021973,-3.8213376998901367
1761315437077652000,6.69965185546875,2.2396819591522217,-8.95394229888916,-3.7950167655944824
1761315437096574000,6.718573974609375,2.2612173557281494,-8.941978454589844,-3.761517286300659
1761315437115496000,6.737495849609375,2.287538528442383,-8.956335067749023,-3.7902309894561768
1761315437134418000,6.75641796875,2.2683959007263184,-8.930013656616211,-3.8524444103240967
1761315437153340000,6.77533984375,2.2755744457244873,-8.93958568572998,-3.8356947898864746
1761315437172262000,6.794261962890625,2.2468605041503906,-8.922835350036621,-3.809373617172241
1761315437191184000,6.813183837890625,2.2468605041503906,-8.999405860900879,-3.840480327606201
1761315437210105900,6.83210595703125,2.2229323387145996,-8.96829891204834,-3.7878382205963135
1761315437229027800,6.85102783203125,2.242074728012085,-8.982656478881836,-3.783052682876587
1761315437247949800,6.86994970703125,2.234896421432495,-8.992227554321289,-3.768695592880249
1761315437266871800,6.888871826171875,2.249253273010254,-9.004191398620605,-3.7328033447265625
1761315437285793800,6.907793701171875,2.225325107574463,-8.97787094116211,-3.761517286300659
1761315437304715800,6.9267158203125,2.2133610248565674,-8.949156761169434,-3.799802303314209
1761315437323637800,6.9456376953125,2.2205393314361572,-8.965906143188477,-3.8021950721740723
1761315437342559700,6.964559814453125,2.227717876434326,-8.96112060546875,-3.7902309894561768
1761315437361481700,6.983481689453125,2.2612173557281494,-8.951549530029297,-3.806980848312378
1761315437380403700,7.00240380859375,2.242074728012085,-8.93958568572998,-3.8213376998901367
1761315437399325700,7.02132568359375,2.2468605041503906,-8.956335067749023,-3.8428730964660645
1761315437418247400,7.040247314453125,2.256431818008423,-8.949156761169434,-3.809373617172241
1761315437437169400,7.05916943359375,2.282752752304077,-8.951549530029297,-3.7974095344543457
1761315437456091400,7.07809130859375,2.2995026111602783,-8.970691680908203,-3.7950167655944824
1761315437475013400,7.097013427734375,2.304288148880005,-8.941978454589844,-3.8021950721740723
1761315437493935400,7.115935302734375,2.3018953800201416,-8.901300430297852,-3.84765887260437
1761315437512857300,7.134857421875,2.2779672145843506,-8.882157325744629,-3.871587038040161
1761315437531779300,7.153779296875,2.2636101245880127,-8.93240737915039,-3.830909013748169
1761315437550701300,7.172701416015625,2.289931297302246,-8.94676399230957,-3.7878382205963135
1761315437569623300,7.191623291015625,2.282752752304077,-8.994620323181152,-3.7974095344543457
1761315437588545300,7.210545166015625,2.2755744457244873,-8.982656478881836,-3.7782669067382812
1761315437607467300,7.22946728515625,2.289931297302246,-8.975478172302246,-3.7495529651641846
1761315437626389200,7.24838916015625,2.2612173557281494,-8.965906143188477,-3.7543387413024902
1761315437645311200,7.267311279296875,2.2612173557281494,-8.941978454589844,-3.8045880794525146
1761315437664233200,7.286233154296875,2.2468605041503906,-8.951549530029297,-3.806980848312378
1761315437683155200,7.3051552734375,2.2444677352905273,-8.973084449768066,-3.7806596755981445
1761315437702077200,7.3240771484375,2.2755744457244873,-9.004191398620605,-3.7806596755981445
1761315437720999200,7.342999267578125,2.2683959007263184,-8.994620323181152,-3.7710886001586914
1761315437739921200,7.361921142578125,2.2755744457244873,-8.963513374328613,-3.7663028240203857
1761315437758843100,7.380843017578125,2.266003131866455,-8.93958568572998,-3.8021950721740723
1761315437777765000,7.39976513671875,2.297109842300415,-8.915657043457031,-3.8285162448883057
1761315437796687000,7.41868701171875,2.321038007736206,-8.949156761169434,-3.845266103744507
1761315437815609000,7.437609130859375,2.3090739250183105,-8.908478736877441,-3.8261234760284424
1761315437834531000,7.456531005859375,2.3186452388763428,-8.918049812316895,-3.900300979614258
1761315437853453000,7.475453125,2.282752752304077,-8.908478736877441,-3.893122434616089
1761315437872375000,7.494375,2.2923240661621094,-8.925228118896484,-3.8572301864624023
1761315437891297000,7.513297119140625,2.2995026111602783,-8.918049812316895,-3.8189449310302734
1761315437910219000,7.532218994140625,2.313859462738037,-8.937192916870117,-3.81655216217041
1761315437929141000,7.55114111328125,2.311466693878174,-8.94676399230957,-3.799802303314209
1761315437948063000,7.57006298828125,2.2779672145843506,-8.93958568572998,-3.7806596755981445
1761315437966985000,7.58898486328125,2.282752752304077,-8.956335067749023,-3.809373617172241
1761315437985907000,7.607906982421875,2.280359983444214,-8.94676399230957,-3.8333017826080322
1761315438004829000,7.626828857421875,2.287538528442383,-8.93958568572998,-3.8261234760284424
1761315438023751000,7.6457509765625,2.2683959007263184,-8.93240737915039,-3.8045880794525146
1761315438042673000,7.6646728515625,2.2683959007263184,-8.956335067749023,-3.8261234760284424
1761315438061595000,7.683594970703125,2.258824586868286,-8.937192916870117,-3.8285162448883057
1761315438080516900,7.702516845703125,2.282752752304077,-8.96112060546875,-3.814159393310547
1761315438099438800,7.72143896484375,2.2755744457244873,-8.956335067749023,-3.8117663860321045
1761315438118360800,7.74036083984375,2.2683959007263184,-8.963513374328613,-3.8261234760284424
1761315438137282800,7.75928271484375,2.2396819591522217,-8.951549530029297,-3.806980848312378
1761315438156204800,7.778204833984375,2.2444677352905273,-8.96829891204834,-3.7950167655944824
1761315438175126800,7.797126708984375,2.251646041870117,-8.93958568572998,-3.7950167655944824
1761315438194048800,7.816048828125,2.2636101245880127,-8.930013656616211,-3.838087558746338
1761315438212970800,7.834970703125,2.2707886695861816,-8.922835350036621,-3.8500516414642334
1761315438231892700,7.853892822265625,2.297109842300415,-8.941978454589844,-3.8333017826080322
1761315438250814700,7.872814697265625,2.2947168350219727,-8.95394229888916,-3.7950167655944824
1761315438269736700,7.89173681640625,2.2755744457244873,-8.922835350036621,-3.869194269180298
1761315438288658700,7.91065869140625,2.2707886695861816,-8.949156761169434,-3.895515203475952
1761315438307580700,7.92958056640625,2.280359983444214,-8.918049812316895,-3.8500516414642334
1761315438326502700,7.948502685546875,2.3258235454559326,-8.934800148010254,-3.799802303314209
1761315438345424600,7.967424560546875,2.282752752304077,-8.898907661437988,-3.7806596755981445
1761315438364346600,7.9863466796875,2.2612173557281494,-8.906085968017578,-3.8333017826080322
1761315438383268600,8.0052685546875,2.273181438446045,-8.937192916870117,-3.862015724182129
1761315438402190600,8.024190673828125,2.3162522315979004,-8.934800148010254,-3.8285162448883057
1761315438421112600,8.043112548828125,2.3306093215942383,-8.927620887756348,-3.8285162448883057
1761315438440034600,8.06203466796875,2.313859462738037,-8.918049812316895,-3.864408493041992
1761315438458956500,8.08095654296875,2.3090739250183105,-8.896514892578125,-3.8572301864624023
1761315438477878500,8.09987841796875,2.328216314315796,-8.930013656616211,-3.84765887260437
1761315438496800500,8.118800537109376,2.328216314315796,-8.941978454589844,-3.809373617172241
1761315438515722500,8.137722412109374,2.3330020904541016,-8.94676399230957,-3.799802303314209
1761315438534644500,8.15664453125,2.321038007736206,-8.918049812316895,-3.8213376998901367
1761315438553566500,8.17556640625,2.313859462738037,-8.920442581176758,-3.8117663860321045
1761315438572488400,8.194488525390625,2.306680917739868,-8.920442581176758,-3.8213376998901367
1761315438591410400,8.213410400390625,2.311466693878174,-8.937192916870117,-3.8285162448883057
1761315438610332200,8.232332275390625,2.311466693878174,-8.951549530029297,-3.8021950721740723
1761315438629254100,8.251254150390626,2.297109842300415,-8.944371223449707,-3.8045880794525146
1761315438648176000,8.270176025390626,2.280359983444214,-8.93958568572998,-3.838087558746338
1761315438667098000,8.28909814453125,2.2755744457244873,-8.918049812316895,-3.8213376998901367
1761315438686020000,8.30802001953125,2.287538528442383,-8.94676399230957,-3.7663028240203857
1761315438704942000,8.326942138671875,2.2923240661621094,-8.934800148010254,-3.792623996734619
1761315438723864000,8.345864013671875,2.287538528442383,-8.877371788024902,-3.8285162448883057
1761315438742786000,8.3647861328125,2.2755744457244873,-8.903693199157715,-3.8668015003204346
1761315438761708000,8.3837080078125,2.289931297302246,-8.925228118896484,-3.8763725757598877
1761315438780630000,8.402630126953126,2.2947168350219727,-8.96829891204834,-3.838087558746338
1761315438799552000,8.421552001953126,2.313859462738037,-8.949156761169434,-3.8213376998901367
1761315438818474000,8.440473876953124,2.311466693878174,-8.93958568572998,-3.85483717918396
1761315438837396000,8.45939599609375,2.306680917739868,-8.93240737915039,-3.8668015003204346
1761315438856318000,8.47831787109375,2.3186452388763428,-8.915657043457031,-3.8428730964660645
1761315438875240000,8.497239990234375,2.2995026111602783,-8.925228118896484,-3.84765887260437
1761315438894162000,8.516161865234375,2.280359983444214,-8.891729354858398,-3.8668015003204346
1761315438913084000,8.535083984375,2.251646041870117,-8.93240737915039,-3.864408493041992
1761315438932006000,8.554005859375,2.256431818008423,-8.93958568572998,-3.840480327606201
1761315438950928000,8.572927978515626,2.2612173557281494,-8.97787094116211,-3.7974095344543457
1761315438969849900,8.591849853515624,2.2707886695861816,-8.975478172302246,-3.7950167655944824
1761315438988771800,8.610771728515624,2.2612173557281494,-8.944371223449707,-3.8189449310302734
1761315439007693800,8.62969384765625,2.2636101245880127,-8.93958568572998,-3.8213376998901367
1761315439026615800,8.64861572265625,2.2612173557281494,-8.95394229888916,-3.840480327606201
1761315439045537800,8.667537841796875,2.242074728012085,-8.956335067749023,-3.840480327606201
1761315439064459800,8.686459716796875,2.2612173557281494,-8.922835350036621,-3.8500516414642334
1761315439083381800,8.7053818359375,2.304288148880005,-8.927620887756348,-3.871587038040161
1761315439102303700,8.7243037109375,2.280359983444214,-8.930013656616211,-3.8572301864624023
1761315439121225700,8.743225830078124,2.273181438446045,-8.956335067749023,-3.838087558746338
1761315439140147700,8.762147705078124,2.2683959007263184,-8.980263710021973,-3.783052682876587
1761315439159069700,8.781069580078125,2.2779672145843506,-9.001798629760742,-3.775874137878418
1761315439177991700,8.79999169921875,2.266003131866455,-8.987442016601562,-3.7663028240203857
1761315439196913700,8.81891357421875,2.2540390491485596,-8.987442016601562,-3.7471601963043213
1761315439215835600,8.837835693359375,2.256431818008423,-9.025727272033691,-3.6945180892944336
1761315439234757600,8.856757568359376,2.256431818008423,-8.987442016601562,-3.6921253204345703
1761315439253679600,8.8756796875,2.2540390491485596,-8.944371223449707,-3.7639100551605225
1761315439272601600,8.8946015625,2.258824586868286,-8.93958568572998,-3.806980848312378
1761315439291523600,8.913523681640624,2.280359983444214,-8.97787094116211,-3.7902309894561768
1761315439310445600,8.932445556640625,2.311466693878174,-8.949156761169434,-3.799802303314209
1761315439329367600,8.951367431640625,2.313859462738037,-8.956335067749023,-3.8261234760284424
1761315439348289500,8.97028955078125,2.3162522315979004,-8.96829891204834,-3.82373046875
1761315439367211300,8.989211181640625,2.2995026111602783,-8.918049812316895,-3.8189449310302734
1761315439386133200,9.00813330078125,2.3258235454559326,-8.951549530029297,-3.8117663860321045
1761315439405055200,9.02705517578125,2.287538528442383,-8.944371223449707,-3.809373617172241
1761315439423977200,9.045977294921874,2.289931297302246,-8.918049812316895,-3.830909013748169
1761315439442899200,9.064899169921874,2.258824586868286,-8.908478736877441,-3.838087558746338
1761315439461821200,9.0838212890625,2.282752752304077,-8.910871505737305,-3.869194269180298
1761315439480743200,9.1027431640625,2.2851455211639404,-8.918049812316895,-3.845266103744507
1761315439499665200,9.1216650390625,2.2995026111602783,-8.922835350036621,-3.864408493041992
1761315439518587100,9.140587158203125,2.3018953800201416,-8.922835350036621,-3.8428730964660645
1761315439537509000,9.159509033203125,2.3186452388763428,-8.910871505737305,-3.8333017826080322
1761315439556431000,9.17843115234375,2.3497519493103027,-8.918049812316895,-3.838087558746338
1761315439575353000,9.19735302734375,2.344966173171997,-8.858229637145996,-3.845266103744507
1761315439594275000,9.216275146484374,2.3497519493103027,-8.841479301452637,-3.8835511207580566
1761315439613197000,9.235197021484375,2.335394859313965,-8.8438720703125,-3.9361932277679443
1761315439632119000,9.254119140625,2.2947168350219727,-8.877371788024902,-3.9122650623321533
1761315439651041000,9.273041015625,2.297109842300415,-8.863015174865723,-3.90987229347229
1761315439669963000,9.291962890625,2.2851455211639404,-8.913264274597168,-3.84765887260437
1761315439688885000,9.310885009765625,2.3234307765960693,-8.922835350036621,-3.8428730964660645
1761315439707807000,9.329806884765626,2.313859462738037,-8.96112060546875,-3.81655216217041
1761315439726729000,9.34872900390625,2.297109842300415,-9.001798629760742,-3.806980848312378
1761315439745651000,9.36765087890625,2.311466693878174,-8.95394229888916,-3.7543387413024902
1761315439764573000,9.386572998046875,2.289931297302246,-8.906085968017578,-3.792623996734619
1761315439783495000,9.405494873046875,2.306680917739868,-8.879764556884766,-3.8524444103240967
1761315439802417000,9.4244169921875,2.297109842300415,-8.918049812316895,-3.84765887260437
1761315439821338600,9.443338623046875,2.2995026111602783,-8.949156761169434,-3.78544545173645
1761315439840260600,9.462260498046875,2.2923240661621094,-8.997013092041016,-3.7902309894561768
1761315439859182600,9.4811826171875,2.2947168350219727,-9.004191398620605,-3.7902309894561768
1761315439878104600,9.5001044921875,2.258824586868286,-9.018548965454102,-3.7734813690185547
1761315439897026600,9.519026611328124,2.2636101245880127,-9.05444049835205,-3.751945972442627
1761315439915948500,9.537948486328125,2.2707886695861816,-9.028120040893555,-3.720839262008667
1761315439934870500,9.55687060546875,2.2707886695861816,-8.987442016601562,-3.704089403152466
1761315439953792500,9.57579248046875,2.2444677352905273,-8.965906143188477,-3.737588882446289
1761315439972714500,9.594714599609375,2.2205393314361572,-8.906085968017578,-3.7806596755981445
1761315439991636500,9.613636474609375,2.2229323387145996,-8.882157325744629,-3.8524444103240967
1761315440010558500,9.632558349609376,2.2396819591522217,-8.855836868286133,-3.871587038040161
1761315440029480400,9.65148046875,2.282752752304077,-8.903693199157715,-3.893122434616089
1761315440048402400,9.67040234375,2.304288148880005,-8.934800148010254,-3.8668015003204346
1761315440067324400,9.689324462890625,2.306680917739868,-8.970691680908203,-3.862015724182129
1761315440086246400,9.708246337890625,2.3018953800201416,-8.958727836608887,-3.8285162448883057
1761315440105168400,9.72716845703125,2.313859462738037,-8.987442016601562,-3.775874137878418
1761315440124090400,9.74609033203125,2.311466693878174,-9.028120040893555,-3.744767427444458
1761315440143012400,9.765012451171875,2.2683959007263184,-9.028120040893555,-3.735196113586426
1761315440161934300,9.783934326171876,2.2540390491485596,-9.037691116333008,-3.737588882446289
1761315440180856300,9.802856201171876,2.2444677352905273,-9.008976936340332,-3.720839262008667
1761315440199778300,9.8217783203125,2.2612173557281494,-8.951549530029297,-3.720839262008667
1761315440218700300,9.8407001953125,2.2301106452941895,-8.93958568572998,-3.799802303314209
1761315440237622300,9.859622314453125,2.2325034141540527,-8.94676399230957,-3.8117663860321045
1761315440256544300,9.878544189453125,2.2444677352905273,-8.956335067749023,-3.728017568588257
1761315440275466000,9.897466064453125,2.2779672145843506,-8.934800148010254,-3.7471601963043213
1761315440294388000,9.916387939453125,2.2540390491485596,-8.920442581176758,-3.799802303314209
1761315440313310000,9.93531005859375,2.280359983444214,-8.95394229888916,-3.85483717918396
1761315440332232000,9.95423193359375,2.311466693878174,-8.96829891204834,-3.82373046875
1761315440351154000,9.97315380859375,2.328216314315796,-8.9850492477417,-3.78544545173645
1761315440370076000,9.992075927734374,2.2755744457244873,-8.96829891204834,-3.8285162448883057
1761315440388998000,10.010997802734375,2.2636101245880127,-8.94676399230957,-3.8333017826080322
1761315440407919900,10.029919921875,2.287538528442383,-8.937192916870117,-3.8261234760284424
1761315440426841900,10.048841796875,2.2851455211639404,-8.927620887756348,-3.840480327606201
1761315440445763800,10.067763916015625,2.306680917739868,-8.896514892578125,-3.8333017826080322
1761315440464685800,10.086685791015626,2.287538528442383,-8.93958568572998,-3.814159393310547
1761315440483607800,10.10560791015625,2.304288148880005,-8.944371223449707,-3.7878382205963135
1761315440502529800,10.12452978515625,2.3162522315979004,-8.963513374328613,-3.78544545173645
1761315440521451800,10.14345166015625,2.3330020904541016,-8.934800148010254,-3.792623996734619
1761315440540373800,10.162373779296875,2.3569302558898926,-8.913264274597168,-3.7974095344543457
1761315440559295700,10.181295654296875,2.3234307765960693,-8.891729354858398,-3.8572301864624023
1761315440578217700,10.2002177734375,2.321038007736206,-8.918049812316895,-3.9050865173339844
1761315440597139500,10.219139404296875,2.287538528442383,-8.913264274597168,-3.9218363761901855
1761315440616061400,10.2380615234375,2.287538528442383,-8.894122123718262,-3.8739798069000244
1761315440634983400,10.2569833984375,2.304288148880005,-8.903693199157715,-3.8763725757598877
1761315440653905400,10.275905517578124,2.3090739250183105,-8.915657043457031,-3.85483717918396
1761315440672827400,10.294827392578124,2.297109842300415,-8.937192916870117,-3.8261234760284424
1761315440691749400,10.313749267578125,2.282752752304077,-8.95394229888916,-3.7806596755981445
1761315440710671400,10.33267138671875,2.266003131866455,-8.941978454589844,-3.8021950721740723
1761315440729593300,10.35159326171875,2.2444677352905273,-8.956335067749023,-3.814159393310547
1761315440748515300,10.370515380859375,2.251646041870117,-8.956335067749023,-3.840480327606201
1761315440767437300,10.389437255859375,2.287538528442383,-8.982656478881836,-3.8045880794525146
1761315440786359300,10.408359375,2.2755744457244873,-8.927620887756348,-3.7878382205963135
1761315440805281300,10.42728125,2.266003131866455,-8.927620887756348,-3.8261234760284424
1761315440824203300,10.446203369140624,2.266003131866455,-8.930013656616211,-3.8572301864624023
1761315440843125200,10.465125244140625,2.2612173557281494,-8.925228118896484,-3.8668015003204346
1761315440862047200,10.484047119140625,2.282752752304077,-8.94676399230957,-3.87876558303833
1761315440880969200,10.50296923828125,2.289931297302246,-8.95394229888916,-3.862015724182129
1761315440899891200,10.52189111328125,2.2995026111602783,-8.930013656616211,-3.8907296657562256
1761315440918813200,10.540813232421876,2.266003131866455,-8.920442581176758,-3.88594388961792
1761315440937735200,10.559735107421876,2.273181438446045,-8.93240737915039,-3.8500516414642334
1761315440956657200,10.5786572265625,2.2755744457244873,-8.927620887756348,-3.8596229553222656
1761315440975579000,10.597578857421874,2.256431818008423,-8.906085968017578,-3.8763725757598877
1761315440994500900,10.6165009765625,2.2540390491485596,-8.925228118896484,-3.85483717918396
1761315441013422800,10.6354228515625,2.242074728012085,-8.937192916870117,-3.85483717918396
1761315441032344800,10.6543447265625,2.2325034141540527,-8.918049812316895,-3.8428730964660645
1761315441051266800,10.673266845703125,2.227717876434326,-8.903693199157715,-3.88594388961792
1761315441070188800,10.692188720703125,2.2468605041503906,-8.910871505737305,-3.88594388961792
1761315441089110800,10.71111083984375,2.2755744457244873,-8.918049812316895,-3.838087558746338
1761315441108032800,10.73003271484375,2.282752752304077,-8.944371223449707,-3.8333017826080322
1761315441126954800,10.748954833984374,2.2779672145843506,-8.920442581176758,-3.871587038040161
1761315441145876700,10.767876708984375,2.2923240661621094,-8.93240737915039,-3.869194269180298
1761315441164798700,10.786798828125,2.2683959007263184,-8.918049812316895,-3.864408493041992
1761315441183720700,10.805720703125,2.2707886695861816,-8.944371223449707,-3.8356947898864746
1761315441202642400,10.824642333984375,2.2755744457244873,-8.915657043457031,-3.8261234760284424
1761315441221564400,10.843564453125,2.289931297302246,-8.920442581176758,-3.840480327606201
1761315441240486400,10.862486328125,2.2851455211639404,-8.927620887756348,-3.830909013748169
1761315441259408400,10.881408447265626,2.289931297302246,-8.95394229888916,-3.814159393310547
1761315441278330400,10.900330322265624,2.313859462738037,-8.973084449768066,-3.7902309894561768
1761315441297252400,10.91925244140625,2.321038007736206,-8.925228118896484,-3.8117663860321045
1761315441316174300,10.93817431640625,2.321038007736206,-8.898907661437988,-3.85483717918396
1761315441335096300,10.957096435546875,2.3306093215942383,-8.913264274597168,-3.8572301864624023
1761315441354018300,10.976018310546875,2.335394859313965,-8.910871505737305,-3.84765887260437
1761315441372940300,10.994940185546875,2.3497519493103027,-8.898907661437988,-3.8668015003204346
1761315441391862300,11.0138623046875,2.352144718170166,-8.894122123718262,-3.90987229347229
1761315441410784300,11.0327841796875,2.328216314315796,-8.882157325744629,-3.926621913909912
1761315441429706200,11.051706298828124,2.352144718170166,-8.889336585998535,-3.90987229347229
1761315441448628200,11.070628173828124,2.3617160320281982,-8.910871505737305,-3.864408493041992
1761315441467550200,11.08955029296875,2.3258235454559326,-8.896514892578125,-3.87876558303833
1761315441486472000,11.108471923828125,2.321038007736206,-8.886942863464355,-3.8739798069000244
1761315441505394000,11.127393798828125,2.287538528442383,-8.877371788024902,-3.8668015003204346
1761315441524316000,11.14631591796875,2.273181438446045,-8.915657043457031,-3.8500516414642334
1761315441543238000,11.16523779296875,2.297109842300415,-8.927620887756348,-3.85483717918396
1761315441562159900,11.184159912109376,2.3018953800201416,-8.937192916870117,-3.8596229553222656
1761315441581081900,11.203081787109374,2.304288148880005,-8.93958568572998,-3.8428730964660645
1761315441600003800,11.22200390625,2.297109842300415,-8.925228118896484,-3.8500516414642334
1761315441618925800,11.24092578125,2.2995026111602783,-8.903693199157715,-3.869194269180298
1761315441637847800,11.259847900390625,2.3258235454559326,-8.898907661437988,-3.893122434616089
1761315441656769800,11.278769775390625,2.3330020904541016,-8.934800148010254,-3.8739798069000244
1761315441675691800,11.29769189453125,2.3330020904541016,-8.920442581176758,-3.8835511207580566
1761315441694613800,11.31661376953125,2.337787628173828,-8.93240737915039,-3.869194269180298
1761315441713535700,11.33553564453125,2.3497519493103027,-8.891729354858398,-3.8763725757598877
1761315441732457500,11.35445751953125,2.3497519493103027,-8.882157325744629,-3.9194436073303223
1761315441751379500,11.37337939453125,2.328216314315796,-8.882157325744629,-3.8739798069000244
1761315441770301400,11.392301513671875,2.3330020904541016,-8.941978454589844,-3.871587038040161
1761315441789223400,11.411223388671875,2.3306093215942383,-8.903693199157715,-3.8333017826080322
1761315441808145400,11.4301455078125,2.328216314315796,-8.872586250305176,-3.871587038040161
1761315441827067400,11.4490673828125,2.3090739250183105,-8.882157325744629,-3.9194436073303223
1761315441845989400,11.4679892578125,2.311466693878174,-8.908478736877441,-3.8883368968963623
1761315441864911400,11.486911376953126,2.3162522315979004,-8.927620887756348,-3.85483717918396
1761315441883833300,11.505833251953124,2.3258235454559326,-8.903693199157715,-3.8883368968963623
1761315441902755300,11.52475537109375,2.2947168350219727,-8.903693199157715,-3.88594388961792
1761315441921677300,11.54367724609375,2.280359983444214,-8.937192916870117,-3.8572301864624023
1761315441940599000,11.56259912109375,2.3186452388763428,-8.922835350036621,-3.8333017826080322
1761315441959521000,11.58152099609375,2.321038007736206,-8.910871505737305,-3.8811583518981934
1761315441978443000,11.600443115234375,2.2779672145843506,-8.870193481445312,-3.924229145050049
1761315441997365000,11.619364990234375,2.2707886695861816,-8.884550094604492,-3.9146578311920166
1761315442016287000,11.638286865234376,2.297109842300415,-8.894122123718262,-3.87876558303833
1761315442035209000,11.657208984375,2.3018953800201416,-8.925228118896484,-3.895515203475952
1761315442054131000,11.676130859375,2.304288148880005,-8.903693199157715,-3.8883368968963623
1761315442073053000,11.695052978515625,2.306680917739868,-8.894122123718262,-3.895515203475952
1761315442091975000,11.713974853515625,2.287538528442383,-8.927620887756348,-3.87876558303833
1761315442110897000,11.73289697265625,2.3018953800201416,-8.927620887756348,-3.8500516414642334
1761315442129818600,11.751818603515625,2.3018953800201416,-8.930013656616211,-3.8189449310302734
1761315442148740600,11.77074072265625,2.311466693878174,-8.93240737915039,-3.8213376998901367
1761315442167662600,11.78966259765625,2.2779672145843506,-8.96112060546875,-3.838087558746338
1761315442186584600,11.80858447265625,2.282752752304077,-8.963513374328613,-3.814159393310547
1761315442205506600,11.827506591796874,2.3018953800201416,-8.96112060546875,-3.7974095344543457
1761315442224428500,11.846428466796874,2.2995026111602783,-8.94676399230957,-3.809373617172241
1761315442243350500,11.8653505859375,2.280359983444214,-8.94676399230957,-3.8428730964660645
1761315442262272500,11.8842724609375,2.2707886695861816,-8.922835350036621,-3.84765887260437
1761315442281194500,11.903194580078125,2.2923240661621094,-8.93240737915039,-3.814159393310547
1761315442300116500,11.922116455078125,2.304288148880005,-8.882157325744629,-3.8739798069000244
1761315442319038500,11.94103857421875,2.306680917739868,-8.877371788024902,-3.88594388961792
1761315442337960200,11.959960205078126,2.297109842300415,-8.898907661437988,-3.8883368968963623
1761315442356882200,11.978882080078124,2.313859462738037,-8.903693199157715,-3.88594388961792
1761315442375804200,11.99780419921875,2.313859462738037,-8.922835350036621,-3.88594388961792
1761315442394726100,12.01672607421875,2.2923240661621094,-8.918049812316895,-3.8883368968963623
1761315442413648100,12.035648193359375,2.2995026111602783,-8.925228118896484,-3.8596229553222656
1761315442432570000,12.054570068359375,2.2947168350219727,-8.920442581176758,-3.84765887260437
1761315442451492000,12.0734921875,2.311466693878174,-8.925228118896484,-3.85483717918396
1761315442470414000,12.0924140625,2.2612173557281494,-8.901300430297852,-3.869194269180298
1761315442489336000,12.111336181640626,2.2612173557281494,-8.927620887756348,-3.871587038040161
1761315442508258000,12.130258056640624,2.287538528442383,-8.937192916870117,-3.840480327606201
1761315442527179800,12.1491796875,2.2755744457244873,-8.925228118896484,-3.8428730964660645
1761315442546101800,12.168101806640625,2.258824586868286,-8.934800148010254,-3.85483717918396
1761315442565023700,12.187023681640625,2.273181438446045,-8.930013656616211,-3.845266103744507
1761315442583945700,12.20594580078125,2.2755744457244873,-8.944371223449707,-3.838087558746338
1761315442602867700,12.22486767578125,2.2683959007263184,-8.927620887756348,-3.8356947898864746
1761315442621789700,12.243789794921875,2.2779672145843506,-8.910871505737305,-3.8261234760284424
1761315442640711700,12.262711669921876,2.2851455211639404,-8.922835350036621,-3.85483717918396
1761315442659633700,12.281633544921876,2.287538528442383,-8.910871505737305,-3.862015724182129
1761315442678555600,12.3005556640625,2.287538528442383,-8.951549530029297,-3.8739798069000244
1761315442697477600,12.3194775390625,2.2923240661621094,-8.944371223449707,-3.7878382205963135
1761315442716399400,12.3383994140625,2.2851455211639404,-8.937192916870117,-3.845266103744507
1761315442735321300,12.3573212890625,2.273181438446045,-8.93240737915039,-3.869194269180298
1761315442754243300,12.376243408203125,2.306680917739868,-8.958727836608887,-3.82373046875
1761315442773165300,12.395165283203125,2.297109842300415,-8.951549530029297,-3.78544545173645
1761315442792087300,12.41408740234375,2.287538528442383,-8.910871505737305,-3.840480327606201
1761315442811009300,12.43300927734375,2.2851455211639404,-8.920442581176758,-3.8811583518981934
1761315442829931300,12.45193115234375,2.311466693878174,-8.925228118896484,-3.8572301864624023
1761315442848853200,12.470853271484375,2.3162522315979004,-8.93240737915039,-3.840480327606201
1761315442867775200,12.489775146484375,2.2947168350219727,-8.937192916870117,-3.8668015003204346
1761315442886697000,12.508697021484375,2.3018953800201416,-8.913264274597168,-3.8763725757598877
1761315442905619000,12.527618896484375,2.2995026111602783,-8.922835350036621,-3.830909013748169
1761315442924541000,12.546541015625,2.321038007736206,-8.927620887756348,-3.8261234760284424
1761315442943463000,12.565462890625,2.311466693878174,-8.949156761169434,-3.82373046875
1761315442962385000,12.584385009765626,2.304288148880005,-8.934800148010254,-3.864408493041992
1761315442981307000,12.603306884765624,2.304288148880005,-8.901300430297852,-3.871587038040161
1761315443000228900,12.622228759765624,2.2755744457244873,-8.901300430297852,-3.8524444103240967
1761315443019150800,12.64115087890625,2.280359983444214,-8.918049812316895,-3.8763725757598877
1761315443038072800,12.66007275390625,2.289931297302246,-8.910871505737305,-3.88594388961792
1761315443056994600,12.67899462890625,2.273181438446045,-8.925228118896484,-3.8763725757598877
1761315443075916500,12.69791650390625,2.258824586868286,-8.915657043457031,-3.8763725757598877
1761315443094838500,12.716838623046876,2.2636101245880127,-8.937192916870117,-3.8572301864624023
1761315443113760500,12.735760498046876,2.280359983444214,-8.941978454589844,-3.8668015003204346
1761315443132682500,12.7546826171875,2.287538528442383,-8.949156761169434,-3.85483717918396
1761315443151604500,12.7736044921875,2.266003131866455,-8.93240737915039,-3.840480327606201
1761315443170526500,12.7925263671875,2.2325034141540527,-8.951549530029297,-3.8500516414642334
1761315443189448400,12.811448486328125,2.249253273010254,-8.949156761169434,-3.8189449310302734
1761315443208370400,12.830370361328125,2.2372891902923584,-8.944371223449707,-3.8213376998901367
1761315443227292200,12.849292236328125,2.2755744457244873,-8.949156761169434,-3.838087558746338
1761315443246214100,12.868214111328125,2.2636101245880127,-8.97787094116211,-3.7950167655944824
1761315443265136000,12.88713623046875,2.2755744457244873,-8.949156761169434,-3.8021950721740723
1761315443284058000,12.90605810546875,2.2851455211639404,-8.934800148010254,-3.814159393310547
1761315443302980000,12.92497998046875,2.273181438446045,-8.908478736877441,-3.8285162448883057
1761315443321902000,12.943902099609375,2.2851455211639404,-8.94676399230957,-3.82373046875
1761315443340824000,12.962823974609375,2.289931297302246,-8.963513374328613,-3.81655216217041
1761315443359746000,12.98174609375,2.282752752304077,-8.958727836608887,-3.799802303314209
1761315443378668000,13.00066796875,2.2683959007263184,-8.965906143188477,-3.8285162448883057
1761315443397589800,13.01958984375,2.2636101245880127,-8.965906143188477,-3.8285162448883057
1761315443416511700,13.03851171875,2.2444677352905273,-8.96112060546875,-3.81655216217041
1761315443435433700,13.057433837890626,2.256431818008423,-8.951549530029297,-3.806980848312378
1761315443454355700,13.076355712890624,2.256431818008423,-8.93240737915039,-3.830909013748169
1761315443473277700,13.095277587890624,2.2540390491485596,-8.927620887756348,-3.838087558746338
1761315443492199700,13.11419970703125,2.2444677352905273,-8.93958568572998,-3.838087558746338
1761315443511121700,13.13312158203125,2.2444677352905273,-8.934800148010254,-3.8668015003204346
1761315443530043600,13.152043701171875,2.2707886695861816,-8.910871505737305,-3.895515203475952
1761315443548965400,13.17096533203125,2.2755744457244873,-8.915657043457031,-3.8835511207580566
1761315443567887400,13.189887451171876,2.273181438446045,-8.93958568572998,-3.864408493041992
1761315443586809300,13.208809326171876,2.2707886695861816,-8.908478736877441,-3.8763725757598877
1761315443605731300,13.2277314453125,2.2851455211639404,-8.891729354858398,-3.871587038040161
1761315443624653300,13.2466533203125,2.3090739250183105,-8.898907661437988,-3.8668015003204346
1761315443643575300,13.2655751953125,2.266003131866455,-8.918049812316895,-3.895515203475952
1761315443662497300,13.284497314453125,2.249253273010254,-8.93240737915039,-3.864408493041992
1761315443681419300,13.303419189453125,2.2755744457244873,-8.941978454589844,-3.82373046875
1761315443700341000,13.322341064453125,2.287538528442383,-8.94676399230957,-3.864408493041992
1761315443719263000,13.341262939453125,2.2636101245880127,-8.903693199157715,-3.8979079723358154
1761315443738185000,13.36018505859375,2.2755744457244873,-8.925228118896484,-3.8763725757598877
1761315443757107000,13.37910693359375,2.287538528442383,-8.956335067749023,-3.838087558746338
1761315443776029000,13.39802880859375,2.2923240661621094,-8.93958568572998,-3.806980848312378
1761315443794951000,13.416950927734375,2.2923240661621094,-8.918049812316895,-3.864408493041992
1761315443813873000,13.435872802734375,2.273181438446045,-8.913264274597168,-3.9122650623321533
1761315443832794600,13.454794677734375,2.3018953800201416,-8.920442581176758,-3.8524444103240967
1761315443851716600,13.473716552734375,2.313859462738037,-8.934800148010254,-3.8356947898864746
1761315443870638600,13.492638671875,2.2995026111602783,-8.94676399230957,-3.8285162448883057
1761315443889560600,13.511560546875,2.2851455211639404,-8.95394229888916,-3.838087558746338
1761315443908482600,13.530482666015626,2.2636101245880127,-8.965906143188477,-3.8285162448883057
1761315443927404500,13.549404541015624,2.2851455211639404,-8.96112060546875,-3.8045880794525146
1761315443946326500,13.568326416015625,2.2779672145843506,-8.93240737915039,-3.814159393310547
1761315443965248300,13.587248291015625,2.273181438446045,-8.930013656616211,-3.8285162448883057
1761315443984170200,13.606170166015625,2.2779672145843506,-8.96112060546875,-3.845266103744507
1761315444003092200,13.62509228515625,2.2923240661621094,-8.937192916870117,-3.838087558746338
1761315444022014200,13.64401416015625,2.2923240661621094,-8.951549530029297,-3.869194269180298
1761315444040936200,13.662936279296876,2.2851455211639404,-8.934800148010254,-3.8524444103240967
1761315444059858200,13.681858154296876,2.297109842300415,-8.93240737915039,-3.8500516414642334
1761315444078780200,13.7007802734375,2.2851455211639404,-8.898907661437988,-3.8763725757598877
1761315444097702100,13.7197021484375,2.2995026111602783,-8.920442581176758,-3.87876558303833
1761315444116624000,13.738623779296875,2.2779672145843506,-8.903693199157715,-3.8979079723358154
1761315444135545900,13.7575458984375,2.313859462738037,-8.927620887756348,-3.8763725757598877
1761315444154467800,13.7764677734375,2.3234307765960693,-8.95394229888916,-3.8333017826080322
1761315444173389800,13.795389892578125,2.3258235454559326,-8.910871505737305,-3.8428730964660645
1761315444192311800,13.814311767578126,2.3306093215942383,-8.870193481445312,-3.9194436073303223
1761315444211233800,13.83323388671875,2.3162522315979004,-8.846264839172363,-3.94815731048584
1761315444230155800,13.85215576171875,2.3186452388763428,-8.831908226013184,-3.964907169342041
1761315444249077500,13.871077392578124,2.3401806354522705,-8.863015174865723,-3.924229145050049
1761315444267999500,13.88999951171875,2.335394859313965,-8.877371788024902,-3.9314076900482178
1761315444286921500,13.90892138671875,2.3497519493103027,-8.870193481445312,-3.933800458908081
1761315444305843500,13.927843505859375,2.3330020904541016,-8.858229637145996,-3.91705060005188
1761315444324765400,13.946765380859375,2.3306093215942383,-8.882157325744629,-3.9314076900482178
1761315444343687400,13.9656875,2.304288148880005,-8.910871505737305,-3.9074792861938477
1761315444362609200,13.984609130859376,2.2995026111602783,-8.93958568572998,-3.8907296657562256
1761315444381531100,14.00353125,2.2995026111602783,-8.958727836608887,-3.85483717918396
1761315444400453000,14.022453125,2.3090739250183105,-8.937192916870117,-3.8356947898864746
1761315444419375000,14.041375,2.304288148880005,-8.903693199157715,-3.845266103744507
1761315444438297000,14.060297119140625,2.328216314315796,-8.882157325744629,-3.8763725757598877
1761315444457219000,14.079218994140625,2.306680917739868,-8.891729354858398,-3.895515203475952
1761315444476141000,14.09814111328125,2.2947168350219727,-8.910871505737305,-3.9074792861938477
1761315444495063000,14.11706298828125,2.304288148880005,-8.894122123718262,-3.9050865173339844
1761315444513984800,14.13598486328125,2.321038007736206,-8.891729354858398,-3.902693748474121
1761315444532906800,14.15490673828125,2.3018953800201416,-8.882157325744629,-3.9218363761901855
1761315444551828700,14.173828857421874,2.289931297302246,-8.889336585998535,-3.902693748474121
1761315444570750700,14.192750732421874,2.287538528442383,-8.882157325744629,-3.933800458908081
1761315444589672700,14.211672607421875,2.282752752304077,-8.889336585998535,-3.9218363761901855
1761315444608594700,14.2305947265625,2.289931297302246,-8.906085968017578,-3.8883368968963623
1761315444627516400,14.249516357421875,2.2683959007263184,-8.930013656616211,-3.8668015003204346
1761315444646438400,14.2684384765625,2.280359983444214,-8.956335067749023,-3.8117663860321045
1761315444665360400,14.2873603515625,2.2707886695861816,-8.93240737915039,-3.8333017826080322
1761315444684282400,14.306282470703126,2.249253273010254,-8.896514892578125,-3.8835511207580566
1761315444703204400,14.325204345703124,2.2636101245880127,-8.920442581176758,-3.871587038040161
1761315444722126300,14.344126220703124,2.282752752304077,-8.982656478881836,-3.814159393310547
1761315444741048000,14.363048095703125,2.306680917739868,-8.958727836608887,-3.8261234760284424
1761315444759970000,14.381969970703125,2.304288148880005,-8.906085968017578,-3.87876558303833
1761315444778892000,14.40089208984375,2.337787628173828,-8.903693199157715,-3.8835511207580566
1761315444797814000,14.41981396484375,2.337787628173828,-8.906085968017578,-3.8763725757598877
1761315444816736000,14.438736083984375,2.3330020904541016,-8.922835350036621,-3.87876558303833
1761315444835658000,14.457657958984376,2.335394859313965,-8.925228118896484,-3.8668015003204346
1761315444854579700,14.476579833984376,2.3258235454559326,-8.937192916870117,-3.830909013748169
1761315444873501700,14.495501708984374,2.311466693878174,-8.930013656616211,-3.8333017826080322
1761315444892423700,14.514423583984374,2.328216314315796,-8.937192916870117,-3.85483717918396
1761315444911345700,14.533345703125,2.3258235454559326,-8.930013656616211,-3.864408493041992
1761315444930267600,14.552267578125,2.3090739250183105,-8.882157325744629,-3.8668015003204346
1761315444949189600,14.571189697265625,2.3401806354522705,-8.894122123718262,-3.862015724182129
1761315444968111600,14.590111572265625,2.3330020904541016,-8.896514892578125,-3.85483717918396
1761315444987033300,14.609033447265626,2.342573404312134,-8.910871505737305,-3.8811583518981934
1761315445005955300,14.627955322265626,2.3401806354522705,-8.896514892578125,-3.8811583518981934
1761315445024877300,14.646877197265624,2.3306093215942383,-8.896514892578125,-3.869194269180298
1761315445043799300,14.66579931640625,2.311466693878174,-8.877371788024902,-3.8739798069000244
1761315445062721300,14.68472119140625,2.321038007736206,-8.874979019165039,-3.864408493041992
1761315445081643000,14.70364306640625,2.2779672145843506,-8.93240737915039,-3.926621913909912
1761315445100565000,14.72256494140625,2.2540390491485596,-8.93240737915039,-3.8907296657562256
1761315445119487000,14.741487060546875,2.280359983444214,-8.975478172302246,-3.8739798069000244
1761315445138409000,14.760408935546875,2.2707886695861816,-8.941978454589844,-3.8333017826080322
1761315445157331000,14.7793310546875,2.258824586868286,-8.910871505737305,-3.862015724182129
1761315445176253000,14.7982529296875,2.242074728012085,-8.896514892578125,-3.924229145050049
1761315445195175000,14.8171748046875,2.2396819591522217,-8.877371788024902,-3.924229145050049
1761315445214096600,14.8360966796875,2.258824586868286,-8.886942863464355,-3.933800458908081
1761315445233018600,14.8550185546875,2.2612173557281494,-8.858229637145996,-3.94815731048584
1761315445251940600,14.873940673828125,2.266003131866455,-8.870193481445312,-3.957728624343872
1761315445270862600,14.892862548828125,2.3018953800201416,-8.894122123718262,-3.9290146827697754
1761315445289784600,14.91178466796875,2.321038007736206,-8.910871505737305,-3.8500516414642334
1761315445308706300,14.930706298828126,2.3090739250183105,-8.949156761169434,-3.806980848312378
1761315445327628300,14.949628173828126,2.313859462738037,-8.956335067749023,-3.78544545173645
1761315445346550300,14.96855029296875,2.306680917739868,-8.982656478881836,-3.7639100551605225
1761315445365472300,14.98747216796875,2.313859462738037,-8.992227554321289,-3.7567315101623535
1761315445384394200,15.006394287109375,2.3330020904541016,-8.958727836608887,-3.7950167655944824
1761315445403316200,15.025316162109375,2.306680917739868,-8.874979019165039,-3.8596229553222656
1761315445422238000,15.044238037109375,2.335394859313965,-8.874979019165039,-3.9050865173339844
1761315445441160000,15.063159912109375,2.313859462738037,-8.879764556884766,-3.895515203475952
1761315445460082000,15.08208203125,2.342573404312134,-8.886942863464355,-3.893122434616089
1761315445479004000,15.10100390625,2.335394859313965,-8.894122123718262,-3.902693748474121
1761315445497926000,15.11992578125,2.3258235454559326,-8.913264274597168,-3.9385859966278076
1761315445516847900,15.138847900390624,2.3234307765960693,-8.901300430297852,-3.9290146827697754
1761315445535769600,15.15776953125,2.311466693878174,-8.896514892578125,-3.893122434616089
1761315445554691600,15.176691650390625,2.2923240661621094,-8.879764556884766,-3.9122650623321533
1761315445573613600,15.195613525390625,2.289931297302246,-8.874979019165039,-3.8883368968963623
1761315445592535600,15.21453564453125,2.280359983444214,-8.908478736877441,-3.8883368968963623
1761315445611457500,15.23345751953125,2.2636101245880127,-8.937192916870117,-3.8524444103240967
1761315445630379300,15.252379150390626,2.2851455211639404,-8.94676399230957,-3.809373617172241
1761315445649301200,15.27130126953125,2.297109842300415,-8.96112060546875,-3.809373617172241
1761315445668223200,15.29022314453125,2.282752752304077,-8.94676399230957,-3.8021950721740723
1761315445687145200,15.309145263671875,2.1655044555664062,-8.930013656616211,-3.792623996734619
1761315445706067200,15.328067138671875,2.2779672145843506,-8.97787094116211,-3.814159393310547
1761315445724989200,15.3469892578125,2.321038007736206,-8.963513374328613,-3.7950167655944824
1761315445743911000,15.365910888671875,2.3234307765960693,-8.937192916870117,-3.8189449310302734
1761315445762833000,15.3848330078125,2.234896421432495,-8.894122123718262,-3.8261234760284424
1761315445781755000,15.4037548828125,2.234896421432495,-8.93240737915039,-3.8572301864624023
1761315445800676900,15.4226767578125,2.2636101245880127,-8.965906143188477,-3.81655216217041
