time,seconds_elapsed,z,y,x
1761231193804475100,0.13447509765625,-0.008857546374201775,0.024129176512360573,0.016340645030140877
1761231193814972400,0.144972412109375,-0.009773843921720982,0.021532999351620674,0.02015855349600315
1761231193831759000,0.161759033203125,-0.008704829961061478,0.017562376335263252,0.01878410577774048
1761231193848549600,0.178549560546875,-0.004734205547720194,0.02382374368607998,0.018325956538319588
1761231193865356500,0.1953564453125,0.002138028386980295,0.026419922709465027,0.01572977937757969
1761231193882138000,0.21213818359375,0.007635815534740686,0.020616702735424042,0.016798794269561768
1761231193898929400,0.228929443359375,0.013286318629980087,0.029168816283345222,0.01863138936460018
1761231193915719400,0.245719482421875,0.012828170321881771,0.03390302136540413,0.01863138936460018
1761231193932511000,0.262510986328125,0.012675453908741474,0.037110064178705215,0.017562376335263252
1761231193949283300,0.279283447265625,0.0029016099870204926,0.04077525436878204,0.014966198243200779
1761231193966074600,0.29607470703125,-0.009621127508580685,0.050854530185461044,0.003359758760780096
1761231193982877000,0.312876953125,-0.019547687843441963,0.05711590126156807,-0.006108652334660292
1761231193999667200,0.329667236328125,-0.02428189292550087,0.058184914290905,-0.01542434748262167
1761231194016456400,0.34645654296875,-0.02672535367310047,0.052839845418930054,-0.024129176512360573
1761231194033250800,0.363250732421875,-0.02871066704392433,0.042760565876960754,-0.03420845419168472
1761231194050035200,0.38003515625,-0.03084869496524334,0.032528575509786606,-0.036651913076639175
1761231194066819800,0.39681982421875,-0.032070424407720566,0.03756821155548096,-0.035124752670526505
1761231194083618000,0.4136181640625,-0.029168816283345222,0.04657847434282303,-0.023365596309304237
1761231194100390700,0.430390625,-0.021074850112199783,0.04138612002134323,-0.005955935921519995
1761231194117193500,0.447193359375,-0.012828170321881771,0.014966198243200779,0.03420845419168472
1761231194133982200,0.463982177734375,-0.005497787147760391,-0.024892758578062057,0.11163562536239624
1761231194150769700,0.480769775390625,-0.009773843921720982,-0.058795779943466187,0.20693060755729675
1761231194167564800,0.497564697265625,-0.001832595793530345,-0.0754418596625328,0.32100969552993774
1761231194184351200,0.514351318359375,0.043218716979026794,-0.06444628536701202,0.4017966091632843
1761231194201140700,0.531140625,0.06948592513799667,-0.003054326167330146,0.4164573848247528
1761231194217930800,0.5479306640625,0.05665775015950203,0.0429132841527462,0.4031710624694824
1761231194234719500,0.564719482421875,0.028405234217643738,0.09498954564332962,0.3854559659957886
1761231194251509000,0.581509033203125,0.008857546374201775,0.23319780826568604,0.37201693654060364
1761231194268287000,0.598286865234375,0.032528575509786606,0.32986724376678467,0.29016098380088806
1761231194285101600,0.6151015625,0.03405573591589928,0.3842342495918274,0.1771509200334549
1761231194301877800,0.631877685546875,0.019547687843441963,0.29794952273368835,0.10262536257505417
1761231194318667300,0.648667236328125,0.0009162978967651725,0.15821409225463867,0.06352998316287994
1761231194335456800,0.665456787109375,-0.0074830991216003895,0.06811147183179855,0.014049900695681572
1761231194352246500,0.68224658203125,0.00045814894838258624,0.05619960278272629,-0.0039706239476799965
1761231194369035500,0.699035400390625,0.003817907767370343,0.07742717117071152,-0.005955935921519995
1761231194385824300,0.71582421875,0.0022907445672899485,0.08368854224681854,-0.0065668015740811825
1761231194402614800,0.73261474609375,-0.0025961773935705423,0.08674286305904388,-0.001527163083665073
1761231194419404500,0.749404541015625,-0.003359758760780096,0.11301007121801376,0.013286318629980087
1761231194436193500,0.766193603515625,0.00015271631127689034,0.16203200817108154,0.04214970022439957
1761231194452983000,0.782983154296875,0.008857546374201775,0.24190263450145721,0.09666942805051804
1761231194469773000,0.79977294921875,0.048716504126787186,0.3367394804954529,0.16768251359462738
1761231194486562600,0.8165625,0.11698069423437119,0.39736783504486084,0.24572055041790009
1761231194503351600,0.8333515625,0.21594086289405823,0.40454551577568054,0.3271183371543884
1761231194520116700,0.85011669921875,0.3446807265281677,0.3943135142326355,0.46471574902534485
1761231194536934000,0.866933837890625,0.5314527750015259,0.43737950921058655,0.6879869699478149
1761231194553707500,0.88370751953125,0.7035640478134155,0.5093088746070862,0.9375254511833191
1761231194570509000,0.900509033203125,0.8854491710662842,0.4665483236312866,1.2725850343704224
1761231194587310800,0.917310791015625,1.1510227918624878,0.28695395588874817,1.4301882982254028
1761231194604089600,0.934089599609375,1.30496084690094,0.20204368233680725,1.676366925239563
1761231194620878600,0.950878662109375,1.3041973114013672,-0.025503624230623245,1.824349045753479
1761231194637667600,0.96766748046875,1.1620184183120728,-0.12003502249717712,1.4569135904312134
1761231194654445000,0.984445068359375,0.9943358898162842,-0.2197587788105011,1.284038782119751
1761231194671243800,1.001243896484375,0.8559749126434326,-0.3197879493236542,1.2577714920043945
1761231194688039700,1.018039794921875,0.7014260292053223,-0.1794416606426239,1.021519422531128
1761231194704824300,1.03482421875,0.5135849714279175,-0.22449298202991486,0.5395467281341553
1761231194721602000,1.05160205078125,0.20433442294597626,0.028099801391363144,0.15882496535778046
1761231194738404900,1.06840478515625,-0.23136521875858307,0.02168571576476097,-0.5148066878318787
1761231194755191600,1.085191650390625,-0.6046038866043091,-0.34987306594848633,-0.9075930118560791
1761231194771976400,1.1019765625,-1.0030407905578613,-0.403323769569397,-1.415680170059204
1761231194788773600,1.118773681640625,-1.310611367225647,-0.05161811411380768,-1.8967366218566895
1761231194805563000,1.13556298828125,-1.5370897054672241,0.2064724564552307,-2.0589213371276855
1761231194822349300,1.152349365234375,-1.5329663753509521,0.49037206172943115,-2.1587977409362793
1761231194839143700,1.169143798828125,-1.2327260971069336,0.24388794600963593,-1.9338465929031372
1761231194855931400,1.185931396484375,-0.8463537693023682,-0.08781187981367111,-1.4599679708480835
1761231194872724000,1.202723876953125,-1.0016663074493408,-0.48609602451324463,-1.140485405921936
1761231194889507800,1.2195078125,-1.2803735733032227,-0.7515169382095337,-0.880104124546051
1761231194906299400,1.23629931640625,-1.4726433753967285,-0.9928087592124939,-0.5684100985527039
1761231194923089400,1.25308935546875,-1.3041973114013672,-1.2948815822601318,-0.13240504264831543
1761231194939875600,1.26987548828125,-0.8715519905090332,-1.4926491975784302,0.1621847152709961
1761231194956672300,1.28667236328125,-0.4178318381309509,-0.9216429591178894,0.4882340431213379
1761231194973457700,1.303457763671875,0.194713294506073,-0.32971450686454773,0.9127854108810425
1761231194990247700,1.32024755859375,0.7851145267486572,0.10491610318422318,1.091616153717041
1761231195007033600,1.33703369140625,0.9610437750816345,0.7748825550079346,0.9343183636665344
1761231195023826700,1.35382666015625,0.8089383244514465,1.0415252447128296,0.5360342264175415
1761231195040619000,1.370618896484375,0.5432119369506836,0.7759515643119812,0.0682641938328743
1761231195057405200,1.3874052734375,0.27840182185173035,0.38469240069389343,-0.15485434234142303
1761231195074196500,1.404196533203125,0.1371392458677292,0.10797043144702911,-0.144622340798378
1761231195090973000,1.420972900390625,0.08475755155086517,-0.04153883829712868,-0.04856378585100174
1761231195107762400,1.437762451171875,0.11988230794668198,0.11575896292924881,-0.020311269909143448
1761231195124553000,1.454552978515625,0.27320948243141174,0.39187005162239075,0.05390885844826698
1761231195141353700,1.471353759765625,0.4031710624694824,0.6911939978599548,0.33597588539123535
1761231195158143500,1.4881435546875,0.5885686874389648,0.8391761183738708,0.770606517791748
1761231195174933000,1.50493310546875,0.8878926634788513,0.5395467281341553,1.0997101068496704
1761231195191722200,1.52172216796875,1.0968085527420044,-0.8460483551025391,1.0716103315353394
1761231195208511700,1.53851171875,1.1468994617462158,-1.7762434482574463,1.2476922273635864
1761231195225301500,1.555301513671875,1.1203268766403198,-0.741895854473114,0.9250026941299438
1761231195242090800,1.5720908203125,0.9721920490264893,0.004123340360820293,0.7744244337081909
1761231195258880500,1.588880615234375,0.45326200127601624,1.34115469455719,0.34513887763023376
1761231195275670300,1.605670166015625,0.1059851199388504,0.7330383062362671,-0.3234531581401825
1761231195292459500,1.62245947265625,-0.5320636034011841,-0.3787364661693573,-0.8130616545677185
1761231195309236000,1.639236083984375,-0.9537133574485779,-0.6183483600616455,-1.298241376876831
1761231195326036700,1.65603662109375,-1.061989188194275,-0.43279802799224854,-1.5221234560012817
1761231195342828500,1.67282861328125,-1.114981770515442,-0.22342395782470703,-1.7188221216201782
1761231195359617500,1.689617431640625,-1.1004737615585327,-0.3130684494972229,-1.8752036094665527
1761231195376394000,1.70639404296875,-1.035416603088379,-0.2382374405860901,-1.824654459953308
1761231195393195800,1.72319580078125,-1.055269718170166,-0.02428189292550087,-1.730886697769165
1761231195409986600,1.739986572265625,-1.2353222370147705,-0.03985895588994026,-1.568701982498169
1761231195426776000,1.756776123046875,-1.4231632947921753,-0.1644754707813263,-1.3703234195709229
1761231195443565000,1.77356494140625,-1.532508134841919,-0.1976149082183838,-1.1746938228607178
1761231195460343300,1.79034326171875,-1.4465289115905762,-0.35842517018318176,-0.8924741148948669
1761231195477143600,1.8071435546875,-1.0908526182174683,-0.6015495657920837,-0.5621487498283386
1761231195493933600,1.82393359375,-0.6145304441452026,-0.7545713186264038,-0.16569720208644867
1761231195510723000,1.84072314453125,-0.14340060949325562,-0.99250328540802,0.16737708449363708
1761231195527512600,1.8575126953125,0.24908030033111572,-1.0068585872650146,0.38469240069389343
1761231195544302000,1.874302001953125,0.46273043751716614,-0.5742133259773254,0.5684100985527039
1761231195561090000,1.891090087890625,0.6204863786697388,0.03176499158143997,0.646295428276062
1761231195577882600,1.907882568359375,0.6110179424285889,0.4948008358478546,0.6539312601089478
1761231195594669300,1.92466943359375,0.4674646258354187,0.537408709526062,0.569631814956665
1761231195611448800,1.94144873046875,0.3197879493236542,0.3527746796607971,0.4634940028190613
1761231195628249600,1.95824951171875,0.16340644657611847,0.12049316614866257,0.31154128909111023
1761231195645039000,1.9750390625,0.016493361443281174,-0.03649919852614403,0.23167064785957336
1761231195661828900,1.991828857421875,0.01038470957428217,-0.010231993161141872,0.2330450862646103
1761231195678618400,2.008618408203125,0.13469578325748444,0.20311269164085388,0.2955060601234436
1761231195695389200,2.02538916015625,0.4017966091632843,0.5632177591323853,0.5436700582504272
1761231195712195600,2.042195556640625,0.8541423082351685,0.8998045325279236,1.1178834438323975
1761231195728988000,2.05898779296875,1.4524848461151123,1.3078625202178955,1.7791450023651123
1761231195745776000,2.075776123046875,1.9172005653381348,1.3132075071334839,1.5932892560958862
1761231195762565600,2.092565673828125,2.083050489425659,0.8170322775840759,0.9995282292366028
1761231195779353600,2.109353515625,1.8904752731323242,-0.31749722361564636,1.8892534971237183
1761231195796144600,2.12614453125,0.9440922141075134,-2.088395595550537,0.9683741331100464
1761231195812934100,2.14293408203125,0.3263547718524933,-1.374904990196228,-0.2591595947742462
1761231195829723600,2.1597236328125,0.04184427112340927,0.5218316316604614,0.34865134954452515
1761231195846513200,2.17651318359375,0.18066339194774628,0.9408851861953735,0.23121249675750732
1761231195863302400,2.193302490234375,-0.20525072515010834,0.6441574096679688,-0.03420845419168472
1761231195880092400,2.210092529296875,-0.8148942589759827,-0.25106561183929443,-0.6863071322441101
1761231195896881700,2.226881591796875,-1.2270755767822266,-0.4789183437824249,-1.0296133756637573
1761231195913671200,2.243671142578125,-1.335809588432312,-0.38667771220207214,-1.0682506561279297
1761231195930458000,2.2604580078125,-1.3142765760421753,0.04749477282166481,-1.1197160482406616
1761231195947239700,2.27723974609375,-1.1899654865264893,0.40286561846733093,-1.1142182350158691
1761231195964026600,2.294026611328125,-1.0476338863372803,0.4450153410434723,-1.2270755767822266
1761231195980829000,2.310828857421875,-1.0012081861495972,0.39187005162239075,-1.2663236856460571
1761231195997617200,2.3276171875,-0.9642508029937744,0.3585779070854187,-1.1997393369674683
1761231196014409700,2.34440966796875,-0.8332201838493347,0.2719877362251282,-1.0566442012786865
1761231196031184600,2.3611845703125,-0.6304129362106323,0.13958270847797394,-0.8816312551498413
1761231196047987500,2.377987548828125,-0.30634891986846924,-0.07131851464509964,-0.43478333950042725
1761231196064777000,2.39477685546875,0.07880161702632904,-0.3010038435459137,0.18555031716823578
1761231196081566200,2.411566162109375,0.29077184200286865,-0.598647952079773,0.5670356750488281
1761231196098355700,2.428355712890625,0.33292156457901,-0.7263187766075134,0.711963415145874
1761231196123526100,2.453526123046875,0.4908302128314972,-0.1241583600640297,0.5954409241676331
1761231196140317200,2.470317138671875,0.5299255847930908,0.17623461782932281,0.4063780903816223
1761231196157118000,2.487117919921875,0.4807509481906891,0.08903361111879349,0.2064724564552307
1761231196173904600,2.503904541015625,0.2915354371070862,-0.08231408894062042,0.05421429127454758
1761231196190698500,2.520698486328125,0.05864306539297104,-0.11789698898792267,-0.10247264802455902
1761231196207485000,2.53748486328125,-0.09376781433820724,-0.029474247246980667,-0.13561208546161652
1761231196224277800,2.55427783203125,-0.09285151958465576,0.1745547503232956,0.08002334833145142
1761231196241065500,2.5710654296875,0.1563815027475357,0.31871894001960754,0.4502076804637909
1761231196257855200,2.587855224609375,0.535881519317627,0.5755877494812012,0.7153232097625732
1761231196274645000,2.60464501953125,1.0251846313476562,0.9576839804649353,0.9582948684692383
1761231196291421200,2.621421142578125,1.5696182250976562,1.4891366958618164,1.3923145532608032
1761231196308223500,2.638223388671875,1.8680258989334106,1.5847371816635132,1.8112154006958008
1761231196325013000,2.655012939453125,1.6310101747512817,0.2724458873271942,1.6048957109451294
1761231196341789400,2.67178955078125,1.3758212327957153,-1.1331549882888794,1.574352502822876
1761231196358575400,2.688575439453125,0.9240863919258118,-2.132683277130127,0.7435756921768188
1761231196375380200,2.705380126953125,0.37430769205093384,-0.655458390712738,-0.25961771607398987
1761231196392171000,2.7221708984375,-0.33200526237487793,1.314734697341919,-0.05803219974040985
1761231196408960300,2.738960205078125,0.12568552792072296,1.8832975625991821,0.5879577994346619
1761231196425750000,2.75575,-0.19883663952350616,0.5919284224510193,0.28237244486808777
1761231196442539500,2.77253955078125,-0.5809328556060791,-1.1062769889831543,-0.709061861038208
1761231196459327500,2.789327392578125,-0.5511531829833984,-1.0847439765930176,-1.5777121782302856
1761231196476120000,2.8061201171875,-0.7502952218055725,-0.47510045766830444,-1.657124638557434
1761231196492906800,2.82290673828125,-1.225395679473877,0.04108068719506264,-1.553583025932312
1761231196509697500,2.839697509765625,-1.4234687089920044,0.25244006514549255,-1.4095715284347534
1761231196526488800,2.85648876953125,-1.4596625566482544,0.27641651034355164,-1.384678840637207
1761231196543267300,2.873267333984375,-1.5833626985549927,0.40591996908187866,-1.478141188621521
1761231196560066000,2.890066162109375,-1.6617062091827393,0.547182559967041,-1.4501941204071045
1761231196576855800,2.906855712890625,-1.5969544649124146,0.4063780903816223,-1.2435688972473145
1761231196593644300,2.923644287109375,-1.4821118116378784,0.022143865004181862,-0.9482156038284302
1761231196610434600,2.9404345703125,-1.073595643043518,-0.26450464129447937,-0.6035348773002625
1761231196627224600,2.957224609375,-0.4992296099662781,-0.3410155177116394,-0.1670716404914856
1761231196644013600,2.974013671875,-0.012828170321881771,-0.6259841322898865,0.31291571259498596
1761231196660803600,2.990803466796875,0.2444988191127777,-0.765566885471344,0.6585127115249634
1761231196677591000,3.007591064453125,0.4398229718208313,-0.7997753024101257,0.9367618560791016
1761231196694382300,3.02438232421875,0.6901249885559082,-0.2889392673969269,1.1107057332992554
1761231196711171600,3.041171630859375,0.8561276197433472,0.5655084848403931,1.1798862218856812
1761231196727961600,3.057961669921875,0.8278751373291016,1.250593900680542,1.1658363342285156
1761231196744750600,3.07475048828125,0.5855143666267395,1.5722143650054932,0.8607091307640076
1761231196761540400,3.091540283203125,0.3361285924911499,1.444390892982483,0.3695734739303589
1761231196778329600,3.10832958984375,0.14019356667995453,1.023352026939392,-0.08674286305904388
1761231196795119000,3.125119140625,0.038179077208042145,0.5827654600143433,-0.34406983852386475
1761231196811912200,3.141912109375,0.11224649101495743,0.3471241891384125,-0.2102903574705124
1761231196828695300,3.1586953125,0.32299500703811646,0.2669481039047241,0.23487769067287445
1761231196845491000,3.175490966796875,0.599564254283905,0.4105014503002167,0.7835873961448669
1761231196862277000,3.192277099609375,0.9353874325752258,0.5936083197593689,0.7617489695549011
1761231196879067000,3.20906689453125,1.299310326576233,0.5674937963485718,0.7533495426177979
1761231196895852800,3.225852783203125,1.5338826179504395,-0.026114489883184433,0.7870998978614807
1761231196912649000,3.24264892578125,1.2024881839752197,-1.1397218704223633,0.48090365529060364
1761231196929422800,3.2594228515625,0.45463645458221436,-1.605353832244873,-0.718224823474884
1761231196946223400,3.276223388671875,-0.19532416760921478,0.44974952936172485,-1.0758863687515259
1761231196963012000,3.29301220703125,0.827111542224884,0.8156577944755554,0.9699012637138367
1761231196979806000,3.309805908203125,0.5227479338645935,0.3066543638706207,0.8294022679328918
1761231196996593200,3.32659326171875,-0.4732678532600403,0.020922135561704636,-0.4521929919719696
1761231197013382700,3.343382568359375,-1.0302242040634155,-0.5273294448852539,-1.0314459800720215
1761231197030172700,3.360172607421875,-1.3978123664855957,-0.8518515825271606,-1.108567714691162
1761231197046961700,3.376961669921875,-1.5204435586929321,-0.7486153841018677,-1.3544409275054932
1761231197063751400,3.39375146484375,-1.3854423761367798,-0.6291912198066711,-1.3326025009155273
1761231197080541000,3.410541015625,-1.1365147829055786,-0.5894849896430969,-1.1760683059692383
1761231197097330200,3.427330078125,-1.05404794216156,-0.2649627923965454,-0.9298896193504333
1761231197114119000,3.444118896484375,-0.8915578126907349,0.26450464129447937,-0.7043276429176331
1761231197130906000,3.460906005859375,-0.7666358947753906,0.5273294448852539,-0.46868637204170227
1761231197147698200,3.4776982421875,-0.7031059265136719,0.36300668120384216,-0.20693060755729675
1761231197164492800,3.494492919921875,-0.5616905689239502,0.04489859566092491,0.018936822190880775
1761231197181277700,3.511277587890625,-0.2817615866661072,-0.5491678714752197,0.28909197449684143
1761231197198067200,3.528067138671875,-0.020005837082862854,-1.1711814403533936,0.5968153476715088
1761231197214853600,3.544853515625,0.05971207842230797,-1.2415835857391357,0.7221954464912415
1761231197231636700,3.56163671875,0.11682797968387604,-1.1917980909347534,0.720820963382721
1761231197248426200,3.57842626953125,0.19837848842144012,-0.8119926452636719,0.6583600044250488
1761231197265223400,3.595223388671875,0.3355177342891693,-0.02932153269648552,0.5422956347465515
1761231197282015500,3.612015380859375,0.4943426847457886,0.7339546084403992,0.3845396637916565
1761231197298804200,3.62880419921875,0.5082398653030396,1.044274091720581,0.23365595936775208
1761231197315580200,3.645580078125,0.4720461070537567,1.0033462047576904,0.04749477282166481
1761231197332386300,3.66238623046875,0.4834998548030853,0.959669291973114,-0.05406157299876213
1761231197349170000,3.679169921875,0.5972734689712524,1.1093312501907349,0.05696318298578262
1761231197365952500,3.695952392578125,0.9396634697914124,1.1435397863388062,0.5303837656974792
1761231197382751700,3.712751708984375,1.4708107709884644,1.072221279144287,1.4534010887145996
1761231197399541500,3.72954150390625,1.976454496383667,1.7194329500198364,1.8570303916931152
1761231197416328200,3.746328125,2.096642255783081,1.9845484495162964,1.7023286819458008
1761231197433101600,3.7631015625,1.5419765710830688,-0.34605515003204346,1.7247780561447144
1761231197449910300,3.77991015625,1.2305880784988403,-2.3609941005706787,1.8229745626449585
1761231197466696000,3.796696044921875,1.1009318828582764,-0.8367326855659485,0.7414376735687256
1761231197483495000,3.813494873046875,0.6046038866043091,0.7521278262138367,0.43127086758613586
1761231197500275500,3.830275390625,0.47708576917648315,1.1507173776626587,0.3358231782913208
1761231197517044700,3.847044677734375,0.11804971098899841,0.3176499307155609,-0.27779096364974976
1761231197533861600,3.863861572265625,-0.37980547547340393,-0.7812966704368591,-0.6466008424758911
1761231197550643700,3.880643798828125,-0.6630942225456238,-0.9434813857078552,-0.8817839622497559
1761231197567439600,3.897439697265625,-0.7669413089752197,-0.946382999420166,-1.2705997228622437
1761231197584224300,3.914224365234375,-1.0288498401641846,-0.9879218339920044,-1.4726433753967285
1761231197601015800,3.931015869140625,-1.2373075485229492,-1.0129673480987549,-1.623374342918396
1761231197617804800,3.9478046875,-1.247844934463501,-0.7913759350776672,-1.6630805730819702
1761231197634583800,3.964583740234375,-1.2731958627700806,-0.5013676285743713,-1.5609134435653687
1761231197651383600,3.981383544921875,-1.4625641107559204,-0.17256943881511688,-1.269836187362671
1761231197668173800,3.998173828125,-1.6018413305282593,-0.09758572280406952,-1.1279627084732056
1761231197684968000,4.014968017578125,-1.7678439617156982,-0.44623705744743347,-0.9938777685165405
1761231197701755100,4.031755126953125,-1.764026165008545,-0.9416487812995911,-0.7388415336608887
1761231197718540500,4.04854052734375,-1.3397802114486694,-1.314734697341919,-0.4550946056842804
1761231197735331600,4.06533154296875,-0.5128213763237,-0.8994990587234497,-0.15042556822299957
1761231197752121300,4.082121337890625,0.3013092875480652,0.027488935738801956,0.3666718602180481
1761231197768910300,4.098910400390625,0.7582364678382874,0.4150829315185547,0.7341073155403137
1761231197785701000,4.115701171875,0.8776606321334839,0.26603180170059204,0.9896016716957092
1761231197802489600,4.132489501953125,0.9239336848258972,0.22663100063800812,1.239292860031128
1761231197819279400,4.149279296875,0.9419541954994202,0.4260784983634949,1.3432927131652832
1761231197836068600,4.166068603515625,0.8057312369346619,0.6776022911071777,1.2560917139053345
1761231197852871400,4.182871337890625,0.5859724879264832,0.8591819405555725,0.9699012637138367
1761231197869647600,4.199647705078125,0.4648684561252594,0.9147707223892212,0.6177374720573425
1761231197886437000,4.21643701171875,0.4158465266227722,0.7086036801338196,0.4314235746860504
1761231197903226000,4.23322607421875,0.47769662737846375,0.5473352670669556,0.526107668876648
1761231197920022300,4.250022216796875,0.6178901791572571,0.4925101101398468,0.4960225820541382
1761231197936809000,4.26680908203125,0.7606799602508545,0.888961672782898,0.4021020531654358
1761231197953595100,4.28359521484375,0.8058840036392212,0.8921687006950378,0.7122688889503479
1761231197970371300,4.300371337890625,0.7602217793464661,-0.4050036668777466,0.7461718916893005
1761231197987174400,4.31717431640625,1.0291552543640137,-1.5447255373001099,0.5097670555114746
1761231198003947300,4.333947265625,1.1212431192398071,-1.6293302774429321,-0.060933809727430344
1761231198020756500,4.350756591796875,0.5960517525672913,0.0029016099870204926,0.48517972230911255
1761231198037541000,4.367541015625,0.16279558837413788,1.818698525428772,0.39064833521842957
1761231198054332000,4.384331787109375,-0.04917465150356293,1.7360789775848389,-0.1414152979850769
1761231198071121700,4.40112158203125,-0.4622722864151001,0.555429220199585,-0.599564254283905
1761231198087911200,4.4179111328125,-0.8677340745925903,-0.7232644557952881,-0.917672336101532
1761231198104700700,4.43470068359375,-1.0432051420211792,-0.8035932183265686,-1.2527319192886353
1761231198121490200,4.451490234375,-1.1374311447143555,-0.45524731278419495,-1.425148606300354
1761231198138279700,4.46827978515625,-1.166752576828003,-0.289244681596756,-1.4535537958145142
1761231198155052500,4.485052490234375,-1.2469286918640137,-0.03955352306365967,-1.4422528743743896
1761231198171863600,4.501863525390625,-1.4538593292236328,0.08552113175392151,-1.2580770254135132
1761231198188648000,4.51864794921875,-1.722181797027588,-0.06994406878948212,-1.1731667518615723
1761231198205437700,4.535437744140625,-1.9086484909057617,-0.4395175576210022,-1.107040524482727
1761231198222227000,4.55222705078125,-1.8632917404174805,-0.8804095387458801,-0.946382999420166
1761231198239017000,4.569016845703125,-1.4944818019866943,-1.0393872261047363,-0.7113525867462158
1761231198255806200,4.58580615234375,-0.8633053302764893,-0.6444628238677979,-0.4434881806373596
1761231198272583400,4.60258349609375,-0.10903944820165634,-0.024434609338641167,-0.10354165732860565
1761231198289372400,4.619372314453125,0.6047565937042236,0.2791654169559479,0.3010038435459137
1761231198306162000,4.636161865234375,0.7531968355178833,-0.08949175477027893,0.6698137521743774
1761231198322964200,4.652964111328125,0.8802568316459656,0.0065668015740811825,1.003804326057434
1761231198339753700,4.669753662109375,0.9260717034339905,0.3842342495918274,1.1982121467590332
1761231198356542000,4.6865419921875,0.9140071272850037,0.6597344875335693,1.26067316532135
1761231198373332700,4.703332763671875,0.7144069075584412,0.868803083896637,0.9208793640136719
1761231198390122800,4.720122802734375,0.47418415546417236,0.9097310900688171,0.4066835343837738
1761231198406911700,4.736911865234375,0.328340083360672,0.7211264371871948,0.13454307615756989
1761231198423701200,4.753701171875,0.3061962127685547,0.5868887901306152,0.08139779418706894
1761231198440490800,4.77049072265625,0.3966042697429657,0.5926920175552368,0.23029619455337524
1761231198457276000,4.78727587890625,0.6117815375328064,0.7374670505523682,0.5239696502685547
1761231198474069800,4.80406982421875,0.9135489463806152,1.1444560289382935,0.8388707041740417
1761231198490859500,4.820859619140625,1.1470521688461304,1.2860240936279297,1.0952813625335693
1761231198507648800,4.837648681640625,1.0453431606292725,0.0809396430850029,1.047023057937622
1761231198524438300,4.854438232421875,1.2218831777572632,-1.292285442352295,0.9639453291893005
1761231198541228000,4.87122802734375,1.2574660778045654,-2.026850938796997,0.8115344643592834
1761231198558017800,4.888017822265625,0.8484918475151062,-1.0626001358032227,0.9286679029464722
1761231198574806800,4.904806884765625,0.3654501438140869,1.5958853960037231,0.8184067010879517
1761231198591585500,4.92158544921875,0.36682456731796265,1.9254472255706787,0.15622878074645996
1761231198608385800,4.9383857421875,-0.36193767189979553,0.29336804151535034,-0.5349652171134949
1761231198625175600,4.955175537109375,-0.6808093190193176,-1.2327260971069336,-0.9581421613693237
1761231198641965000,4.971965087890625,-0.8090910315513611,-1.2403619289398193,-1.3706289529800415
1761231198658742300,4.9887421875,-0.8200865983963013,-0.6997461318969727,-1.7967073917388916
1761231198675542800,5.005542724609375,-0.9535606503486633,-0.36942076683044434,-1.9393444061279297
1761231198692332000,5.02233203125,-1.0374019145965576,-0.37537670135498047,-1.8558086156845093
1761231198709124600,5.03912451171875,-1.0739010572433472,-0.4634940028190613,-1.7846428155899048
1761231198725912600,5.05591259765625,-1.2893837690353394,-0.47937649488449097,-1.4993687868118286
1761231198742701800,5.072701904296875,-1.493260145187378,-0.5983424782752991,-1.1841622591018677
1761231198759493000,5.0894931640625,-1.6691893339157104,-0.8553640842437744,-0.7791585922241211
1761231198776279600,5.106279541015625,-1.7122552394866943,-1.3396275043487549,-0.39416080713272095
1761231198793070600,5.123070556640625,-1.2980886697769165,-1.8183931112289429,-0.23869559168815613
1761231198809860000,5.139860107421875,-0.5900958180427551,-1.7029396295547485,0.34437528252601624
1761231198826647000,5.15664697265625,0.078343465924263,-1.2890783548355103,0.8897252082824707
1761231198843428900,5.173428955078125,0.5871942043304443,-0.4156937897205353,0.8252789378166199
1761231198860228400,5.190228271484375,0.8628471493721008,0.3257438838481903,0.7609853744506836
1761231198877018400,5.207018310546875,0.9731083512306213,0.9868528246879578,0.7742717266082764
1761231198893807600,5.2238076171875,0.8813258409500122,1.1876747608184814,0.6362161636352539
1761231198910595300,5.24059521484375,0.7331910133361816,1.2705997228622437,0.45555275678634644
1761231198927388200,5.25738818359375,0.4847215712070465,1.018923282623291,0.15974126756191254
1761231198944175900,5.27417578125,0.23075434565544128,0.6438519954681396,-0.07360926270484924
1761231198960966100,5.290966064453125,0.07880161702632904,0.4421137273311615,0.01466076634824276
1761231198977755100,5.307755126953125,0.08048149943351746,0.3877467215061188,0.29565876722335815
1761231198994543400,5.32454345703125,0.28435778617858887,0.4424191415309906,0.5638286471366882
1761231199011334100,5.341334228515625,0.5797111392021179,0.7040221691131592,0.7626652717590332
1761231199028123600,5.35812353515625,0.9531024694442749,1.0882564783096313,1.0896308422088623
1761231199044901600,5.374901611328125,1.2495248317718506,1.2655600309371948,1.320385217666626
1761231199061704700,5.39170458984375,1.2851077318191528,0.5314527750015259,1.5610661506652832
1761231199078491000,5.408490966796875,1.109789490699768,-1.3513866662979126,1.1381946802139282
1761231199095283000,5.425282958984375,1.1436924934387207,-1.6129896640777588,0.7015787363052368
1761231199112068900,5.44206884765625,0.9097310900688171,-0.9100365042686462,-0.007177666760981083
1761231199128862500,5.458862548828125,0.15714508295059204,1.1898127794265747,0.05910121276974678
1761231199145649000,5.47564892578125,0.18310685455799103,2.2237021923065186,0.05345070734620094
1761231199162426400,5.49242626953125,-0.14905111491680145,1.7556266784667969,-0.5962044596672058
1761231199179242000,5.509241943359375,-0.6879869699478149,0.24663683772087097,-0.9133962392807007
1761231199196007000,5.5260068359375,-0.8494081497192383,-1.1542298793792725,-1.0349584817886353
1761231199212806000,5.542805908203125,-0.8614727258682251,-1.5473216772079468,-1.2108876705169678
1761231199229598500,5.559598388671875,-0.7791585922241211,-1.4143058061599731,-1.362687587738037
1761231199246388000,5.576387939453125,-0.6586654782295227,-1.0476338863372803,-1.455691933631897
1761231199263176700,5.5931767578125,-0.727998673915863,-0.2483167201280594,-1.0983357429504395
1761231199279954400,5.609954345703125,-0.9256135821342468,0.290313720703125,-0.65958172082901
1761231199296755700,5.626755615234375,-1.0978775024414062,0.33658674359321594,-0.4262312352657318
1761231199313542700,5.643542724609375,-1.3735305070877075,-0.021991148591041565,-0.37430769205093384
1761231199330336300,5.660336181640625,-1.480737328529358,-0.6429356932640076,-0.32100969552993774
1761231199347134700,5.677134765625,-1.3724614381790161,-1.4789047241210938,-0.30970868468284607
1761231199363913700,5.693913818359375,-0.9624181985855103,-1.8527542352676392,-0.20494529604911804
1761231199380701700,5.71070166015625,-0.4579962193965912,-1.5277739763259888,0.25641068816185
1761231199397494300,5.727494384765625,0.14645494520664215,-0.9104946255683899,0.6284276247024536
1761231199414282200,5.7442822265625,0.4691445231437683,-0.17180584371089935,0.4996877610683441
1761231199431071700,5.76107177734375,0.547182559967041,0.5334380865097046,0.2742784917354584
1761231199447860000,5.77785986328125,0.6852380633354187,0.8805622458457947,0.11957687139511108
1761231199464652800,5.79465283203125,0.6524040699005127,0.9747881889343262,0.054367005825042725
1761231199481440800,5.811440673828125,0.5306891798973083,0.7701483368873596,0.08659014850854874
1761231199498229800,5.828229736328125,0.3703370690345764,0.498924195766449,0.2499966025352478
1761231199515019500,5.84501953125,0.28985556960105896,0.3309362530708313,0.4063780903816223
1761231199531808800,5.861808837890625,0.3399465084075928,0.3066543638706207,0.5476406812667847
1761231199548598300,5.878598388671875,0.5242751240730286,0.42180246114730835,0.8048149347305298
1761231199565387800,5.8953876953125,0.821461021900177,0.5923865437507629,1.2006556987762451
1761231199582184400,5.912184326171875,1.238071084022522,0.8651378750801086,1.6534595489501953
1761231199598967000,5.928967041015625,1.6392568349838257,1.4953981637954712,1.828472375869751
1761231199615766000,5.94576611328125,1.9026925563812256,1.9326249361038208,1.6019941568374634
1761231199632542700,5.962542724609375,1.7258470058441162,0.6524040699005127,1.8342756032943726
1761231199649335600,5.97933544921875,1.4321736097335815,-2.515695810317993,1.6635388135910034
1761231199666124800,5.996124755859375,1.5024230480194092,-1.3726142644882202,0.99250328540802
1761231199682914300,6.012914306640625,0.7325801253318787,1.5170838832855225,0.5965099334716797
1761231199699691300,6.029691162109375,0.2626720666885376,1.712866187095642,0.3911064863204956
1761231199716493800,6.046493896484375,-0.20723603665828705,0.6556110978126526,-0.5439754724502563
1761231199733283000,6.063282958984375,-0.8967501521110535,-0.5056437253952026,-0.9575312733650208
1761231199750072600,6.080072509765625,-1.0013608932495117,-0.26740625500679016,-1.2324206829071045
1761231199766860500,6.096860595703125,-1.0615310668945312,-0.08979719132184982,-1.60627019405365
1761231199783651600,6.113651611328125,-1.1456778049468994,-0.26343563199043274,-1.7791450023651123
1761231199800439600,6.130439453125,-1.252121090888977,-0.5071708559989929,-1.732261061668396
1761231199817219000,6.147218994140625,-1.1838568449020386,-0.4723515510559082,-1.7209601402282715
1761231199834007800,6.1640078125,-1.2994630336761475,-0.34697145223617554,-1.707215666770935
1761231199850807800,6.180807861328125,-1.5505287647247314,-0.33429601788520813,-1.481042742729187
1761231199867586000,6.1975859375,-1.833817481994629,-0.40072759985923767,-1.2038626670837402
1761231199884388600,6.214388671875,-1.943315029144287,-0.5868887901306152,-0.9909761548042297
1761231199901178000,6.23117822265625,-1.6152803897857666,-1.1533136367797852,-0.6600399017333984
1761231199917967600,6.247967529296875,-0.907898485660553,-1.310611367225647,-0.3142901659011841
1761231199934757400,6.26475732421875,-0.13897185027599335,-0.9251554012298584,0.11407908797264099
1761231199951546400,6.28154638671875,0.45921793580055237,-0.22357667982578278,0.508087158203125
1761231199968323600,6.298323486328125,0.6973026990890503,0.026572637259960175,0.7122688889503479
1761231199985125600,6.315125732421875,0.8668177723884583,0.30512720346450806,0.9373727440834045
1761231200001913600,6.33191357421875,0.9378308653831482,0.5148066878318787,1.0816895961761475
1761231200018706700,6.348706787109375,0.8106181621551514,0.6647741198539734,1.0178542137145996
1761231200035494100,6.365494140625,0.578489363193512,0.6589708924293518,0.8084801435470581
1761231200052283600,6.38228369140625,0.42149701714515686,0.44486260414123535,0.5009095072746277
1761231200069073200,6.3990732421875,0.39385536313056946,0.2768746614456177,0.24678955972194672
1761231200085857000,6.41585693359375,0.45173484086990356,0.37140607833862305,0.20983220636844635
1761231200102654000,6.432654052734375,0.584139883518219,0.4856378734111786,0.3689626157283783
1761231200119441700,6.449441650390625,0.75105881690979,0.5135849714279175,0.4781547784805298
1761231200136231200,6.466231201171875,0.9550877809524536,0.7275404930114746,0.7353290319442749
1761231200153018600,6.4830185546875,1.1403326988220215,1.0700831413269043,1.3912456035614014
1761231200169798700,6.499798583984375,1.1965322494506836,0.4879286289215088,2.219426155090332
1761231200186599700,6.516599609375,1.3161091804504395,-0.7111998796463013,1.6116151809692383
1761231200203391200,6.53339111328125,1.2370021343231201,-1.6759088039398193,1.012050986289978
1761231200220179000,6.550178955078125,0.7325801253318787,-0.5711590051651001,1.0077749490737915
1761231200236968200,6.56696826171875,0.014355333521962166,1.8127425909042358,0.6010913848876953
1761231200253758000,6.583758056640625,-0.1313360333442688,2.4808764457702637,0.22311852872371674
1761231200270546000,6.6005458984375,-0.4963280260562897,1.1759155988693237,-0.26343563199043274
1761231200287338200,6.617338134765625,-0.4260784983634949,-1.0621418952941895,-0.42638394236564636
1761231200304126200,6.634126220703125,-0.4723515510559082,-1.1039862632751465,-0.9095783233642578
1761231200320916200,6.650916259765625,-0.6646214127540588,-0.607200026512146,-1.4581353664398193
1761231200337705500,6.66770556640625,-0.7867944240570068,-0.16019940376281738,-1.7733417749404907
1761231200354493200,6.6844931640625,-0.983951210975647,-0.09987647086381912,-1.7809776067733765
1761231200371273000,6.70127294921875,-1.0800096988677979,-0.21639901399612427,-1.8211419582366943
1761231200388074000,6.718073974609375,-1.1946996450424194,-0.10461067408323288,-1.568701982498169
1761231200404862200,6.7348623046875,-1.2800681591033936,0.030237829312682152,-1.3764320611953735
1761231200421653000,6.751653076171875,-1.422247052192688,-0.1463022232055664,-1.1872166395187378
1761231200438442500,6.7684423828125,-1.589624047279358,-0.21807889640331268,-0.9633345007896423
1761231200455232000,6.78523193359375,-1.5490015745162964,-0.4639521539211273,-0.8130616545677185
1761231200472021200,6.802021240234375,-1.2148582935333252,-0.7168503403663635,-0.6012440919876099
1761231200488812300,6.818812255859375,-0.6288857460021973,-0.8458956480026245,-0.24190263450145721
1761231200505600300,6.835600341796875,-0.07895433157682419,-0.813825249671936,0.347276896238327
1761231200522390000,6.85239013671875,0.394008070230484,-0.4680754840373993,0.645684540271759
1761231200539180000,6.869179931640625,0.5309945940971375,0.0010690141934901476,0.5482515692710876
1761231200555968500,6.885968505859375,0.43249258399009705,0.021991148591041565,0.47189339995384216
1761231200572758500,6.902758544921875,0.3822489380836487,-0.026114489883184433,0.46105054020881653
1761231200589548000,6.919548095703125,0.3767511546611786,-0.01924225501716137,0.3868304193019867
1761231200606337500,6.936337646484375,0.328340083360672,0.24098633229732513,0.20143280923366547
1761231200623127000,6.953126953125,0.25274550914764404,0.5642867684364319,0.06185010448098183
1761231200639904500,6.969904541015625,0.2912299931049347,0.7336491346359253,0.04841107130050659
1761231200656704800,6.986704833984375,0.4242459237575531,0.9618073105812073,0.14508049190044403
1761231200673495800,7.003495849609375,0.6322455406188965,1.1717922687530518,0.3767511546611786
1761231200690285000,7.02028515625,0.9468411207199097,1.2341004610061646,0.7826710939407349
1761231200707074600,7.037074462890625,1.4763085842132568,1.8440494537353516,1.612226128578186
1761231200723862800,7.05386279296875,1.705383062362671,2.2710442543029785,2.0332648754119873
1761231200740654000,7.070654052734375,1.3599387407302856,0.1823432743549347,1.7455474138259888
1761231200757430300,7.08743017578125,0.9717338681221008,-1.806328535079956,1.4191926717758179
1761231200774228000,7.10422802734375,0.7257078886032104,-1.7647897005081177,1.015868902206421
1761231200791022000,7.12102197265625,0.28298333287239075,0.052839845418930054,0.5335907936096191
1761231200807812000,7.13781201171875,0.02733621932566166,1.7156150341033936,0.4564690589904785
1761231200824600800,7.154600830078125,-0.23396138846874237,2.1540634632110596,-0.294437050819397
1761231200841391600,7.1713916015625,-0.7976372838020325,0.6403394937515259,-1.0598511695861816
1761231200858182000,7.188181884765625,-0.9831876158714294,-0.8260425329208374,-1.4509576559066772
1761231200874969900,7.204969970703125,-0.922711968421936,-0.9388998746871948,-1.7429512739181519
1761231200891759000,7.221759033203125,-0.8524624705314636,-0.7612907886505127,-1.882992148399353
1761231200908547600,7.238547607421875,-0.8704829812049866,-0.7611380815505981,-1.8639025688171387
1761231200925339400,7.25533935546875,-0.8797986507415771,-0.6989825367927551,-1.5260940790176392
1761231200942127600,7.272127685546875,-0.9772316813468933,-0.5097670555114746,-1.105513334274292
1761231200958917400,7.28891748046875,-1.1400272846221924,-0.36972618103027344,-0.7764097452163696
1761231200975705600,7.30570556640625,-1.3283264636993408,-0.347276896238327,-0.6140722632408142
1761231200992496400,7.322496337890625,-1.483791708946228,-0.5331326723098755,-0.5444336533546448
1761231201009285600,7.33928564453125,-1.3791810274124146,-1.0963504314422607,-0.304669052362442
1761231201026075100,7.3560751953125,-0.9447031021118164,-1.8610010147094727,-0.16920967400074005
1761231201042863600,7.372863525390625,-0.2695443034172058,-2.1502456665039062,0.13118331134319305
1761231201059654100,7.389654052734375,0.3032945990562439,-1.7539467811584473,0.5884159207344055
1761231201076444000,7.40644384765625,0.5827654600143433,-0.7400632500648499,0.5612324476242065
1761231201093231600,7.423231689453125,0.7066183686256409,0.16737708449363708,0.4550946056842804
1761231201110024400,7.4400244140625,0.7238753437995911,0.7064656615257263,0.3462078869342804
1761231201126812200,7.456812255859375,0.6944010853767395,0.8594874143600464,0.23518311977386475
1761231201143601700,7.4736015625,0.6050620079040527,0.8080220222473145,0.16798794269561768
1761231201160391400,7.490391357421875,0.41859540343284607,0.6131559610366821,0.16081027686595917
1761231201177167400,7.50716748046875,0.2715296149253845,0.4283692538738251,0.2255619913339615
1761231201193972200,7.52397216796875,0.2571742534637451,0.42638394236564636,0.41233405470848083
1761231201210760000,7.540760009765625,0.4011857509613037,0.5821545720100403,0.6730207800865173
1761231201227549400,7.557549560546875,0.7498371005058289,0.708450973033905,1.165683627128601
1761231201244339000,7.5743388671875,1.23394775390625,1.032820463180542,1.972331166267395
1761231201261128700,7.591128662109375,1.8579466342926025,1.656819224357605,2.049452781677246
1761231201277919000,7.6079189453125,2.2543981075286865,2.0341813564300537,2.0977113246917725
1761231201294705000,7.624704833984375,1.820225715637207,-0.20463985204696655,2.0647244453430176
1761231201311496700,7.64149658203125,1.5280793905258179,-2.972623109817505,2.227520227432251
1761231201328286500,7.658286376953125,1.1316279172897339,-1.6702582836151123,0.8533787727355957
1761231201345076000,7.675075927734375,0.31352660059928894,1.3724614381790161,0.2480112910270691
1761231201361864700,7.69186474609375,0.07971791177988052,2.2957842350006104,-0.14737124741077423
1761231201378645200,7.708645263671875,-0.4141666293144226,1.6769778728485107,-0.8718574047088623
1761231201395444500,7.725444580078125,-0.8611672520637512,-0.27030786871910095,-1.191950798034668
1761231201412234200,7.742234130859375,-0.5887213945388794,-0.8110763430595398,-1.0946705341339111
1761231201429023500,7.7590234375,-0.6340781450271606,-0.5407684445381165,-1.3950635194778442
1761231201445813000,7.77581298828125,-0.7472409009933472,-0.5134322643280029,-1.5688546895980835
1761231201462587000,7.7925869140625,-0.8626944422721863,-0.7021896243095398,-1.595274567604065
1761231201479392000,7.80939208984375,-0.946382999420166,-0.556345522403717,-1.5522085428237915
1761231201496188000,7.82618798828125,-1.2276864051818848,-0.25564709305763245,-1.391703724861145
1761231201512971000,7.842970947265625,-1.4214833974838257,-0.10277807712554932,-1.2808316946029663
1761231201529760500,7.859760498046875,-1.5969544649124146,-0.3943135142326355,-1.2356276512145996
1761231201546550000,7.876550048828125,-1.6806429624557495,-0.9434813857078552,-1.1705704927444458
1761231201563339800,7.89333984375,-1.4758504629135132,-1.7415767908096313,-0.9818131923675537
1761231201580129000,7.91012890625,-0.99250328540802,-1.9469802379608154,-0.6276640295982361
1761231201596918500,7.92691845703125,-0.33918291330337524,-1.2014192342758179,-0.13148874044418335
1761231201613707800,7.943707763671875,0.2243402600288391,-0.0630718395113945,0.2561052441596985
1761231201630497800,7.960497802734375,0.5348125100135803,0.6203336715698242,0.4366159439086914
1761231201647297000,7.977297119140625,0.6817256212234497,0.7440338730812073,0.5308418869972229
1761231201664074000,7.994073974609375,0.7218900322914124,0.679740309715271,0.7328855991363525
1761231201680866300,8.0108662109375,0.5978843569755554,0.48456886410713196,0.8349000811576843
1761231201697655800,8.02765576171875,0.34574973583221436,0.4366159439086914,0.7347181439399719
1761231201714445000,8.044445068359375,0.24617868661880493,0.43188172578811646,0.5526803135871887
1761231201731234600,8.061234619140626,0.2483167201280594,0.45952337980270386,0.4205807149410248
1761231201748022800,8.078022705078125,0.3520110845565796,0.4294382631778717,0.39767327904701233
1761231201764813800,8.094813720703126,0.5166392922401428,0.3124575614929199,0.4265366494655609
1761231201781603000,8.11160302734375,0.7225008606910706,0.2886338233947754,0.5247332453727722
1761231201798392600,8.128392578125,0.9509644508361816,0.7701483368873596,0.8339837789535522
1761231201815180800,8.145180908203125,1.2495248317718506,1.6649131774902344,1.3326025009155273
1761231201831960300,8.161960205078126,1.2541064023971558,1.7547104358673096,1.7275269031524658
1761231201848761300,8.17876123046875,1.0261008739471436,0.1661553531885147,1.839468002319336
1761231201865550600,8.195550537109375,0.75105881690979,-1.2800681591033936,1.701259732246399
1761231201882327300,8.212327392578125,0.432645320892334,-1.4202617406845093,0.6411030888557434
1761231201899129600,8.229129638671875,-0.07162395119667053,0.28955012559890747,0.4763221740722656
1761231201915919400,8.24591943359375,-0.18112154304981232,1.5488488674163818,0.39904773235321045
1761231201932708600,8.26270849609375,-0.22311852872371674,2.0867156982421875,-0.07223481684923172
1761231201949494800,8.279494873046875,-0.2594650089740753,1.4911220073699951,-0.5250386595726013
1761231201966288000,8.296287841796875,-0.31383201479911804,-0.23105977475643158,-0.6870706677436829
1761231201983074000,8.313073974609376,-0.5256495475769043,-1.0603092908859253,-1.0167851448059082
1761231201999870000,8.329869873046874,-0.6960809230804443,-1.1065824031829834,-1.3417655229568481
1761231202016653300,8.3466533203125,-0.7854200005531311,-1.100015640258789,-1.4602733850479126
1761231202033454600,8.36345458984375,-0.8064948320388794,-0.8304712772369385,-1.497994303703308
1761231202050235400,8.3802353515625,-0.9541715383529663,-0.48517972230911255,-1.5028811693191528
1761231202067023600,8.397023681640626,-1.1146763563156128,-0.2223549485206604,-1.430799126625061
1761231202083814700,8.413814697265625,-1.212720274925232,-0.3436116874217987,-1.2331842184066772
1761231202100604000,8.43060400390625,-1.2990049123764038,-0.6212499737739563,-0.9836457371711731
1761231202117393400,8.447393310546875,-1.3046554327011108,-1.017701506614685,-0.7299839854240417
1761231202134167600,8.46416748046875,-1.098183035850525,-1.4023939371109009,-0.5050328373908997
1761231202150975200,8.480975341796874,-0.6641632318496704,-1.4146112203598022,-0.24404066801071167
1761231202167762000,8.497761962890625,-0.1033889427781105,-1.0497719049453735,0.18646661937236786
1761231202184548400,8.51454833984375,0.32650747895240784,-0.5062545537948608,0.5035057067871094
1761231202201328400,8.531328369140626,0.44028112292289734,-0.12538009881973267,0.44394633173942566
1761231202218133200,8.54813330078125,0.5061018466949463,0.048105638474226,0.40133845806121826
1761231202234920000,8.564919921875,0.5207626223564148,0.13209961354732513,0.36331209540367126
1761231202251709400,8.58170947265625,0.470060795545578,0.32162055373191833,0.28237244486808777
1761231202268499200,8.598499267578125,0.36132678389549255,0.40301835536956787,0.2860376536846161
1761231202285289000,8.6152890625,0.24388794600963593,0.4216497242450714,0.3269656300544739
1761231202302078000,8.632077880859375,0.24098633229732513,0.4709770977497101,0.3399465084075928
1761231202318867500,8.648867431640625,0.3254384696483612,0.5911648273468018,0.37751471996307373
1761231202335657000,8.665656982421876,0.49877145886421204,0.7011205554008484,0.4862487316131592
1761231202352446500,8.682446533203125,0.8054258227348328,0.7612907886505127,0.7457137703895569
1761231202369236200,8.699236328125,1.053742527961731,0.889267086982727,1.1850786209106445
1761231202386024200,8.716024169921875,1.176526427268982,0.8762862086296082,1.1826350688934326
1761231202402815000,8.73281494140625,1.2933543920516968,0.47219884395599365,1.1911872625350952
1761231202419604700,8.749604736328125,1.4282029867172241,-0.5647448897361755,1.7340936660766602
1761231202436394000,8.76639404296875,1.4656184911727905,-1.5051720142364502,1.4123204946517944
1761231202453183200,8.783183349609375,1.1624765396118164,-0.7664831876754761,0.5262604355812073
1761231202469970400,8.799970458984374,0.4056145250797272,1.8805487155914307,0.5412266254425049
1761231202486765800,8.816765869140625,0.07467827945947647,1.8354973793029785,-0.1290452778339386
1761231202503552000,8.833552001953125,-0.7147123217582703,0.06001751124858856,-1.0378600358963013
1761231202520341800,8.850341796875,-0.874453604221344,-1.143081545829773,-1.4703526496887207
1761231202537129500,8.86712939453125,-0.755793035030365,-1.158505916595459,-1.7537940740585327
1761231202553922800,8.8839228515625,-0.670577347278595,-0.8759807348251343,-1.9327776432037354
1761231202570710000,8.9007099609375,-0.8272642493247986,-0.5212207436561584,-1.9772180318832397
1761231202587500000,8.9175,-1.0212140083312988,-0.2922990322113037,-1.8348864316940308
1761231202604289300,8.934289306640625,-1.256244421005249,-0.10384709388017654,-1.337336778640747
1761231202621075700,8.95107568359375,-1.492038369178772,0.0403171069920063,-1.023046612739563
1761231202637871400,8.967871337890625,-1.7218763828277588,-0.0757472887635231,-1.0803152322769165
1761231202654657800,8.98465771484375,-1.9126191139221191,-0.5120577812194824,-1.0739010572433472
1761231202671447300,9.001447265625,-1.802205204963684,-1.1808024644851685,-0.8080220222473145
1761231202688236800,9.01823681640625,-1.292590856552124,-1.7011070251464844,-0.5949827432632446
1761231202705025000,9.03502490234375,-0.4966334402561188,-1.4892895221710205,-0.13118331134319305
1761231202721815800,9.05181591796875,0.2695443034172058,-0.8516988754272461,0.40851613879203796
1761231202738605600,9.06860546875,0.6801984310150146,0.033597588539123535,0.5978843569755554
1761231202755394800,9.085394775390625,0.7082982659339905,0.7006624341011047,0.7562511563301086
1761231202772184000,9.10218408203125,0.7391469478607178,0.9732610583305359,0.897513747215271
1761231202788974000,9.11897412109375,0.669355571269989,0.9958630800247192,0.8494081497192383
1761231202805763300,9.135763427734375,0.46563202142715454,0.9068294763565063,0.5978843569755554
1761231202822552800,9.152552734375,0.2373211532831192,0.7156286239624023,0.3579670190811157
1761231202839344000,9.16934423828125,0.10323622822761536,0.41141775250434875,0.28619036078453064
1761231202856132000,9.186132080078124,0.15577064454555511,0.15515977144241333,0.4697553813457489
1761231202872908300,9.202908203125,0.38759398460388184,0.235030397772789,0.7974845767021179
1761231202889710800,9.2197109375,0.7301366925239563,0.39904773235321045,1.1731667518615723
1761231202906500400,9.236500244140625,1.1624765396118164,0.656680166721344,1.5134186744689941
1761231202923290000,9.2532900390625,1.6467399597167969,1.422247052192688,1.7821993827819824
1761231202940079400,9.270079345703126,1.9162843227386475,2.250580310821533,1.8197675943374634
1761231202956869000,9.286869140625,1.5048664808273315,1.0283915996551514,1.8823812007904053
1761231202973659000,9.303658935546874,1.2484558820724487,-1.3435981273651123,2.2537872791290283
1761231202990447900,9.32044775390625,1.15178644657135,-2.643519401550293,2.1148154735565186
1761231203007224300,9.337224365234375,0.6108652353286743,-0.888961672782898,1.0399980545043945
1761231203024026600,9.354026611328125,0.08857546001672745,1.6174184083938599,0.5009095072746277
1761231203040817000,9.37081689453125,-0.07895433157682419,2.202627420425415,-0.11942415684461594
1761231203057606000,9.38760595703125,-0.494189977645874,0.8593347072601318,-0.7060074806213379
1761231203074395600,9.404395751953125,-0.48747047781944275,-0.28985556960105896,-0.9613491892814636
1761231203091184600,9.4211845703125,-0.3988949954509735,-0.34758231043815613,-1.224173903465271
1761231203107971000,9.43797119140625,-0.5687155723571777,-0.1999056488275528,-1.5361733436584473
1761231203124759600,9.454759521484375,-0.737772524356842,-0.5516113042831421,-1.6774359941482544
1761231203141553700,9.4715537109375,-0.8542950749397278,-0.6163630485534668,-1.6855299472808838
1761231203158343400,9.488343505859374,-0.8411614298820496,-0.3625485301017761,-1.7846428155899048
1761231203175132400,9.50513232421875,-1.0699304342269897,-0.2802344262599945,-1.7046194076538086
1761231203191916800,9.521916748046875,-1.3048081398010254,-0.29856038093566895,-1.4590516090393066
1761231203208713200,9.538713134765626,-1.4862351417541504,-0.5717698931694031,-1.33168625831604
1761231203225483800,9.55548388671875,-1.565953016281128,-1.135140299797058,-1.2651019096374512
1761231203242290700,9.572290771484376,-1.350928544998169,-1.6798794269561768,-1.003498911857605
1761231203259073300,9.5890732421875,-0.8156577944755554,-1.479362964630127,-0.4738787114620209
1761231203275865000,9.605864990234375,-0.11316278576850891,-0.7869471311569214,0.10201449692249298
1761231203292659500,9.622659423828125,0.41111230850219727,-0.1007927656173706,0.52702397108078
1761231203309445600,9.639445556640625,0.6473644375801086,0.12431107461452484,0.6831000447273254
1761231203326235100,9.656235107421875,0.7017314434051514,0.1014036312699318,0.679740309715271
1761231203343008500,9.673008544921874,0.7498371005058289,0.1589776873588562,0.7681630253791809
1761231203359820500,9.689820556640624,0.627358615398407,0.35323283076286316,0.7716755270957947
1761231203376611800,9.70661181640625,0.35781431198120117,0.670577347278595,0.7124215960502625
1761231203393396500,9.723396484375,0.2151772826910019,0.7698429226875305,0.5855143666267395
1761231203410185500,9.740185546875,0.22372940182685852,0.60429847240448,0.3827070891857147
1761231203426975500,9.7569755859375,0.31383201479911804,0.5239696502685547,0.26404649019241333
1761231203443764700,9.7737646484375,0.4787656366825104,0.6597344875335693,0.29733866453170776
1761231203460554500,9.790554443359374,0.608727216720581,0.8158105611801147,0.3712533414363861
1761231203477344000,9.807343994140625,0.7376197576522827,0.9573785662651062,0.6485861539840698
1761231203494133500,9.824133544921875,0.8628471493721008,1.345583438873291,1.2835805416107178
1761231203510927400,9.84092724609375,0.8871290683746338,1.389107584953308,1.7626516819000244
1761231203527714000,9.857714111328125,0.8260425329208374,0.03588833287358284,1.548237919807434
1761231203544501800,9.874501708984376,0.8191702961921692,-1.0535898208618164,1.0268645286560059
1761231203561291500,9.89129150390625,0.722348153591156,-1.1252137422561646,0.7802276611328125
1761231203578081000,9.9080810546875,0.18127426505088806,0.8816312551498413,0.5119050741195679
1761231203594871600,9.92487158203125,0.25045475363731384,1.662164330482483,0.1466076523065567
1761231203611659000,9.941658935546876,-0.14935655891895294,1.3859004974365234,-0.5410739183425903
1761231203628428300,9.95842822265625,-0.5522221922874451,-0.0354301854968071,-0.8061894178390503
1761231203645239000,9.975239013671874,-0.6319400668144226,-1.3112221956253052,-0.9757044911384583
1761231203662026800,9.99202685546875,-0.7044803500175476,-1.2290608882904053,-1.3515393733978271
1761231203678818000,10.008818115234375,-0.812908947467804,-0.9372199773788452,-1.7073683738708496
1761231203695594500,10.025594482421875,-0.926224410533905,-0.8918632864952087,-1.904219627380371
1761231203712395500,10.0423955078125,-0.9818131923675537,-0.8151996731758118,-1.8695530891418457
1761231203729188000,10.05918798828125,-1.1365147829055786,-0.4888449013233185,-1.6786576509475708
1761231203745976000,10.07597607421875,-1.3503175973892212,-0.2353358417749405,-1.5128077268600464
1761231203762765800,10.092765869140624,-1.5558737516403198,-0.23976461589336395,-1.3504703044891357
1761231203779552800,10.109552734375,-1.6852245330810547,-0.636521577835083,-1.183398723602295
1761231203796345600,10.126345703125,-1.7043139934539795,-1.0323622226715088,-1.0396926403045654
1761231203813140700,10.143140625,-1.3868168592453003,-1.3437508344650269,-0.7950411438941956
1761231203829923600,10.159923583984375,-0.6792821288108826,-1.2409727573394775,-0.351400226354599
1761231203846713000,10.176713134765626,0.010231993161141872,-1.00502610206604,0.13607023656368256
1761231203863502600,10.193502685546875,0.38179078698158264,-0.5112941861152649,0.3568980097770691
1761231203880279300,10.210279296875,0.49525898694992065,0.27320948243141174,0.5074763298034668
1761231203897081900,10.227081787109375,0.5490151643753052,0.8657487630844116,0.7363980412483215
1761231203913871000,10.24387109375,0.5413793325424194,1.178359031677246,0.9034696817398071
1761231203930660600,10.26066064453125,0.43020185828208923,1.178053617477417,0.8631525635719299
1761231203947450000,10.2774501953125,0.24495697021484375,1.0485502481460571,0.6817256212234497
1761231203964238300,10.29423828125,0.12202033400535583,0.8741481900215149,0.46899178624153137
1761231203981030700,10.31103076171875,0.11988230794668198,0.7744244337081909,0.32299500703811646
1761231203997819100,10.327819091796876,0.23029619455337524,0.7515169382095337,0.2730567753314972
1761231204014608100,10.344608154296875,0.42180246114730835,0.674089789390564,0.37140607833862305
1761231204031397600,10.361397705078126,0.66584312915802,0.49266281723976135,0.7837401032447815
1761231204048187100,10.378187255859375,1.0320568084716797,0.34345898032188416,1.333213448524475
1761231204064964000,10.394964111328125,1.5792393684387207,0.8144360780715942,1.9879082441329956
1761231204081766100,10.41176611328125,1.9468275308609009,1.5285375118255615,1.8538233041763306
1761231204098555600,10.4285556640625,1.897194743156433,1.7881553173065186,1.5963436365127563
1761231204115344000,10.44534375,1.4164438247680664,-0.1944078654050827,2.0861048698425293
1761231204132134700,10.462134765625,1.0813841819763184,-2.570826292037964,1.3501648902893066
1761231204148924200,10.478924072265626,0.4363104999065399,0.03191770985722542,0.21059578657150269
1761231204165714000,10.4957138671875,0.34376442432403564,2.543184757232666,0.3425426781177521
1761231204182506000,10.512506103515625,0.12461651116609573,1.9536998271942139,-0.5193881988525391
1761231204199293000,10.52929296875,-0.526107668876648,0.14385876059532166,-1.2205088138580322
1761231204216082400,10.54608251953125,-0.7089090943336487,-1.2594513893127441,-1.2915217876434326
1761231204232872000,10.562871826171875,-0.7783950567245483,-1.1578950881958008,-1.4885258674621582
1761231204249648400,10.5796484375,-0.88987797498703,-0.7854200005531311,-1.6927075386047363
1761231204266451000,10.596450927734375,-1.0719157457351685,-0.7052439451217651,-1.6751452684402466
1761231204283240200,10.613240234375,-1.1812607049942017,-0.6916521787643433,-1.5351043939590454
1761231204300030700,10.63003076171875,-1.232573390007019,-0.3703370690345764,-1.345278024673462
1761231204316819700,10.64681982421875,-1.407128095626831,-0.2028072625398636,-1.1733194589614868
1761231204333608700,10.663608642578126,-1.6059647798538208,-0.4337143301963806,-1.1172724962234497
1761231204350384000,10.680384033203126,-1.71989107131958,-0.8026769161224365,-1.046717643737793
1761231204367176700,10.6971767578125,-1.6371188163757324,-1.4297300577163696,-0.9450085163116455
1761231204383975700,10.7139755859375,-1.2977832555770874,-1.9234619140625,-0.7220427393913269
1761231204400768500,10.7307685546875,-0.7012733221054077,-1.6785049438476562,-0.3104722499847412
1761231204417556500,10.747556396484375,-0.020005837082862854,-1.1844676733016968,0.2243402600288391
1761231204434344700,10.7643447265625,0.5366451144218445,-0.551916778087616,0.44486260414123535
1761231204451135500,10.781135498046876,0.6727153658866882,0.0529925599694252,0.437226802110672
1761231204467922700,10.797922607421874,0.8445212244987488,0.6418666839599609,0.5952881574630737
1761231204484717300,10.81471728515625,0.8436049222946167,1.2991576194763184,0.6637051105499268
1761231204501504000,10.83150390625,0.6536257863044739,1.5082262754440308,0.535881519317627
1761231204518293800,10.848293701171874,0.4260784983634949,1.0726794004440308,0.36651915311813354
1761231204535083000,10.8650830078125,0.34147366881370544,0.44806966185569763,0.2587014436721802
1761231204551872500,10.88187255859375,0.3124575614929199,0.12400564551353455,0.31123584508895874
1761231204568647400,10.8986474609375,0.3819434940814972,0.12782354652881622,0.5736024379730225
1761231204585453000,10.915453125,0.654542088508606,0.048105638474226,1.0995573997497559
1761231204602241300,10.9322412109375,1.0587822198867798,0.0007635815418325365,1.7099645137786865
1761231204619030500,10.949030517578125,1.560455322265625,0.661719799041748,1.7336355447769165
1761231204635817500,10.9658173828125,1.9320141077041626,1.6255123615264893,1.6630805730819702
1761231204652612600,10.982612548828126,1.6271922588348389,0.9821186065673828,1.8582520484924316
1761231204669399300,10.9993994140625,1.3613132238388062,-0.9103419184684753,2.7510316371917725
1761231204686188500,11.0161884765625,1.2638801336288452,-2.635119915008545,1.2432634830474854
1761231204702978300,11.032978271484374,0.817337691783905,-1.0041097402572632,0.2762638032436371
1761231204719767800,11.049767822265625,0.28725937008857727,1.9113973379135132,0.3162754774093628
1761231204736557300,11.066557373046875,0.4518875777721405,3.1558825969696045,0.21212296187877655
1761231204753345300,11.08334521484375,0.3055853247642517,1.9158260822296143,0.12110403180122375
1761231204770136300,11.10013623046875,-0.15500704944133759,0.08384125679731369,-0.025503624230623245
1761231204786925800,11.11692578125,-0.5294674634933472,-0.9605855941772461,-0.4242459237575531
1761231204803715300,11.13371533203125,-0.7319692969322205,-1.1424707174301147,-1.0729848146438599
1761231204820504800,11.1505048828125,-0.912938117980957,-0.9928087592124939,-1.4126259088516235
1761231204837295000,11.167295166015625,-1.1117748022079468,-0.6227771043777466,-1.6256651878356934
1761231204854087000,11.1840869140625,-1.238223910331726,-0.2724458873271942,-1.768454909324646
1761231204870873300,11.200873291015625,-1.2205088138580322,-0.19043724238872528,-1.8877263069152832
1761231204887661600,11.21766162109375,-1.1349875926971436,-0.18814650177955627,-1.961030125617981
1761231204904452400,11.234452392578126,-1.2191343307495117,-0.05054909735918045,-1.763109803199768
1761231204921241900,11.251241943359375,-1.334282398223877,-0.22632557153701782,-1.505935549736023
1761231204938031400,11.26803125,-1.4286611080169678,-0.6276640295982361,-1.2759448289871216
1761231204954820900,11.28482080078125,-1.419498085975647,-0.9728028774261475,-1.0065531730651855
1761231204971597300,11.301597412109375,-1.1275044679641724,-1.2551753520965576,-0.5732970237731934
1761231204988399900,11.31839990234375,-0.48380526900291443,-1.3002266883850098,0.058184914290905
1761231205005189600,11.335189697265625,0.27122417092323303,-0.8797986507415771,0.671493649482727
1761231205021973200,11.35197314453125,0.6343835592269897,-0.4899139404296875,0.8045095205307007
1761231205038774000,11.36877392578125,0.6322455406188965,-0.078343465924263,0.5393940210342407
1761231205055558000,11.385557861328126,0.6669121384620667,0.38117989897727966,0.3390302062034607
1761231205072347100,11.40234716796875,0.6517932415008545,0.7779368758201599,0.08124507963657379
1761231205089137200,11.41913720703125,0.42439863085746765,0.8532260060310364,-0.2499966025352478
1761231205105926400,11.435926513671875,0.13836097717285156,0.34956762194633484,-0.44226643443107605
1761231205122716000,11.4527158203125,-0.0910189226269722,-0.1408044397830963,-0.35903605818748474
1761231205139506200,11.469506103515625,-0.17699819803237915,-0.2324342280626297,-0.07819075137376785
1761231205156295200,11.486295166015625,-0.06429356336593628,-0.011759156361222267,0.17302757501602173
1761231205173084000,11.503083984375,0.12568552792072296,0.2704605758190155,0.3715587854385376
1761231205189874000,11.5198740234375,0.4642575979232788,0.45555275678634644,0.6018549799919128
1761231205206662400,11.536662353515625,0.9418014883995056,0.8475755453109741,1.073595643043518
1761231205223454200,11.5534541015625,1.3439035415649414,1.1885910034179688,1.4078916311264038
1761231205240241400,11.570241455078126,1.52578866481781,1.2081387042999268,1.9113973379135132
1761231205257019100,11.58701904296875,1.3365731239318848,0.06062837690114975,2.0815234184265137
1761231205273821700,11.60382177734375,0.9590584635734558,-0.3865249752998352,1.7099645137786865
1761231205290611200,11.620611083984375,0.26893341541290283,0.8880453705787659,1.0868819952011108
1761231205307400700,11.637400634765624,-0.12476922571659088,1.9158260822296143,0.6322455406188965
1761231205324190200,11.654190185546875,0.13454307615756989,1.3518447875976562,-0.16768251359462738
1761231205340979500,11.6709794921875,-0.4535674452781677,0.23686300218105316,-0.7499898076057434
1761231205357767700,11.687767578125,-0.6455318331718445,-0.4118759036064148,-0.7964155673980713
1761231205374545700,11.704545654296876,-0.7872526049613953,-0.6123924255371094,-0.9647089242935181
1761231205391349800,11.721349853515624,-0.9010262489318848,-0.7214318513870239,-1.1733194589614868
1761231205408137700,11.7381376953125,-0.9970847964286804,-0.8171849846839905,-1.2580770254135132
1761231205424925700,11.75492578125,-1.112385630607605,-0.727082371711731,-1.1241447925567627
1761231205441716500,11.771716552734375,-1.0879509449005127,-0.5105306506156921,-0.8454375267028809
1761231205458495000,11.788494873046876,-1.0143417119979858,-0.2099849283695221,-0.5551238059997559
1761231205475295700,11.805295654296875,-1.0045678615570068,-0.32360586524009705,-0.3019201457500458
1761231205492086000,11.8220859375,-0.9943358898162842,-0.7186829447746277,-0.16630806028842926
1761231205508874800,11.838874755859376,-0.8109236359596252,-1.2434161901474,-0.10690141469240189
1761231205525663000,11.8556630859375,-0.551305890083313,-1.2985467910766602,0.1670716404914856
1761231205542454000,11.8724541015625,-0.29504790902137756,-0.9966266751289368,0.588263213634491
1761231205559243500,11.889243408203125,-0.015882495790719986,-0.7310529947280884,0.6647741198539734
1761231205576032800,11.90603271484375,0.16065755486488342,-0.021380282938480377,0.22937989234924316
1761231205592822300,11.922822265625,0.20357084274291992,0.5100724697113037,-0.01038470957428217
1761231205609611800,11.93961181640625,0.28756481409072876,0.35735616087913513,0.01618792861700058
1761231205626393000,11.95639306640625,0.31780263781547546,0.21792617440223694,-0.012675453908741474
1761231205643190800,11.973190673828125,0.32620203495025635,0.3156646192073822,-0.02015855349600315
1761231205659980300,11.989980224609376,0.3810271918773651,0.6259841322898865,0.10842858254909515
1761231205676769800,12.006769775390625,0.5213735103607178,0.9411906003952026,0.4014911949634552
1761231205693547000,12.023547119140625,0.7411322593688965,1.1464413404464722,0.7003570199012756
1761231205710333000,12.0403330078125,0.9605855941772461,1.2014192342758179,0.9763153791427612
1761231205727138800,12.057138916015624,1.1675162315368652,1.2104294300079346,1.3058772087097168
1761231205743927800,12.073927734375,1.452942967414856,1.4692835807800293,1.5555683374404907
1761231205760717300,12.09071728515625,1.6795740127563477,1.55892813205719,1.6181820631027222
1761231205777494000,12.107493896484375,1.323439598083496,0.4086688458919525,1.8031214475631714
1761231205794296600,12.124296630859375,1.0184650421142578,-0.6776022911071777,1.3365731239318848
1761231205811086000,12.141086181640626,0.9506590366363525,-0.4715879559516907,0.5534439086914062
1761231205827876000,12.1578759765625,0.6841690540313721,0.03481931984424591,-0.22892175614833832
1761231205844663300,12.174663330078126,0.25014930963516235,0.6765332818031311,0.17287486791610718
1761231205861454600,12.19145458984375,0.4651738703250885,0.47968193888664246,0.15012013912200928
1761231205878241300,12.2082412109375,-0.008857546374201775,-0.028405234217643738,-0.3179553747177124
1761231205895036400,12.225036376953126,-0.3446807265281677,-0.44715335965156555,-0.49357911944389343
1761231205911823000,12.241822998046874,-0.6414085030555725,-0.7738135457038879,-0.8886561989784241
1761231205928612600,12.258612548828125,-1.014647126197815,-0.5027421116828918,-1.4190399646759033
1761231205945402000,12.275402099609375,-1.3347405195236206,-0.24327708780765533,-1.725236177444458
1761231205962178800,12.2921787109375,-1.578475832939148,-0.060933809727430344,-1.616044044494629
1761231205978981000,12.308981201171875,-1.6041321754455566,0.005650503560900688,-1.5413657426834106
1761231205995771100,12.325771240234374,-1.6186401844024658,-0.12919799983501434,-1.4798210859298706
1761231206012560400,12.342560302734375,-1.6774359941482544,-0.20357084274291992,-1.4317153692245483
1761231206029334800,12.359334716796875,-1.7311921119689941,-0.2587014436721802,-1.3570371866226196
1761231206046139400,12.376139404296875,-1.6827809810638428,-0.694553792476654,-1.2321151494979858
1761231206062928600,12.3929287109375,-1.3426817655563354,-1.334282398223877,-0.9668469429016113
1761231206079718100,12.40971826171875,-0.7240280508995056,-1.3225232362747192,-0.5293147563934326
1761231206096506600,12.426506591796874,-0.022602014243602753,-0.6487388610839844,0.24373523890972137
1761231206113297200,12.443297119140626,0.5262604355812073,-0.3423899710178375,0.8145887851715088
1761231206130086700,12.460086669921875,0.7089090943336487,-0.044135015457868576,0.7811439037322998
1761231206146876200,12.476876220703126,0.7629706859588623,0.2719877362251282,0.49984049797058105
1761231206163664400,12.493664306640625,0.8162686824798584,0.6641632318496704,0.21120665967464447
1761231206180455200,12.510455078125,0.6495024561882019,0.8764389157295227,-0.166460782289505
1761231206197244700,12.52724462890625,0.36071592569351196,0.7165449261665344,-0.3315471112728119
1761231206214034200,12.5440341796875,0.164170041680336,0.3985895812511444,-0.2880229651927948
1761231206230824000,12.560823974609375,0.08384125679731369,0.3269656300544739,-0.0858265683054924
1761231206247602700,12.577602783203124,0.19028452038764954,0.4069889783859253,0.15027284622192383
1761231206264403000,12.59440283203125,0.42699480056762695,0.427452951669693,0.5126686692237854
1761231206281192400,12.6111923828125,0.7533495426177979,0.5117523670196533,1.0323622226715088
1761231206297982200,12.627982177734374,1.176831841468811,0.9509644508361816,1.6407840251922607
1761231206314771500,12.644771484375,1.5891659259796143,1.6727017164230347,2.1261165142059326
1761231206331561000,12.66156103515625,1.705383062362671,1.6022995710372925,2.267226457595825
1761231206348350200,12.67835009765625,1.1817188262939453,-0.5114469528198242,2.001958131790161
1761231206365140200,12.69514013671875,0.826500654220581,-1.470963478088379,1.4388930797576904
1761231206381915100,12.7119150390625,0.4014911949634552,-0.2893974184989929,0.3721696436405182
1761231206398720500,12.728720458984375,0.11453723162412643,1.3255776166915894,0.14905111491680145
1761231206415495700,12.74549560546875,0.06918048858642578,2.0037906169891357,-0.31352660059928894
1761231206432298000,12.762298095703125,-0.3176499307155609,0.888961672782898,-0.9358455538749695
1761231206449087500,12.77908740234375,-0.6598871946334839,0.02825251780450344,-1.149037480354309
1761231206465877000,12.795876953125,-0.8810204267501831,-0.3045163154602051,-0.9605855941772461
1761231206482665000,12.8126650390625,-0.9256135821342468,-0.7101308703422546,-0.8462010622024536
1761231206499456300,12.829456298828125,-0.9323330521583557,-0.7577783465385437,-0.8571966290473938
1761231206516245800,12.846245849609375,-0.8851437568664551,-0.8223773241043091,-0.8316930532455444
1761231206533035000,12.863034912109375,-0.889267086982727,-0.5169447064399719,-0.7111998796463013
1761231206549824500,12.879824462890625,-1.0199922323226929,-0.27382034063339233,-0.6252205967903137
1761231206566614000,12.896614013671876,-1.142012596130371,-0.280539870262146,-0.5768095254898071
1761231206583404000,12.913404052734375,-1.186300277709961,-0.5383250117301941,-0.6041457056999207
1761231206600180200,12.93018017578125,-1.0836749076843262,-1.1743884086608887,-0.6159048676490784
1761231206616982800,12.946982666015625,-0.8087855577468872,-1.7899879217147827,-0.4761694669723511
1761231206633772000,12.96377197265625,-0.5099197626113892,-1.7576119899749756,-0.07956519722938538
1761231206650561500,12.9805615234375,-0.1719585657119751,-1.2953397035598755,0.34804046154022217
1761231206667351300,12.997351318359375,0.19975294172763824,-0.235030397772789,0.418748140335083
1761231206684142300,13.014142333984376,0.49235737323760986,0.8941540122032166,0.26969701051712036
1761231206700922000,13.030922119140625,0.6311765313148499,1.3057245016098022,0.3364340364933014
1761231206717717800,13.0477177734375,0.6475171446800232,1.2374602556228638,0.4291328489780426
1761231206734507800,13.0645078125,0.4964807331562042,1.0012081861495972,0.35934147238731384
1761231206751299000,13.081299072265624,0.2893974184989929,0.7793113589286804,0.2142609804868698
1761231206768088300,13.09808837890625,0.22800545394420624,0.6291912198066711,0.12599095702171326
1761231206784877800,13.1148779296875,0.3237585723400116,0.5294674634933472,0.304669052362442
1761231206801666800,13.131666748046875,0.5650503635406494,0.41370847821235657,0.6582072973251343
1761231206818457600,13.14845751953125,0.9392052888870239,0.4853324294090271,1.0600038766860962
1761231206835246300,13.165246337890625,1.4265230894088745,1.2484558820724487,1.45004141330719
1761231206852035800,13.182035888671875,1.7304285764694214,1.9071213006973267,1.990657091140747
1761231206868824300,13.19882421875,1.3214542865753174,-0.13805554807186127,1.9033033847808838
1761231206885614800,13.21561474609375,1.1380419731140137,-1.0572550296783447,1.5413657426834106
1761231206902404400,13.232404296875,1.031293272972107,-0.7953465580940247,0.8943067193031311
1761231206919191000,13.24919091796875,0.6146831512451172,-0.2623666226863861,-0.07727445662021637
1761231206935981800,13.26598193359375,0.2597704529762268,0.4386012554168701,-0.048258353024721146
1761231206952776000,13.28277587890625,0.007788531947880983,0.6582072973251343,-0.6649268269538879
1761231206969563000,13.29956298828125,-0.4066835343837738,0.036651913076639175,-1.3002266883850098
1761231206986351900,13.316351806640625,-0.5499314665794373,-0.6174320578575134,-1.4674509763717651
1761231207003141400,13.333141357421875,-0.655458390712738,-0.679740309715271,-1.5812246799468994
1761231207019931000,13.349930908203126,-0.9034696817398071,-0.42699480056762695,-1.5221234560012817
1761231207036721000,13.366720947265625,-1.1042916774749756,-0.3643811047077179,-1.3752104043960571
1761231207053506800,13.3835068359375,-1.1982121467590332,-0.09392052888870239,-1.1757628917694092
1761231207070303000,13.400302978515626,-1.3666582107543945,0.22418753802776337,-0.8967501521110535
1761231207087089200,13.417089111328124,-1.4958562850952148,0.15363261103630066,-0.8051204085350037
1761231207103878700,13.433878662109375,-1.5442672967910767,-0.17104226350784302,-0.8432994484901428
1761231207120668000,13.45066796875,-1.54640531539917,-0.7194465398788452,-0.9439395070075989
1761231207137458000,13.4674580078125,-1.3703234195709229,-1.425148606300354,-0.9659306406974792
1761231207154247200,13.4842470703125,-0.9509644508361816,-1.739438772201538,-0.7489207983016968
1761231207171024000,13.50102392578125,-0.38179078698158264,-1.2261592149734497,-0.31871894001960754
1761231207187825000,13.517824951171875,0.24190263450145721,-0.4662429094314575,0.11102475970983505
1761231207204615700,13.53461572265625,0.6861543655395508,0.4101960062980652,0.3724750876426697
1761231207221405200,13.5514052734375,0.9271407127380371,0.8101600408554077,0.55069500207901
1761231207238194700,13.568194580078124,1.1184942722320557,0.9648616313934326,0.712574303150177
1761231207254983700,13.584983642578125,1.1088731288909912,1.0813841819763184,0.8651378750801086
1761231207271773000,13.60177294921875,0.9399688839912415,1.0288498401641846,0.926224410533905
1761231207288563200,13.618563232421875,0.6812674403190613,0.870330274105072,0.8845328688621521
1761231207305352700,13.635352783203125,0.5288565754890442,0.6969972252845764,0.6640105247497559
1761231207322142500,13.652142578125,0.5222898125648499,0.4512766897678375,0.4303545653820038
1761231207338931700,13.668931640625,0.627358615398407,0.3335324227809906,0.395077109336853
1761231207355721200,13.68572119140625,0.8022187948226929,0.4862487316131592,0.6650795340538025
1761231207372510500,13.702510498046875,0.9961684942245483,0.9251554012298584,1.3979650735855103
1761231207389284600,13.71928466796875,1.1036807298660278,1.0254900455474854,2.043802499771118
1761231207406092800,13.7360927734375,1.0167851448059082,0.5346598029136658,1.2867876291275024
1761231207422883800,13.7528837890625,0.9112582206726074,0.2635883390903473,0.41981714963912964
1761231207439668700,13.769668701171875,0.7531968355178833,-0.14569136500358582,0.21120665967464447
1761231207456455700,13.78645556640625,0.035124752670526505,0.4105014503002167,0.058184914290905
1761231207473251300,13.803251220703125,-0.1111774742603302,-0.11514809727668762,0.14065171778202057
1761231207490037200,13.820037353515625,-0.024892758578062057,-0.13026700913906097,-0.3208569586277008
1761231207506813400,13.8368134765625,0.013897184282541275,-0.08918632566928864,-0.6032294034957886
1761231207523616500,13.853616455078125,-0.17318029701709747,-0.33337971568107605,-0.7625125646591187
1761231207540406000,13.870406005859374,-0.5204572081565857,-0.25595253705978394,-1.0517572164535522
1761231207557195300,13.8871953125,-0.9640980958938599,-0.10506882518529892,-1.1113165616989136
1761231207573984500,13.903984619140624,-1.3158037662506104,-0.2649627923965454,-1.1131491661071777
1761231207590774800,13.92077490234375,-1.4819591045379639,-0.32986724376678467,-1.105513334274292
1761231207607552800,13.937552734375,-1.5053247213363647,-0.33017265796661377,-1.1366674900054932
1761231207624353300,13.954353271484376,-1.5688546895980835,-0.4392121136188507,-1.0673342943191528
1761231207641143000,13.97114306640625,-1.5685492753982544,-0.6189591884613037,-0.9750936627388
1761231207657920000,13.987919921875,-1.5031867027282715,-0.9320276379585266,-0.979216992855072
1761231207674721800,14.0047216796875,-1.3280210494995117,-1.2789990901947021,-0.8869763612747192
1761231207691498500,14.02149853515625,-0.9204211831092834,-1.2890783548355103,-0.6155994534492493
1761231207708301300,14.03830126953125,-0.3698789179325104,-0.7359399199485779,-0.05513058975338936
1761231207725090600,14.055090576171875,0.22143864631652832,-0.2968805134296417,0.5404630303382874
1761231207741877000,14.071876953125,0.5593998432159424,-0.035582900047302246,0.7122688889503479
1761231207758672600,14.088672607421875,0.5151121020317078,0.23350323736667633,0.6427829265594482
1761231207775459000,14.105458984375,0.543059229850769,0.456163614988327,0.547182559967041
1761231207792248600,14.12224853515625,0.5693264007568359,0.6809620261192322,0.384845107793808
1761231207809038000,14.1390380859375,0.4512766897678375,0.7189884185791016,0.13775011897087097
1761231207825826300,14.155826416015625,0.27977627515792847,0.5306891798973083,-0.04337143152952194
1761231207842617000,14.1726171875,0.23365595936775208,0.29077184200286865,-0.12049316614866257
1761231207859393800,14.189393798828124,0.3237585723400116,0.3413209617137909,-0.038026362657547
1761231207876196000,14.206196044921874,0.5389358401298523,0.4775438904762268,0.20051652193069458
1761231207892985300,14.2229853515625,0.8556694984436035,0.5593998432159424,0.651945948600769
1761231207909775600,14.239775634765625,1.2646437883377075,1.0248792171478271,1.1220067739486694
1761231207926563300,14.256563232421875,1.7299703359603882,2.0218112468719482,1.6087136268615723
1761231207943356000,14.27335595703125,1.4216361045837402,0.7420485615730286,2.0812180042266846
1761231207960144000,14.290143798828124,0.8863654732704163,-2.1058051586151123,1.788002610206604
1761231207976933600,14.30693359375,0.8413141369819641,-1.9398025274276733,1.4022411108016968
1761231207993722600,14.32372265625,0.6913467645645142,-0.0006108652451075613,0.6856962442398071
1761231208010512000,14.340511962890625,0.3168863356113434,1.7528778314590454,0.5642867684364319
1761231208027298300,14.35729833984375,0.28680121898651123,2.2853996753692627,-0.07513642311096191
1761231208044096500,14.374096435546875,-0.41523563861846924,1.2180652618408203,-0.722959041595459
1761231208060881000,14.390880859375,-0.8292495608329773,-0.29474249482154846,-0.7018841505050659
1761231208077670700,14.407670654296876,-0.9301950335502625,-1.0175487995147705,-0.9361509680747986
1761231208094460000,14.4244599609375,-0.8781188130378723,-1.2231049537658691,-1.289994716644287
1761231208111249400,14.44124951171875,-0.8158105611801147,-1.0709995031356812,-1.4373658895492554
1761231208128039000,14.458038818359375,-0.8292495608329773,-0.9369145631790161,-1.471421718597412
1761231208144827000,14.474826904296876,-0.7812966704368591,-0.7423539757728577,-1.4049900770187378
1761231208161618200,14.4916181640625,-0.9234755635261536,-0.13515393435955048,-1.1801916360855103
1761231208178407200,14.5084072265625,-1.1583532094955444,0.09407325088977814,-1.0054842233657837
1761231208195185700,14.525185546875,-1.3025174140930176,-0.1791362315416336,-0.9245445728302002
1761231208211985700,14.541985595703125,-1.3878858089447021,-0.6948592066764832,-0.8385652899742126
1761231208228766500,14.558766357421876,-1.2692252397537231,-1.3918564319610596,-0.707840085029602
1761231208245565400,14.5755654296875,-0.8793405294418335,-1.6042848825454712,-0.4662429094314575
1761231208262355000,14.59235498046875,-0.30970868468284607,-1.2499829530715942,0.0019853119738399982
1761231208279143200,14.60914306640625,0.230448916554451,-0.5239696502685547,0.35674530267715454
1761231208295934000,14.625933837890624,0.49266281723976135,0.2076941877603531,0.4977024495601654
1761231208312720600,14.642720703125,0.6733261942863464,0.6661485433578491,0.4879286289215088
1761231208329516000,14.65951611328125,0.8170322775840759,0.9906707406044006,0.5009095072746277
1761231208346302500,14.676302490234375,0.8035932183265686,1.033125877380371,0.5042692422866821
1761231208363087000,14.693087158203125,0.6609562039375305,0.936609148979187,0.5187773108482361
1761231208379886600,14.709886474609375,0.5910121202468872,0.8515461683273315,0.5520694851875305
1761231208396655000,14.726655029296875,0.6472117304801941,0.7956519722938538,0.6000223755836487
1761231208413447400,14.743447509765625,0.7632761001586914,0.8623890280723572,0.7327328324317932
1761231208430250000,14.76025,0.9071348905563354,0.7980954647064209,0.8888089060783386
1761231208447043000,14.77704296875,1.0690141916275024,0.7776314616203308,0.8985827565193176
1761231208463828700,14.793828857421875,1.2794572114944458,1.084591269493103,1.2365440130233765
1761231208480609300,14.810609375,1.1423180103302002,0.7409795522689819,1.701259732246399
1761231208497408300,14.827408203125,0.9918924570083618,-0.46547931432724,1.740660548210144
1761231208514200000,14.844199951171875,0.9497427344322205,-1.1062769889831543,1.3788756132125854
1761231208530986800,14.86098681640625,1.088714599609375,-1.463938593864441,0.96883225440979
1761231208547777000,14.877777099609375,0.717308521270752,-0.032528575509786606,0.7759515643119812
1761231208564566500,14.89456640625,0.6588181853294373,0.5820018649101257,0.36682456731796265
1761231208581355800,14.911355712890625,0.04108068719506264,0.703411340713501,-0.3286454975605011
1761231208598144000,14.92814404296875,-0.5422956347465515,-0.08231408894062042,-0.6737843751907349
1761231208614935000,14.94493505859375,-0.6307183504104614,-0.6795876026153564,-1.0346530675888062
1761231208631704300,14.961704345703126,-0.6615670323371887,-0.5342016816139221,-1.5126550197601318
1761231208648513800,14.978513671875,-0.6823364496231079,-0.24266621470451355,-1.79090416431427
1761231208665303300,14.99530322265625,-0.7286095023155212,-0.1699732542037964,-1.825570821762085
1761231208682077000,15.012076904296874,-0.8494081497192383,-0.13454307615756989,-1.6339118480682373
1761231208698885600,15.0288857421875,-0.9008735418319702,-0.37140607833862305,-1.34283447265625
1761231208715661000,15.0456611328125,-1.0283915996551514,-0.1059851199388504,-0.8020660877227783
1761231208732461800,15.0624619140625,-1.1261301040649414,0.2525927722454071,-0.4141666293144226
1761231208749250800,15.079250732421874,-1.1800389289855957,0.3543018400669098,-0.2252565622329712
1761231208766040300,15.096040283203125,-1.2223412990570068,-0.07437284290790558,-0.13255776464939117
1761231208782829600,15.11282958984375,-1.0590876340866089,-0.9970847964286804,-0.06383541971445084
1761231208799619800,15.129619873046876,-0.6928738951683044,-2.144136905670166,-0.07925976812839508
1761231208816407600,15.146407470703124,-0.26801711320877075,-2.397493362426758,0.10125091671943665
1761231208833200400,15.163200439453124,-0.01924225501716137,-1.9439259767532349,0.2984076738357544
1761231208849987800,15.17998779296875,0.1160643994808197,-1.0903944969177246,0.08567385375499725
1761231208866777600,15.196777587890624,0.3445279896259308,0.08491026610136032,-0.41141775250434875
1761231208883567000,15.213567138671875,0.45692721009254456,0.775340735912323,-0.4207334518432617
1761231208900358100,15.230358154296875,0.3700316250324249,1.2111930847167969,-0.18356500566005707
1761231208917131500,15.247131591796874,0.2713768780231476,1.5041029453277588,-0.07299839705228806
1761231208933935400,15.263935302734374,0.14645494520664215,1.5025757551193237,0.003359758760780096
1761231208950725000,15.28072509765625,0.1036943718791008,1.1027644872665405,0.16569720208644867
1761231208967502600,15.297502685546876,0.20861047506332397,0.7802276611328125,0.45295658707618713
1761231208984304000,15.31430419921875,0.4769330322742462,0.6724098920822144,1.089020013809204
1761231209001093400,15.33109326171875,0.9474520087242126,0.826195240020752,1.6823228597640991
1761231209017871400,15.347871337890625,1.4805846214294434,1.1965322494506836,2.1432206630706787
1761231209034672400,15.36467236328125,1.3179417848587036,-0.078343465924263,1.4691308736801147
1761231209051460600,15.381460693359376,1.0906999111175537,-0.5549710988998413,1.2311989068984985
1761231209068253700,15.398253662109376,0.6965391039848328,0.5780312418937683,0.2151772826910019
1761231209085041200,15.415041259765625,0.4178318381309509,1.0771081447601318,-0.34697145223617554
1761231209101830700,15.43183056640625,0.33918291330337524,0.4586070775985718,-0.2597704529762268
1761231209118620400,15.448620361328125,-0.036041051149368286,-0.630871057510376,-0.9283624291419983
1761231209135409700,15.46540966796875,-0.251218318939209,-0.8561276197433472,-1.0169379711151123
1761231209152199400,15.482199462890625,-0.6577491760253906,-0.8669704794883728,-0.9721920490264893
1761231209168988700,15.49898876953125,-0.978606104850769,-1.1511754989624023,-1.1160508394241333
1761231209185777200,15.515777099609375,-1.1864529848098755,-1.2765556573867798,-1.1470521688461304
1761231209202569000,15.53256884765625,-1.4450017213821411,-0.7994698882102966,-1.1325441598892212
1761231209219357200,15.549357177734375,-1.467145562171936,-0.50335294008255,-1.1785117387771606
1761231209236145700,15.566145751953124,-1.3755158185958862,-0.3199406862258911,-1.206153392791748
1761231209252936400,15.5829365234375,-1.3640620708465576,-0.3013092875480652,-1.2179125547409058
1761231209269725700,15.5997255859375,-1.2753338813781738,-0.5613851547241211,-1.0319041013717651
1761231209286515500,15.616515380859376,-0.9437867999076843,-0.877966046333313,-0.7038694620132446
1761231209303305000,15.633304931640625,-0.4746423065662384,-0.7767151594161987,-0.2739730477333069
1761231209320094500,15.650094482421874,0.06200282275676727,-0.461355984210968,0.11026117950677872
1761231209336884000,15.666884033203125,0.25366178154945374,-0.07880161702632904,0.35155296325683594
1761231209353660400,15.683660400390625,0.35674530267715454,0.19532416760921478,0.6688974499702454
1761231209370463200,15.700463134765625,0.5245805382728577,0.3962988257408142,0.9538660645484924
1761231209387252500,15.71725244140625,0.6382014751434326,0.6701191663742065,1.030071496963501
1761231209404023800,15.73402392578125,0.7137960195541382,0.9544769525527954,0.9447031021118164
1761231209420833300,15.750833251953125,0.6934847831726074,1.1317806243896484,0.7980954647064209
1761231209437621500,15.76762158203125,0.6294966340065002,1.1142182350158691,0.6418666839599609
1761231209454410000,15.784409912109375,0.6348416805267334,0.8365799784660339,0.5422956347465515
1761231209471201800,15.801201904296875,0.6905831694602966,0.4554000496864319,0.670577347278595
1761231209487989500,15.817989501953125,0.9451612234115601,0.3897320330142975,1.1669052839279175
1761231209504779300,15.834779296875,1.5166256427764893,0.9573785662651062,2.1061105728149414
1761231209521568500,15.851568603515625,1.672243595123291,-0.08536841720342636,2.486679792404175
1761231209538358000,15.86835791015625,1.4430164098739624,-2.0390682220458984,1.399950385093689
1761231209555148000,15.88514794921875,1.0856602191925049,-1.342529058456421,0.9787588119506836
1761231209571934000,15.901933837890626,0.6598871946334839,0.2096794992685318,1.3397802114486694
1761231209588726500,15.9187265625,1.0138835906982422,2.180941581726074,1.870163917541504
1761231209605517800,15.935517822265625,0.9234755635261536,1.0461066961288452,1.1962268352508545
1761231209622305800,15.952305908203124,-0.05360342562198639,-0.28680121898651123,-0.23884831368923187
1761231209639095000,15.969094970703125,-0.7773260474205017,-0.7116580009460449,-0.707840085029602
1761231209655884800,15.985884765625,-1.0772608518600464,-0.4970915913581848,-1.072068452835083
1761231209672674300,16.00267431640625,-1.2373075485229492,0.033597588539123535,-1.5294538736343384
1761231209689463800,16.0194638671875,-1.278388261795044,0.1108720451593399,-1.7825047969818115
1761231209706253600,16.036253662109374,-1.1015427112579346,-0.04153883829712868,-1.808924674987793
1761231209723042800,16.053042724609377,-0.9193521738052368,0.08109235763549805,-1.7047722339630127
1761231209739832000,16.06983203125,-0.8408560156822205,0.1820378452539444,-1.6557502746582031
1761231209756622000,16.0866220703125,-0.8515461683273315,-0.048105638474226,-1.6198619604110718
1761231209773410300,16.103410400390626,-1.1516337394714355,-0.28466320037841797,-1.5722143650054932
1761231209790202000,16.1202021484375,-1.5651894807815552,-0.5516113042831421,-1.3993395566940308
1761231209807004700,16.137004638671876,-1.6519323587417603,-0.8498662710189819,-1.088409185409546
1761231209823794200,16.153794189453127,-1.3527610301971436,-1.39017653465271,-0.7652614116668701
1761231209840567800,16.17056787109375,-0.8061894178390503,-1.5587754249572754,-0.40225476026535034
1761231209857347800,16.187347900390623,-0.24877487123012543,-1.179580807685852,-0.007788531947880983
1761231209874147300,16.204147216796876,0.1215621829032898,-0.6669121384620667,0.3055853247642517
1761231209890938400,16.2209384765625,0.36163222789764404,-0.375071257352829,0.3536909818649292
1761231209907727400,16.237727294921875,0.6285803318023682,0.0685696229338646,0.27320948243141174
1761231209924516900,16.254516845703126,0.8443684577941895,0.669966459274292,0.21090123057365417
1761231209941307000,16.271306884765625,0.850782573223114,1.0768027305603027,0.17837265133857727
1761231209958096100,16.28809619140625,0.6717990636825562,1.1513283252716064,0.1388191282749176
1761231209974885600,16.3048857421875,0.5435173511505127,1.0141890048980713,0.20555615425109863
1761231209991675100,16.321675048828126,0.4833471179008484,0.6543893814086914,0.36560285091400146
1761231210008465000,16.33846484375,0.39843684434890747,0.07773260027170181,0.8504771590232849
1761231210025254100,16.355254150390625,0.4737260043621063,0.13545936346054077,1.3915510177612305
1761231210042043000,16.37204296875,0.8388707041740417,0.1258382350206375,1.422247052192688
1761231210058833200,16.388833251953123,1.0714576244354248,0.16554448008537292,1.5125023126602173
1761231210075625700,16.405625732421875,1.0740537643432617,0.42959097027778625,1.568701982498169
1761231210092412200,16.422412109375,0.997848391532898,0.5885686874389648,0.7379252314567566
1761231210109201400,16.439201416015624,0.9847147464752197,0.8700248003005981,0.4554000496864319
1761231210125991200,16.4559912109375,0.6922630667686462,1.4723379611968994,0.5668829679489136
1761231210142761200,16.47276123046875,0.974177360534668,1.3854423761367798,0.1408044397830963
1761231210159570400,16.4895703125,0.7467827796936035,0.8077165484428406,-0.39904773235321045
1761231210176359700,16.506359619140625,0.4879286289215088,0.1443169116973877,-0.308792382478714
1761231210193148000,16.52314794921875,0.15653422474861145,-0.44257187843322754,-0.15821409225463867
1761231210209938700,16.539938720703127,-0.17088955640792847,-0.4602869749069214,-0.07651086896657944
1761231210226728400,16.556728515625,-0.4584543704986572,-0.19624045491218567,-0.01466076634824276
1761231210243504600,16.573504638671874,-0.6600399017333984,-0.11026117950677872,-0.08368854224681854
1761231210260305700,16.5903056640625,-0.7408268451690674,-0.15241087973117828,-0.23548854887485504
1761231210277098500,16.607098388671876,-0.7790058851242065,-0.23060162365436554,-0.32162055373191833
1761231210293886500,16.623886474609375,-0.7657195925712585,-0.4075998365879059,-0.3877467215061188
1761231210310676000,16.640676025390626,-0.7192938327789307,-0.556345522403717,-0.4001167416572571
1761231210327447000,16.657447021484376,-0.6394231915473938,-0.6259841322898865,-0.41401392221450806
1761231210344256300,16.67425634765625,-0.5345070958137512,-0.679740309715271,-0.5212207436561584
1761231210361044500,16.69104443359375,-0.29367345571517944,-0.45555275678634644,-0.5448917746543884
1761231210377833700,16.707833740234374,-0.078343465924263,-0.2698497176170349,-0.5096143484115601
1761231210394623700,16.724623779296873,-0.012064588256180286,-0.20311269164085388,-0.46334129571914673
1761231210411413000,16.7414130859375,-0.054825156927108765,-0.21762074530124664,-0.39354994893074036
1761231210428202500,16.758202392578124,-0.10720685124397278,-0.17088955640792847,-0.2987131178379059
1761231210444992000,16.774991943359375,-0.12140946835279465,-0.09834930300712585,-0.21059578657150269
1761231210461781500,16.791781494140626,-0.09987647086381912,-0.08567385375499725,-0.10812314599752426
1761231210478571000,16.808571044921877,-0.02428189292550087,-0.010690141469240189,0.022907447069883347
1761231210495360500,16.825360595703124,-0.044135015457868576,-0.08048149943351746,0.11209376901388168
1761231210512148700,16.842148681640627,-0.009926560334861279,-0.08414668589830399,0.2151772826910019
1761231210528939800,16.858939697265626,0.03436116874217987,-0.10919216275215149,0.28557950258255005
1761231210545728000,16.87572802734375,0.04596760869026184,-0.037110064178705215,0.19379699230194092
1761231210562519800,16.892519775390625,0.12736541032791138,0.08277224004268646,0.08048149943351746
1761231210579311600,16.9093115234375,0.1745547503232956,0.08445212244987488,0.11026117950677872
1761231210596097500,16.92609765625,0.08704829961061478,0.16890424489974976,0.14385876059532166
1761231210612887300,16.94288720703125,-0.06811147183179855,-0.33307427167892456,0.46593746542930603
1761231210629676800,16.9596767578125,-0.1440114825963974,0.19226983189582825,0.22800545394420624
1761231210646465000,16.976465087890624,-0.2252565622329712,0.9340129494667053,-0.12049316614866257
1761231210663255800,16.993255859375,-0.058948494493961334,0.4954117238521576,0.12217304855585098
1761231210680045300,17.01004541015625,0.04535674303770065,0.4795292317867279,0.049785517156124115
1761231210696839200,17.026839111328126,0.06704246252775192,0.403781920671463,0.03451388701796532
1761231210713624300,17.043624267578124,-0.03985895588994026,0.45814892649650574,-0.010231993161141872
1761231210730413800,17.060413818359375,0.0027488935738801956,0.26679539680480957,0.0679587572813034
1761231210747203300,17.077203369140626,-0.05757404863834381,0.3179553747177124,0.04917465150356293
1761231210763992800,17.093992919921874,-0.20723603665828705,0.48517972230911255,-0.0074830991216003895
1761231210780782300,17.1107822265625,-0.14294247329235077,0.2171625941991806,0.11988230794668198
1761231210797571800,17.12757177734375,-0.1258382350206375,0.16065755486488342,0.07941248267889023
1761231210814361300,17.144361328125,-0.12751811742782593,0.098502017557621,0.07651086896657944
1761231210831149300,17.1611494140625,-0.12095131725072861,0.044745877385139465,0.12171489745378494
1761231210847942400,17.1779423828125,-0.144622340798378,0.03344487398862839,0.14477506279945374
1761231210864729900,17.194729736328124,-0.12049316614866257,0.08704829961061478,0.13454307615756989
1761231210881507600,17.211507568359377,-0.06948592513799667,0.17470745742321014,0.06169738993048668
1761231210898309000,17.22830908203125,-0.05146539583802223,0.1950187236070633,0.025045474991202354
1761231210915098600,17.2450986328125,-0.043218716979026794,0.1667662113904953,0.029168816283345222
1761231210931888400,17.261888427734377,-0.048258353024721146,0.21395555138587952,0.10705413669347763
1761231210948678000,17.278677978515624,-0.04306599870324135,0.16203200817108154,0.15286903083324432
1761231210965466000,17.295466064453127,-0.0403171069920063,0.17760907113552094,0.11392636597156525
1761231210982256400,17.31225634765625,0.054367005825042725,0.22388210892677307,0.029474247246980667
1761231210999046100,17.329046142578125,0.10201449692249298,0.18616119027137756,0.04642575979232788
1761231211015836000,17.3458359375,0.09117163717746735,0.09269879758358002,0.08796459436416626
1761231211032625400,17.36262548828125,0.09575312584638596,0.10506882518529892,0.09773843735456467
1761231211049413400,17.379413330078126,0.1088867336511612,0.13698652386665344,0.10873401165008545
1761231211066194400,17.3961943359375,0.1186605766415596,0.14126259088516235,0.09254608303308487
1761231211082991900,17.412991943359376,0.16142113506793976,0.06001751124858856,0.0633772686123848
1761231211099785200,17.42978515625,0.16814066469669342,-0.03680463135242462,0.0507018156349659
1761231211116572700,17.44657275390625,0.13500121235847473,-0.2246456891298294,0.0025961773935705423
1761231211133362200,17.463362060546874,0.01970040425658226,-0.19562959671020508,0.012064588256180286
1761231211150151400,17.4801513671875,-0.008246680721640587,0.014355333521962166,0.07666359096765518
1761231211166939600,17.496939697265624,-0.02428189292550087,0.0754418596625328,0.05054909735918045
1761231211183732500,17.513732421875,-0.032681290060281754,0.023365596309304237,0.04337143152952194
1761231211200520400,17.5305205078125,-0.036651913076639175,-0.07360926270484924,0.03298672288656235
1761231211217310000,17.54731005859375,-0.04856378585100174,-0.12370020896196365,0.0354301854968071
1761231211234099500,17.564099365234377,-0.04886921867728233,-0.20494529604911804,0.01618792861700058
1761231211250888700,17.580888671875,-0.05406157299876213,-0.2971859276294708,-0.007941247895359993
1761231211267682300,17.597682373046876,-0.032070424407720566,-0.19792033731937408,0.02626720629632473
1761231211284466700,17.614466796875,0.004886921960860491,-0.15577064454555511,0.032528575509786606
1761231211301257500,17.631257568359374,-0.01542434748262167,-0.2021963894367218,0.013286318629980087
1761231211318034000,17.648033935546874,-0.02886338345706463,-0.23090706765651703,0.014966198243200779
1761231211334834000,17.664833984375,-0.07223481684923172,-0.1598939746618271,0.048105638474226
1761231211351628500,17.681628662109375,-0.11056660860776901,-0.16982053220272064,0.02076941914856434
1761231211368415500,17.69841552734375,-0.13439035415649414,-0.2171625941991806,0.00855211354792118
1761231211385205000,17.715205078125,-0.13805554807186127,-0.2765692472457886,-0.005497787147760391
1761231211401996800,17.731996826171876,-0.17669276893138885,-0.31154128909111023,0.033597588539123535
1761231211418784500,17.748784423828123,-0.21059578657150269,-0.36224308609962463,0.026419922709465027
1761231211435574000,17.765573974609374,-0.3003929853439331,-0.4268420934677124,0.013133603148162365
1761231211452361500,17.782361572265625,-0.35552358627319336,-0.4732678532600403,-0.013439035043120384
1761231211469141000,17.79914111328125,-0.34513887763023376,-0.5195409059524536,-0.05268712714314461
1761231211485942300,17.8159423828125,-0.2571742534637451,-0.4889976382255554,-0.05314527451992035
1761231211502731500,17.8327314453125,-0.20754146575927734,-0.4677700698375702,-0.008704829961061478
1761231211519521000,17.84952099609375,-0.1843285858631134,-0.40103304386138916,0.009773843921720982
1761231211536309500,17.8663095703125,-0.16432274878025055,-0.49464812874794006,0.05955936014652252
1761231211553098500,17.883098388671876,-0.19028452038764954,-0.5222898125648499,0.07712173461914062
1761231211569891300,17.899891357421875,-0.30054569244384766,-0.4337143301963806,0.01710422709584236
1761231211586679000,17.916678955078126,-0.18570303916931152,-0.37079519033432007,-0.06490442901849747
1761231211603467500,17.933467529296873,-0.06398813426494598,-0.3303253948688507,-0.022907447069883347
1761231211620258000,17.950258056640624,0.11301007121801376,-0.33887749910354614,-0.07009678333997726
1761231211637047800,17.9670478515625,0.09544769674539566,-0.31062498688697815,-0.07101308554410934
1761231211653837300,17.98383740234375,0.03573561832308769,-0.29275718331336975,-0.037110064178705215
1761231211670626600,18.00062646484375,0.053297992795705795,-0.25732699036598206,0.020311269909143448
1761231211687416300,18.017416259765625,0.0734565481543541,-0.24953845143318176,0.012675453908741474
1761231211704205800,18.034205810546876,0.11804971098899841,-0.12110403180122375,-0.0884227454662323
1761231211720977400,18.050977294921875,0.19120082259178162,-0.12553280591964722,-0.03848451003432274
1761231211737783600,18.067783447265626,0.15271630883216858,-0.15943582355976105,-0.04306599870324135
1761231211754574600,18.08457470703125,0.10613783448934555,-0.10842858254909515,-0.03695734590291977
1761231211771363800,18.10136376953125,-0.18005253374576569,0.16325373947620392,-0.001832595793530345
1761231211788153600,18.118153564453124,-0.47968193888664246,0.47937649488449097,-0.16019940376281738
1761231211804943000,18.134943115234375,-0.5736024379730225,0.6760751008987427,-0.24602597951889038
1761231211821732900,18.15173291015625,-0.33826664090156555,0.5826127529144287,-0.07101308554410934
1761231211838521900,18.16852197265625,0.13347405195236206,-0.0019853119738399982,0.3130684494972229
1761231211855301000,18.185301025390626,0.18600846827030182,-0.07819075137376785,0.4343251883983612
1761231211872099000,18.20209912109375,0.01725694350898266,0.08720101416110992,0.35613444447517395
1761231211888890600,18.218890625,0.07712173461914062,0.08506298810243607,0.22831088304519653
1761231211905680400,18.235680419921874,0.256868839263916,0.016340645030140877,0.2539672255516052
1761231211922469000,18.25246923828125,0.342695415019989,0.12308934330940247,0.34437528252601624
1761231211939259400,18.26925927734375,0.3191770911216736,0.4833471179008484,0.2906191349029541
1761231211956048600,18.286048583984375,0.3220787048339844,0.6887505650520325,0.38576140999794006
1761231211972825300,18.302825439453127,0.35292738676071167,0.7959573864936829,0.5145012736320496
1761231211989627600,18.319627685546877,0.3608686327934265,0.7574729323387146,0.4564690589904785
1761231212006414000,18.3364140625,0.3510948121547699,0.5088507533073425,0.3266601860523224
1761231212023207400,18.35320751953125,0.31413745880126953,0.35674530267715454,0.2620611786842346
1761231212039982600,18.369982666015623,0.3110831379890442,0.43447789549827576,0.2863430976867676
1761231212056787700,18.38678759765625,0.24113905429840088,0.5671883821487427,0.3628539443016052
1761231212073575200,18.4035751953125,0.1976149082183838,0.47708576917648315,0.3478877544403076
1761231212090364700,18.42036474609375,0.17623461782932281,0.3149010241031647,0.33857205510139465
1761231212107152600,18.437152587890626,0.15592335164546967,0.16004669666290283,0.3095559775829315
1761231212123945700,18.45394580078125,0.14584407210350037,0.11759155988693237,0.27870726585388184
1761231212140733400,18.4707333984375,0.11484266817569733,0.13408492505550385,0.23029619455337524
1761231212157523000,18.48752294921875,0.07910704612731934,0.10919216275215149,0.20097467303276062
1761231212174308400,18.504308349609374,0.06520986557006836,0.09560041129589081,0.18829920887947083
1761231212191104800,18.521104736328127,0.0529925599694252,0.0835358202457428,0.144622340798378
1761231212207891500,18.537891357421874,0.05146539583802223,0.02886338345706463,0.11071932315826416
1761231212224691700,18.554691650390627,0.05115996301174164,0.021074850112199783,0.07712173461914062
1761231212241470200,18.57147021484375,0.03848451003432274,0.015882495790719986,0.052839845418930054
1761231212258259200,18.58825927734375,0.026114489883184433,0.02229658141732216,0.03344487398862839
1761231212275050500,18.605050537109374,0.01572977937757969,0.03726277872920036,0.019853120669722557
1761231212291839200,18.621839111328125,0.004123340360820293,0.044135015457868576,0.01710422709584236
1761231212308627200,18.638627197265624,-0.00366519158706069,0.02733621932566166,0.012675453908741474
1761231212325426000,18.655426025390625,-0.009773843921720982,0.014049900695681572,0.010995574295520782
1761231212342207500,18.67220751953125,-0.012828170321881771,-0.00015271631127689034,0.005345070734620094
1761231212358985700,18.68898583984375,-0.017867809161543846,-0.00855211354792118,-0.004123340360820293
1761231212375785200,18.70578515625,-0.017867809161543846,-0.01771509274840355,-0.015118914656341076
1761231212392576000,18.722575927734376,-0.0074830991216003895,-0.010231993161141872,-0.02474004216492176
1761231212409365500,18.739365478515627,-0.004428773187100887,-0.012828170321881771,-0.029016099870204926
1761231212426155000,18.756155029296874,-0.007024950347840786,-0.01618792861700058,-0.027488935738801956
1761231212442944500,18.772944580078125,-0.004734205547720194,-0.009621127508580685,-0.022143865004181862
1761231212459734300,18.789734375,0.009010262787342072,0.07696902006864548,0.030237829312682152
1761231212476510700,18.8065107421875,0.01771509274840355,0.07712173461914062,0.01725694350898266
1761231212493312800,18.823312744140626,0.013744467869400978,0.06979135423898697,0.003054326167330146
1761231212510103000,18.84010302734375,0.003359758760780096,-0.0007635815418325365,-0.001679879380390048
1761231212526892300,18.856892333984376,-0.024587325751781464,-0.08460483700037003,-0.01542434748262167
