time,seconds_elapsed,z,y,x
1761315611434539500,0.34153955078125,-1.8668255805969238,-0.3133646547794342,-0.6420004963874817
1761315611453462500,0.360462646484375,-2.2596004009246826,-0.0787992998957634,-0.7556180357933044
1761315611472385300,0.37938525390625,-2.7073514461517334,-0.06963659077882767,-0.629172682762146
1761315611491308000,0.39830810546875,-2.333512783050537,-0.05864133685827255,0.0012216945178806782
1761315611510230800,0.417230712890625,-1.3255385160446167,0.02626643143594265,0.3683409094810486
1761315611529153500,0.436153564453125,-0.8154810667037964,0.32130566239356995,-0.007330167107284069
1761315611548076500,0.45507666015625,-1.2876659631729126,0.32191649079322815,-0.5381564497947693
1761315611566999300,0.473999267578125,-1.9028655290603638,0.14660334587097168,-0.6878139972686768
1761315611585922000,0.492922119140625,-2.3402321338653564,-0.0647498071193695,-0.5632011890411377
1761315611604844800,0.5118447265625,-2.497220039367676,-0.314586341381073,-0.4434750974178314
1761315611623767600,0.530767578125,-2.573575973510742,-0.5002838969230652,-0.6731536984443665
1761315611642690600,0.549690673828125,-2.7488889694213867,-0.5705313682556152,-1.1141854524612427
1761315611661613300,0.56861328125,-2.9975037574768066,-0.34635040163993835,-1.3940298557281494
1761315611680536000,0.5875361328125,-3.3499627113342285,-2.1429286003112793,0.5405998229980469
1761315611699458800,0.606458740234375,-2.91137433052063,-2.356114149093628,0.5772506594657898
1761315611718381800,0.6253818359375,-2.3139657974243164,-2.4324700832366943,-0.13988402485847473
1761315611737304600,0.6443046875,-1.7611490488052368,-2.315187454223633,-0.4978405237197876
1761315611756227300,0.663227294921875,-1.4997063875198364,-1.664635181427002,-0.42514967918395996
1761315611775150000,0.682150146484375,-1.4569470882415771,-0.7824953198432922,-0.1557660549879074
1761315611794072800,0.70107275390625,-1.2577345371246338,-0.2651077210903168,0.16004198789596558
1761315611812995800,0.719995849609375,-0.7238540053367615,-0.16676130890846252,0.34879377484321594
1761315611831918600,0.738918701171875,-0.22845686972141266,-0.35795649886131287,0.15087927877902985
1761315611850841300,0.75784130859375,0.05497625470161438,-0.4984513521194458,-0.14904673397541046
1761315611869764000,0.77676416015625,0.011606098152697086,-0.2987042963504791,-0.13988402485847473
1761315611888686800,0.795686767578125,-0.0525328628718853,0.07146912813186646,0.12705622613430023
1761315611907609900,0.81460986328125,-0.05803048983216286,0.33352261781692505,0.27060532569885254
1761315611926532600,0.83353271484375,-0.0390942245721817,0.4031592011451721,0.23090025782585144
1761315611945455400,0.852455322265625,-0.026877280324697495,0.39888325333595276,0.15454435348510742
1761315611964378400,0.87137841796875,-0.014660334214568138,0.37506023049354553,0.11300674080848694
1761315611983301000,0.890301025390625,-0.005497625097632408,0.33291175961494446,0.11422843486070633
1761315612002223900,0.909223876953125,-0.016492875292897224,0.21868331730365753,0.09529217332601547
1761315612021146600,0.928146728515625,-0.04153761267662048,-0.006719320081174374,0.04337015375494957
1761315612040069600,0.947069580078125,-0.062306419014930725,-0.12766708433628082,0.038483377546072006
1761315612058992400,0.965992431640625,-0.07146912813186646,-0.09284878522157669,-0.023212196305394173
1761315612077915100,0.9849150390625,-0.0794101431965828,-0.028098974376916885,-0.16798299551010132
1761315612096838000,1.003837890625,-0.0787992998957634,-0.10201149433851242,-0.24433889985084534
1761315612115761000,1.022760986328125,-0.04947862774133682,-0.3805578351020813,-0.25777754187583923
1761315612134683600,1.04168359375,-0.02993151545524597,-0.5418215394020081,-0.30847787857055664
1761315612153606400,1.0606064453125,-0.025655584409832954,-0.5656445622444153,-0.3439069986343384
1761315612172529200,1.079529052734375,-0.04825693368911743,-0.5919110178947449,-0.34512871503829956
1761315612191452200,1.0984521484375,-0.04886778071522713,-0.5674771070480347,-0.26816195249557495
1761315612210375000,1.117375,-0.045202698558568954,-0.3946073353290558,-0.10750912129878998
1761315612229297700,1.136297607421875,-0.03420744836330414,-0.0397050715982914,0.061084724962711334
1761315612248220700,1.155220703125,0.0036650835536420345,0.3658975064754486,0.16065283119678497
1761315612267143400,1.174143310546875,-0.0006108472589403391,0.5809157490730286,0.22540263831615448
1761315612286066200,1.193066162109375,-0.008551862090826035,0.5980194807052612,0.31886225938796997
1761315612304989000,1.211989013671875,-0.030542362481355667,0.4300364851951599,0.39643988013267517
1761315612323912000,1.230911865234375,0.012827792204916477,0.12339114397764206,0.39888325333595276
1761315612342834700,1.249834716796875,0.10873081535100937,-0.0787992998957634,0.2919849753379822
1761315612361757400,1.26875732421875,0.19241689145565033,0.03420744836330414,0.2101314514875412
1761315612380680400,1.287680419921875,0.24311721324920654,0.40987852215766907,0.2626643180847168
1761315612399603200,1.306603271484375,0.32130566239356995,0.9077190160751343,0.420873761177063
1761315612418526000,1.32552587890625,0.3695625960826874,1.3738718032836914,0.6731536984443665
1761315612437449000,1.344448974609375,0.3939964771270752,1.4905437231063843,1.1899304389953613
1761315612456371700,1.363371826171875,0.40987852215766907,1.5546826124191284,1.4819917678833008
1761315612475294500,1.38229443359375,0.4178195297718048,1.663413405418396,1.2717839479446411
1761315612494217500,1.401217529296875,0.5155550837516785,1.6750195026397705,1.1215155124664307
1761315612513140200,1.42014013671875,0.7207997441291809,1.7654249668121338,1.249793529510498
1761315612532063000,1.43906298828125,0.8264763355255127,1.1551121473312378,1.543076515197754
1761315612550986000,1.457986083984375,0.8069292306900024,0.2638860046863556,1.6744086742401123
1761315612569908700,1.47690869140625,0.6774296164512634,0.31092125177383423,1.4300698041915894
1761315612588831500,1.49583154296875,0.37139514088630676,0.4202629029750824,1.3230952024459839
1761315612607754500,1.51475439453125,-0.45141613483428955,-0.9700254201889038,0.846023440361023
1761315612626677200,1.53367724609375,-1.3909755945205688,-2.061685800552368,-0.20524467527866364
1761315612645600000,1.55260009765625,-1.5833925008773804,-2.861895799636841,-0.5906893014907837
1761315612664523000,1.57152294921875,-0.9083298444747925,-2.3005270957946777,-0.8362498879432678
1761315612683445800,1.59044580078125,-0.6731536984443665,-1.918136715888977,-1.604161262512207
1761315612702368500,1.609368408203125,-0.46607646346092224,-1.483824372291565,-2.020148277282715
1761315612721291500,1.62829150390625,-0.1710372269153595,-0.4159869849681854,-2.0708484649658203
1761315612740214300,1.64721435546875,-0.023823043331503868,0.34512871503829956,-1.7813069820404053
1761315612759137000,1.666136962890625,-0.008551862090826035,0.4984513521194458,-1.4227396249771118
1761315612778060000,1.68506005859375,-0.1850867122411728,0.08796200156211853,-1.1691616773605347
1761315612796982800,1.703982666015625,-0.5216635465621948,-0.3823903799057007,-1.0714260339736938
1761315612815905500,1.722905517578125,-0.754396378993988,-0.7745543122291565,-0.9791881442070007
1761315612834828500,1.74182861328125,-0.7812736630439758,-1.1276240348815918,-0.5931326746940613
1761315612853751300,1.760751220703125,-0.6927008032798767,-1.2980504035949707,-0.13682979345321655
1761315612872674300,1.77967431640625,-0.5436540842056274,-0.8319739699363708,0.4709632396697998
1761315612891597000,1.79859716796875,-0.2229592502117157,0.20280128717422485,0.9852966070175171
1761315612910519800,1.817519775390625,0.12827792763710022,0.4563029110431671,0.9419264793395996
1761315612929442800,1.83644287109375,0.5155550837516785,0.41171106696128845,0.6743753552436829
1761315612948365600,1.855365478515625,0.684759795665741,0.8240329623222351,0.36101073026657104
1761315612967288600,1.87428857421875,0.5833591222763062,1.4612230062484741,0.2376195788383484
1761315612986211300,1.89321142578125,0.49051034450531006,1.8173469305038452,0.37689274549484253
1761315613005134000,1.912134033203125,0.5302154421806335,1.7923022508621216,0.5955760478973389
1761315613024057000,1.93105712890625,0.6444438695907593,1.3108782768249512,0.8124268651008606
1761315613042979800,1.949979736328125,0.6963658928871155,0.46241137385368347,1.086086392402649
1761315613061902800,1.96890283203125,0.6927008032798767,-0.6994200944900513,1.7324391603469849
1761315613080825600,1.98782568359375,0.6975875496864319,-1.4716074466705322,2.2424967288970947
1761315613099748400,2.006748291015625,0.9749122262001038,-0.01954711228609085,1.7910804748535156
1761315613118671400,2.02567138671875,0.6749862432479858,0.6297835111618042,0.312142938375473
1761315613137594000,2.044593994140625,0.4446968138217926,0.38727715611457825,-0.055587101727724075
1761315613156517000,2.06351708984375,-0.503948986530304,-1.6658568382263184,-0.32130566239356995
1761315613175440000,2.08243994140625,-1.1538904905319214,-3.172206163406372,-0.92054682970047
1761315613194362600,2.101362548828125,-0.9846857786178589,-1.6004961729049683,-0.9119949340820312
1761315613213285600,2.12028564453125,-0.5674771070480347,-0.45385950803756714,-1.345162034034729
1761315613232208400,2.13920849609375,-0.34451785683631897,-0.3298575282096863,-1.7587056159973145
1761315613251131400,2.15813134765625,-0.28098973631858826,0.0024433890357613564,-1.858884572982788
1761315613270054100,2.17705419921875,-0.393385648727417,0.2498365342617035,-1.6860147714614868
1761315613288977200,2.19597705078125,-0.5974085927009583,0.29565006494522095,-1.3866996765136719
1761315613307900000,2.21489990234375,-0.7745543122291565,0.2767138183116913,-1.2259705066680908
1761315613326823000,2.233822998046875,-0.7953231334686279,-0.07269082218408585,-1.0231691598892212
1761315613345745700,2.25274560546875,-0.6652126908302307,-0.4978405237197876,-0.7238540053367615
1761315613364668400,2.27166845703125,-0.42698222398757935,-0.8674030900001526,-0.36284327507019043
1761315613383591400,2.29059130859375,-0.06291726976633072,-0.9938485026359558,0.16248537600040436
1761315613402514200,2.30951416015625,0.10995250940322876,-0.31825143098831177,0.8747332692146301
1761315613421437200,2.328437255859375,0.12339114397764206,0.2980934679508209,0.8594620823860168
1761315613440360000,2.34735986328125,0.24372805655002594,0.70797199010849,0.4068242609500885
1761315613459283000,2.366282958984375,0.30725616216659546,1.2766708135604858,0.1429382562637329
1761315613478205700,2.385205810546875,0.21562908589839935,1.7648141384124756,0.12033691257238388
1761315613497128700,2.404128662109375,0.14110571146011353,1.965782880783081,0.2522799074649811
1761315613516051500,2.423051513671875,0.17653486132621765,1.705561876296997,0.4074351191520691
1761315613534974500,2.441974365234375,0.28160059452056885,1.170383334159851,0.5607577562332153
1761315613553897200,2.460897216796875,0.5619794726371765,0.4856235682964325,1.1679399013519287
1761315613572820000,2.479820068359375,0.939483106136322,0.9926267862319946,1.631649374961853
1761315613591743000,2.498742919921875,1.1508362293243408,2.0103747844696045,2.4269726276397705
1761315613610666000,2.517666015625,1.110520362854004,0.2718270421028137,2.197293996810913
1761315613629588700,2.536588623046875,1.7452670335769653,0.7293516397476196,1.4178528785705566
1761315613648511500,2.555511474609375,1.0030112266540527,0.8008207678794861,0.1844758689403534
1761315613667434500,2.5744345703125,0.393385648727417,-2.3237392902374268,-0.8252546191215515
1761315613686357200,2.593357177734375,-0.4844018816947937,-2.798367738723755,-0.7507312893867493
1761315613705280300,2.6122802734375,-0.8783983588218689,-5.368278503417969,-1.8778208494186401
1761315613724203000,2.631203125,-0.7226322889328003,-3.869182825088501,-1.8222336769104004
1761315613743126000,2.6501259765625,-0.4031592011451721,-0.758672297000885,-1.5088690519332886
1761315613762048800,2.669048828125,-0.3695625960826874,0.45202696323394775,-1.7593164443969727
1761315613780971800,2.6879716796875,-0.5754181146621704,0.7421793937683105,-1.6121022701263428
1761315613799894500,2.70689453125,-0.8270871639251709,0.6780404448509216,-1.2632321119308472
1761315613818817500,2.725817626953125,-1.0304993391036987,0.7782194018363953,-1.1025793552398682
1761315613837740300,2.744740234375,-0.9486457705497742,0.5393781065940857,-0.8203678727149963
1761315613856663300,2.763663330078125,-0.7061394453048706,0.08857285231351852,-0.4446968138217926
1761315613875586000,2.7825859375,-0.4172086715698242,-0.32313820719718933,-0.03665083646774292
1761315613894509000,2.801509033203125,0.020157959312200546,-0.49417543411254883,0.497229665517807
1761315613913431800,2.820431884765625,0.5705313682556152,-0.12644538283348083,0.9749122262001038
1761315613932354800,2.839354736328125,0.7201889157295227,0.395218163728714,0.8851176500320435
1761315613951277600,2.858277587890625,0.4471401870250702,1.012784719467163,0.4984513521194458
1761315613970200600,2.87720068359375,0.34635040163993835,1.7886371612548828,0.17225892841815948
1761315613989123300,2.896123291015625,0.37261682748794556,2.23760986328125,0.08124268800020218
1761315614008046300,2.91504638671875,0.41110020875930786,2.0653510093688965,0.23090025782585144
1761315614026969000,2.933968994140625,0.4752391576766968,1.3212625980377197,0.33413344621658325
1761315614045892000,2.95289208984375,0.5118899941444397,0.49112120270729065,0.4422534108161926
1761315614064814800,2.97181494140625,0.5833591222763062,-0.08490777015686035,0.8496885299682617
1761315614083737900,2.99073779296875,0.6908682584762573,-0.29626092314720154,1.271173119544983
1761315614102660600,3.00966064453125,0.8570187091827393,1.427626371383667,1.5668995380401611
1761315614121583600,3.02858349609375,0.938872218132019,1.4355673789978027,1.5943876504898071
1761315614140506400,3.04750634765625,0.8521319031715393,-1.0408837795257568,2.277925729751587
1761315614159429400,3.066429443359375,0.5112791657447815,-2.6389365196228027,1.6072155237197876
1761315614178352000,3.08535205078125,0.3402419090270996,0.7256865501403809,0.3035911023616791
1761315614197275100,3.104275146484375,0.42881476879119873,1.3102673292160034,-0.0781884491443634
1761315614216198000,3.123197998046875,-0.7177455425262451,-2.125213861465454,-0.5913001298904419
1761315614235121000,3.142120849609375,-0.7824953198432922,-2.9675724506378174,-0.7983773946762085
1761315614254044000,3.1610439453125,-0.5919110178947449,-1.9938818216323853,-1.3372210264205933
1761315614272966700,3.179966552734375,-0.2901524603366852,-0.9138274788856506,-1.738547682762146
1761315614291889400,3.198889404296875,-0.08185353130102158,-0.05619794875383377,-1.8533869981765747
1761315614310812400,3.2178125,-0.2113531529903412,0.3640649616718292,-1.5583477020263672
1761315614329735400,3.2367353515625,-0.42514967918395996,0.499673068523407,-1.2791141271591187
1761315614348658200,3.255658203125,-0.7000309824943542,0.4190412163734436,-1.2339115142822266
1761315614367581200,3.274581298828125,-0.8038749694824219,0.04214845970273018,-1.1355650424957275
1761315614386504000,3.29350390625,-0.7262973785400391,-0.5253286361694336,-0.758672297000885
1761315614405427000,3.312427001953125,-0.5986303091049194,-1.0121738910675049,-0.2742704153060913
1761315614424349700,3.331349609375,-0.3671191930770874,-1.1551121473312378,0.22845686972141266
1761315614443272700,3.350272705078125,0.09834641218185425,-0.735460102558136,0.7953231334686279
1761315614462195500,3.369195556640625,0.5094466209411621,-0.32313820719718933,0.8490777015686035
1761315614481118500,3.388118408203125,0.633448600769043,0.29381752014160156,0.6114581227302551
1761315614500041200,3.407041259765625,0.5644228458404541,1.0866972208023071,0.4227063059806824
1761315614518964200,3.425964111328125,0.46424391865730286,1.8790425062179565,0.24067382514476776
1761315614537887000,3.444886962890625,0.258999228477478,1.9590635299682617,0.20219044387340546
1761315614556810000,3.46381005859375,0.10078980028629303,1.6053829193115234,0.2980934679508209
1761315614575732700,3.482732666015625,0.18142163753509521,1.1508362293243408,0.38849884271621704
1761315614594655700,3.50165576171875,0.3268032968044281,0.7476770281791687,0.4190412163734436
1761315614613578800,3.520578857421875,0.444085955619812,0.6145123243331909,0.3830012381076813
1761315614632501500,3.53950146484375,0.629172682762146,0.8680139780044556,0.4049917459487915
1761315614651424500,3.558424560546875,0.860683798789978,1.5748405456542969,0.9016105532646179
1761315614670347300,3.57734716796875,0.5986303091049194,0.9071081876754761,2.159421443939209
1761315614689270300,3.596270263671875,0.12216944992542267,-1.3384426832199097,2.4874463081359863
1761315614708193000,3.615193115234375,0.26999449729919434,-0.9144383668899536,2.404982089996338
1761315614727116000,3.634115966796875,0.4446968138217926,1.5100908279418945,0.8637380003929138
1761315614746038800,3.653038818359375,0.30786702036857605,1.0885298252105713,0.11545012891292572
1761315614764961800,3.6719619140625,-0.9358180165290833,-1.7416019439697266,-0.4312581717967987
1761315614783884800,3.690884765625,-1.1044118404388428,-3.3615689277648926,-0.92054682970047
1761315614802807600,3.7098076171875,-0.4312581717967987,-2.732396125793457,-1.4997063875198364
1761315614821730600,3.72873046875,-0.04581354558467865,-1.2980504035949707,-1.9865516424179077
1761315614840653300,3.7476533203125,0.13560809195041656,-0.7134696245193481,-2.348173141479492
1761315614859576300,3.766576416015625,-0.0390942245721817,-0.14171656966209412,-2.251659393310547
1761315614878499000,3.7854990234375,-0.40010493993759155,0.1435490995645523,-1.863160490989685
1761315614897422000,3.804422119140625,-0.7434011101722717,-0.22540263831615448,-1.5504066944122314
1761315614916344800,3.8233447265625,-0.9938485026359558,-0.6780404448509216,-1.3457728624343872
1761315614935267800,3.842267822265625,-0.9425373077392578,-1.0237799882888794,-0.8173136115074158
1761315614954190600,3.861190673828125,-0.7855495810508728,-1.0219475030899048,0.13866232335567474
1761315614973113600,3.880113525390625,-0.503948986530304,-0.601073682308197,0.9797990322113037
1761315614992036600,3.89903662109375,-0.06658235192298889,-0.8252546191215515,1.1826002597808838
1761315615010959400,3.91795947265625,0.3426853120326996,-1.1960389614105225,1.009730577468872
1761315615029882400,3.93688232421875,0.5833591222763062,-0.3640649616718292,0.6200099587440491
1761315615048805000,3.95580517578125,0.5650337338447571,1.1538904905319214,-0.05741964280605316
1761315615067728100,3.97472802734375,0.4709632396697998,2.4104795455932617,-0.46546560525894165
1761315615086651000,3.99365087890625,0.393385648727417,2.6413798332214355,-0.2504473626613617
1761315615105574000,4.012573974609375,0.30603447556495667,2.1838552951812744,0.1441599577665329
1761315615124496600,4.03149658203125,0.2638860046863556,1.4545036554336548,0.3561239540576935
1761315615143419600,4.050419677734375,0.29320669174194336,0.5717530250549316,0.38727715611457825
1761315615162342700,4.0693427734375,0.3805578351020813,-0.5204418897628784,0.6236750483512878
1761315615181265400,4.088265380859375,0.38666632771492004,-0.7366818189620972,0.92054682970047
1761315615200188400,4.1071884765625,0.48073679208755493,0.16615045070648193,0.9773555994033813
1761315615219111200,4.126111083984375,0.7684458494186401,1.9309645891189575,1.2546802759170532
1761315615238034200,4.1450341796875,0.7482879161834717,2.2858667373657227,1.543687343597412
1761315615256957000,4.16395703125,0.6603258848190308,-1.340886116027832,1.9541767835617065
1761315615275880000,4.1828798828125,0.39827242493629456,-3.2485620975494385,2.442854642868042
1761315615294802700,4.201802734375,0.3683409094810486,1.492987036705017,1.1545013189315796
1761315615313725700,4.2207255859375,0.5625903010368347,1.226581335067749,-0.0030542362947016954
1761315615332648700,4.239648681640625,-1.159998893737793,-0.5992411375045776,-0.40132665634155273
1761315615351571500,4.258571533203125,-1.5125341415405273,-1.7593164443969727,-0.7207997441291809
1761315615370494500,4.277494384765625,-1.2058124542236328,-2.637104034423828,-1.6237083673477173
1761315615389417200,4.296417236328125,-0.7458444833755493,-2.3548924922943115,-2.240053176879883
1761315615408340200,4.31534033203125,-0.3567348122596741,-1.5265836715698242,-2.13620924949646
1761315615427263000,4.334262939453125,0.1582094430923462,-0.6878139972686768,-1.9547876119613647
1761315615446186000,4.35318603515625,0.19241689145565033,0.7153021693229675,-1.7519862651824951
1761315615465108700,4.372108642578125,-0.1044548824429512,1.1288456916809082,-1.673187017440796
1761315615484031700,4.39103173828125,-0.5845808386802673,0.5485408306121826,-1.6988425254821777
1761315615502954500,4.40995458984375,-0.6939224600791931,-0.5882459282875061,-1.294385313987732
1761315615521877500,4.42887744140625,-0.546097457408905,-1.5949985980987549,-0.7098045349121094
1761315615540800500,4.447800537109375,-0.3439069986343384,-2.0024337768554688,0.1557660549879074
1761315615559723300,4.46672314453125,-0.07024743407964706,-1.1771026849746704,1.1697725057601929
1761315615578646300,4.485646240234375,-0.031153209507465363,-0.288930743932724,1.2552911043167114
1761315615597569000,4.504569091796875,0.09895725548267365,-0.0653606578707695,1.086086392402649
1761315615616492000,4.523491943359375,0.258999228477478,0.14660334587097168,0.8661814332008362
1761315615635414800,4.542414794921875,0.32313820719718933,0.7794411182403564,0.5381564497947693
1761315615654337800,4.561337890625,0.27976804971694946,1.4777158498764038,0.26694026589393616
1761315615673260500,4.580260498046875,0.16187451779842377,1.7183897495269775,0.2480039894580841
1761315615692183600,4.59918359375,0.11972606182098389,1.5271944999694824,0.46485477685928345
1761315615711106600,4.6181064453125,0.27976804971694946,1.2345223426818848,0.6719319820404053
1761315615730029300,4.637029296875,0.4324798583984375,0.8191461563110352,0.8191461563110352
1761315615748952300,4.655952392578125,0.499673068523407,0.4453076422214508,0.8612946271896362
1761315615767875000,4.674875,0.6096255779266357,0.24494975805282593,0.8674030900001526
1761315615786798000,4.693798095703125,0.9089407324790955,0.5961869359016418,1.0482138395309448
1761315615805720800,4.712720947265625,1.0115630626678467,0.22845686972141266,2.086730480194092
1761315615824643800,4.731643798828125,0.47829338908195496,-2.1056668758392334,2.9009900093078613
1761315615843566600,4.750566650390625,0.33413344621658325,-1.0958600044250488,2.3811590671539307
1761315615862489600,4.769489501953125,0.5858024954795837,2.050079822540283,0.367730051279068
1761315615881412600,4.78841259765625,0.5595360994338989,1.3757044076919556,-0.4294256269931793
1761315615900335400,4.80733544921875,-0.7568397521972656,-1.2070342302322388,-0.37567105889320374
1761315615919258400,4.82625830078125,-1.2400199174880981,-3.559483289718628,-0.5613686442375183
1761315615938181000,4.84518115234375,-0.6945333480834961,-2.1325440406799316,-1.1691616773605347
1761315615957104000,4.864104248046875,-0.13438639044761658,-0.6804838180541992,-2.145371913909912
1761315615976027000,4.88302685546875,-0.11056335270404816,-0.6737645268440247,-2.3176307678222656
1761315615994950000,4.901949951171875,0.03176405653357506,-0.5198310017585754,-2.055577278137207
1761315616013872600,4.92087255859375,-0.05619794875383377,0.34635040163993835,-1.8240662813186646
1761315616032795600,4.939795654296875,-0.3170297145843506,0.6029062271118164,-1.696399211883545
1761315616051718400,4.958718505859375,-0.4966188073158264,0.5662553906440735,-1.5381897687911987
1761315616070641400,4.977641357421875,-0.6340594291687012,0.30847787857055664,-1.3023263216018677
1761315616089564400,4.996564453125,-0.5906893014907837,-0.12644538283348083,-0.8295305967330933
1761315616108487200,5.015487060546875,-0.41293275356292725,-0.6468872427940369,0.008551862090826035
1761315616127410200,5.03441015625,-0.07391251623630524,-0.8215895891189575,1.1025793552398682
1761315616146333000,5.0533330078125,-0.0030542362947016954,-0.2211267054080963,1.2717839479446411
1761315616165256000,5.072255859375,0.0910162404179573,-0.18081079423427582,1.0567657947540283
1761315616184178700,5.0911787109375,0.20280128717422485,-0.18569757044315338,0.7153021693229675
1761315616203101700,5.110101806640625,0.21440738439559937,0.5900784730911255,0.11483928561210632
1761315616222024400,5.1290244140625,0.2870981991291046,1.8546086549758911,-0.3536805510520935
1761315616240947500,5.147947509765625,0.25472331047058105,2.2101216316223145,-0.3035911023616791
1761315616259870500,5.166870361328125,0.2229592502117157,1.7147246599197388,0.07696675509214401
1761315616278793200,5.185793212890625,0.3286358118057251,1.0842539072036743,0.3555130958557129
1761315616297716200,5.20471630859375,0.4196520745754242,0.5082249045372009,0.43919917941093445
1761315616316639000,5.223638916015625,0.4599680006504059,0.2596100866794586,0.4330907166004181
1761315616335562000,5.24256201171875,0.5002838969230652,-0.11911521852016449,1.155722975730896
1761315616354484700,5.261484619140625,0.4587462842464447,0.2718270421028137,2.4074254035949707
1761315616373407700,5.28040771484375,0.3408527672290802,2.3255717754364014,2.2657089233398438
1761315616392330800,5.299330810546875,0.9119949340820312,1.290109395980835,1.3757044076919556
1761315616411253500,5.31825341796875,1.1771026849746704,-1.4080792665481567,1.6475313901901245
1761315616430176500,5.337176513671875,-0.30481278896331787,-2.404982089996338,1.4245721101760864
1761315616449099300,5.356099365234375,0.6597150564193726,1.2632321119308472,0.45447036623954773
1761315616468022300,5.375022216796875,-0.11178504675626755,0.5674771070480347,-0.46302223205566406
1761315616486945000,5.393945068359375,-0.9859074950218201,0.20707722008228302,-0.5222744345664978
1761315616505868000,5.412867919921875,-0.8386932611465454,-2.4068145751953125,-0.8808417320251465
1761315616524790800,5.431790771484375,-0.37261682748794556,-3.493511915206909,-1.9437923431396484
1761315616543713800,5.4507138671875,0.12033691257238388,-1.8381158113479614,-2.215008497238159
1761315616562636500,5.469636474609375,0.31825143098831177,-0.4990622103214264,-2.2565460205078125
1761315616581559600,5.4885595703125,0.11911521852016449,0.46851983666419983,-2.0561883449554443
1761315616600482600,5.507482666015625,-0.2211267054080963,1.0628741979599,-1.7318283319473267
1761315616619405300,5.5264052734375,-0.4966188073158264,1.2345223426818848,-1.4813809394836426
1761315616638328300,5.545328369140625,-0.731184184551239,0.7794411182403564,-1.2125318050384521
1761315616657251000,5.5642509765625,-0.7391251921653748,-0.4080459773540497,-0.6328377723693848
1761315616676174000,5.583174072265625,-0.5485408306121826,-1.806962490081787,0.3029802441596985
1761315616695097000,5.60209716796875,-0.4886777997016907,-1.8704906702041626,1.2571237087249756
1761315616714019800,5.621019775390625,-0.36223241686820984,-1.4954304695129395,1.43312406539917
1761315616732942800,5.63994287109375,-0.08674030750989914,-1.5962202548980713,1.2723948955535889
1761315616751865600,5.658865478515625,0.18875180184841156,-0.893058717250824,0.7446228265762329
1761315616770788600,5.67778857421875,0.39766156673431396,0.9578084945678711,-0.0916270911693573
1761315616789711400,5.69671142578125,0.40987852215766907,2.6328279972076416,-0.6737645268440247
1761315616808634400,5.71563427734375,0.3414636254310608,2.917482852935791,-0.6206207871437073
1761315616827557000,5.73455712890625,0.3133646547794342,2.0219807624816895,-0.17531315982341766
1761315616846480100,5.753480224609375,0.37261682748794556,0.786771297454834,0.1985253542661667
1761315616865403000,5.77240283203125,0.3249707520008087,0.11911521852016449,0.33535513281822205
1761315616884326000,5.791325927734375,0.2754921019077301,-0.01588202826678753,0.337798535823822
1761315616903249000,5.810248779296875,0.2870981991291046,-0.4080459773540497,0.860683798789978
1761315616922171600,5.829171630859375,0.18569757044315338,-0.8948912620544434,2.494776487350464
1761315616941094700,5.8480947265625,0.18630841374397278,1.919358491897583,3.2259607315063477
1761315616960017400,5.867017333984375,0.3158080279827118,2.605340003967285,1.4166311025619507
1761315616978940400,5.8859404296875,1.4477843046188354,-0.6255075931549072,1.2748382091522217
1761315616997863200,5.90486328125,0.31947311758995056,-2.2773149013519287,3.1037912368774414
1761315617016786200,5.9237861328125,0.19241689145565033,1.166107416152954,0.9834640622138977
1761315617035709200,5.942709228515625,0.42453885078430176,1.678073763847351,-0.6090146899223328
1761315617054632000,5.9616318359375,-0.7879929542541504,-0.648108959197998,-0.8386932611465454
1761315617073555000,5.980554931640625,-1.0146173238754272,-3.0897417068481445,-0.8527427911758423
1761315617092477700,5.999477783203125,-0.499673068523407,-2.269984722137451,-1.5485742092132568
1761315617111400700,6.018400634765625,-0.06719319522380829,-0.7177455425262451,-2.295640468597412
1761315617130323500,6.037323486328125,0.12339114397764206,-0.837471604347229,-2.249216079711914
1761315617149246500,6.05624658203125,0.22967857122421265,-0.8435800671577454,-2.0415279865264893
1761315617168169500,6.07516943359375,0.10750912129878998,-0.021379653364419937,-1.8985896110534668
1761315617187092200,6.09409228515625,-0.09956810623407364,0.46302223205566406,-1.806962490081787
1761315617206015200,6.11301513671875,-0.32252734899520874,0.5992411375045776,-1.687847375869751
1761315617224938000,6.13193798828125,-0.5106683373451233,-0.047646086663007736,-1.3482162952423096
1761315617243861000,6.150861083984375,-0.6236750483512878,-0.9920159578323364,-0.47707170248031616
1761315617262783700,6.16978369140625,-0.5833591222763062,-1.553460955619812,0.8209787011146545
1761315617281706800,6.188706787109375,-0.3701734244823456,-0.7837170362472534,1.8283421993255615
1761315617300629500,6.20762939453125,-0.06291726976633072,-0.16737215220928192,1.9297428131103516
1761315617319552500,6.226552490234375,0.17409147322177887,-0.37506023049354553,1.2247487306594849
1761315617338475500,6.2454755859375,0.3310792148113251,-0.0036650835536420345,0.11422843486070633
1761315617357398300,6.264398193359375,0.42576053738594055,1.2168077230453491,-0.8942803740501404
1761315617376321300,6.2833212890625,0.41476529836654663,2.119105577468872,-1.0146173238754272
1761315617395244000,6.302244140625,0.28160059452056885,2.1197164058685303,-0.3549022674560547
1761315617414167000,6.3211669921875,0.15087927877902985,1.5650670528411865,0.2767138183116913
1761315617433090000,6.340090087890625,0.16065283119678497,1.054322361946106,0.5387672781944275
1761315617452012800,6.3590126953125,0.24494975805282593,0.726908266544342,0.5515950918197632
1761315617470935800,6.377935791015625,0.3695625960826874,0.25411245226860046,0.7128587365150452
1761315617489858600,6.396858642578125,0.648108959197998,-1.4801592826843262,2.266319751739502
1761315617508781600,6.415781494140625,0.43981003761291504,-0.6737645268440247,3.5558183193206787
1761315617527704300,6.434704345703125,0.05986303091049194,2.8612849712371826,1.6951775550842285
1761315617546627300,6.45362744140625,0.9419264793395996,3.197861671447754,0.3970507085323334
1761315617565550000,6.472550048828125,1.3799803256988525,-1.778863549232483,0.9138274788856506
1761315617584473000,6.49147314453125,-0.5076140761375427,-3.026824474334717,1.4813809394836426
1761315617603396000,6.51039599609375,0.2644968628883362,-0.28404396772384644,1.3665416240692139
1761315617622318800,6.52931884765625,0.16004198789596558,1.6304277181625366,-0.07513421028852463
1761315617641241900,6.548241943359375,-0.5986303091049194,0.33535513281822205,-0.9223793745040894
1761315617660164600,6.56716455078125,-0.9468132257461548,-2.7531650066375732,-1.2998830080032349
1761315617679087600,6.586087646484375,-0.6890357136726379,-4.109932899475098,-1.7953563928604126
1761315617698010600,6.6050107421875,-0.20768806338310242,-2.2828125953674316,-2.150258779525757
1761315617716933400,6.623933349609375,0.22479179501533508,-0.4190412163734436,-2.51554536819458
1761315617735856400,6.6428564453125,0.27854636311531067,0.8057075142860413,-2.298694610595703
1761315617754779100,6.661779052734375,0.20707722008228302,1.5161992311477661,-2.003044605255127
1761315617773702100,6.6807021484375,0.03176405653357506,1.7306066751480103,-1.8234554529190063
1761315617792625000,6.699625,-0.208298921585083,1.300493836402893,-1.7916914224624634
1761315617811548000,6.7185478515625,-0.3518480062484741,-0.4605788290500641,-1.3848670721054077
1761315617830470700,6.737470703125,-0.3665083646774292,-2.214397668838501,-0.2516690790653229
1761315617849393700,6.7563935546875,-0.5204418897628784,-2.6444342136383057,0.9877400398254395
1761315617868316700,6.775316650390625,-0.6988092660903931,-1.937072992324829,1.4874894618988037
1761315617887239400,6.794239501953125,-0.31031039357185364,-1.6194324493408203,1.5962202548980713
1761315617906162400,6.813162353515625,0.1698155403137207,-1.1813786029815674,1.26872980594635
1761315617925085200,6.832085205078125,0.4086568057537079,0.129499614238739,0.21379654109477997
1761315617944008200,6.85100830078125,0.42576053738594055,1.8930920362472534,-0.6896465420722961
1761315617962931200,6.86993115234375,0.5015056133270264,3.026824474334717,-0.8680139780044556
1761315617981854000,6.88885400390625,0.5112791657447815,3.2284040451049805,-0.5381564497947693
1761315618000777000,6.90777685546875,0.4691306948661804,2.4532389640808105,0.0525328628718853
1761315618019699700,6.92669970703125,0.573585569858551,1.5229185819625854,0.4318690001964569
1761315618038622700,6.945622802734375,0.6853706240653992,0.7501204609870911,0.4703523814678192
1761315618057545500,6.96454541015625,0.8301414251327515,-1.409911870956421,1.8967571258544922
1761315618076468500,6.983468505859375,0.7837170362472534,-2.694523572921753,3.7897727489471436
1761315618095391200,7.00239111328125,0.6639909744262695,1.1618314981460571,2.998114585876465
1761315618114314200,7.021314208984375,0.7043069005012512,3.226571559906006,0.4049917459487915
1761315618133237200,7.0402373046875,1.1013575792312622,3.101958751678467,0.06352811306715012
1761315618152160000,7.059159912109375,0.04703523963689804,-2.3176307678222656,1.664635181427002
1761315618171083000,7.0780830078125,-1.1453386545181274,-3.267498254776001,1.899200439453125
1761315618190005800,7.097005859375,1.1031901836395264,1.5137559175491333,0.5717530250549316
1761315618208928800,7.1159287109375,0.8600729703903198,1.3543246984481812,-0.962695300579071
1761315618227851800,7.134851806640625,-0.6908682584762573,0.1588202863931656,-1.0463813543319702
1761315618246774500,7.1537744140625,-1.525972843170166,-1.041494607925415,-0.8637380003929138
1761315618265697500,7.172697509765625,-1.511312484741211,-2.5747976303100586,-1.5131449699401855
1761315618284620300,7.191620361328125,-0.9535325765609741,-2.897324800491333,-1.970058798789978
1761315618303543300,7.210543212890625,-0.5870242118835449,-2.0280892848968506,-2.0317542552948
1761315618322466000,7.229466064453125,-0.07085828483104706,-0.8612946271896362,-1.8875943422317505
1761315618341389000,7.24838916015625,0.10384403169155121,0.5424323678016663,-1.673187017440796
1761315618360311800,7.267311767578125,-0.007941014133393764,1.4459518194198608,-1.6114914417266846
1761315618379234800,7.28623486328125,-0.2351761907339096,1.604161262512207,-1.5485742092132568
1761315618398157600,7.305157470703125,-0.34818294644355774,0.9810206890106201,-0.999346137046814
1761315618417080600,7.32408056640625,-0.3683409094810486,-0.30908870697021484,-0.05497625470161438
1761315618436003600,7.343003662109375,-0.35795649886131287,-1.6450880765914917,0.8753440976142883
1761315618454926300,7.36192626953125,-0.416597843170166,-2.3261826038360596,1.1318999528884888
1761315618473849300,7.380849365234375,-0.17225892841815948,-2.6419906616210938,0.8081509470939636
1761315618492772000,7.399772216796875,0.22051586210727692,-2.3090789318084717,0.47951510548591614
1761315618511695000,7.418695068359375,0.28098973631858826,-0.911384105682373,0.22967857122421265
1761315618530617900,7.437617919921875,0.24556060135364532,1.3903647661209106,-0.16309621930122375
1761315618549540900,7.456540771484375,0.22601348161697388,3.0494258403778076,-0.34818294644355774
1761315618568464000,7.4754638671875,0.17775654792785645,3.473353862762451,-0.19913621246814728
1761315618587386600,7.49438671875,0.14782503247261047,2.73789381980896,0.27915719151496887
1761315618606309600,7.5133095703125,0.14843589067459106,1.6927341222763062,0.5796940326690674
1761315618625232400,7.532232421875,0.2754921019077301,0.8515210747718811,0.5668662786483765
1761315618644155400,7.5511552734375,0.4220954477787018,0.29320669174194336,0.4831801950931549
1761315618663078100,7.570078125,0.6994200944900513,-0.6255075931549072,1.203369140625
1761315618682001200,7.589001220703125,0.8661814332008362,-1.4911545515060425,3.637671709060669
1761315618700924200,7.607924072265625,0.7232431769371033,1.8326181173324585,3.779388427734375
1761315618719847000,7.626846923828125,1.096470832824707,2.0195374488830566,1.2589561939239502
1761315618738770000,7.64577001953125,1.5638453960418701,0.6468872427940369,1.8258987665176392
1761315618757692700,7.664692626953125,0.4300364851951599,0.46546560525894165,1.4538928270339966
1761315618776615700,7.68361572265625,0.8783983588218689,1.3586006164550781,-0.08124268800020218
1761315618795538400,7.702538330078125,-0.1301104724407196,-0.5002838969230652,-0.41537612676620483
1761315618814461400,7.72146142578125,-1.5840033292770386,-2.9132068157196045,-0.24250635504722595
1761315618833384200,7.74038427734375,-0.9767447710037231,-1.7483211755752563,-0.966971218585968
1761315618852307200,7.75930712890625,-0.17348061501979828,-1.9883841276168823,-1.7275524139404297
1761315618871230200,7.778230224609375,-0.08307522535324097,-1.991438388824463,-2.393375873565674
1761315618890153000,7.797153076171875,0.07207997888326645,-1.5461307764053345,-2.7537758350372314
1761315618909076000,7.816075927734375,0.11056335270404816,-1.1783243417739868,-2.3927650451660156
1761315618927998700,7.834998779296875,-0.15149012207984924,-0.1435490995645523,-1.8466676473617554
1761315618946921700,7.853921630859375,-0.29259583353996277,0.6132906675338745,-1.7434344291687012
1761315618965844500,7.872844482421875,-0.4703523814678192,1.2333005666732788,-1.7751984596252441
1761315618984767500,7.891767578125,-0.5925218462944031,1.1593880653381348,-1.4728291034698486
1761315619003690200,7.910690185546875,-0.5699204802513123,0.24006296694278717,-0.6462764143943787
1761315619022613200,7.92961328125,-0.42514967918395996,-0.7757760286331177,0.46485477685928345
1761315619041536300,7.948536376953125,-0.5045598149299622,-0.7140804529190063,0.9797990322113037
1761315619060459000,7.967458984375,-0.33596599102020264,-0.5815265774726868,0.8276980519294739
1761315619079382000,7.986382080078125,0.18814095854759216,-0.8313631415367126,0.7275190949440002
1761315619098304800,8.0053046875,0.3799470067024231,-0.7379034757614136,0.6817055344581604
1761315619117227800,8.024227783203125,0.2742704153060913,0.554649293422699,0.4618005156517029
1761315619136150500,8.043150634765626,0.2351761907339096,2.3829915523529053,-0.04459185153245926
1761315619155073500,8.062073486328124,0.30664533376693726,3.101958751678467,-0.3408527672290802
1761315619173996300,8.080996337890625,0.3170297145843506,2.491722345352173,-0.038483377546072006
1761315619192919300,8.099919189453125,0.29565006494522095,1.6224867105484009,0.24617144465446472
1761315619211842000,8.118842041015625,0.30603447556495667,0.9639169573783875,0.3561239540576935
1761315619230765000,8.13776513671875,0.29626092314720154,-0.21868331730365753,0.833195686340332
1761315619249687800,8.156687744140624,0.15210096538066864,-3.0323221683502197,2.607783317565918
1761315619268610800,8.17561083984375,0.008551862090826035,-1.686625599861145,3.893005847930908
1761315619287533600,8.194533447265625,0.04703523963689804,2.219895362854004,1.6237083673477173
1761315619306456600,8.21345654296875,1.1404517889022827,3.6541645526885986,-0.03787253051996231
1761315619325379600,8.232379638671874,1.4667205810546875,1.4294589757919312,2.055577278137207
1761315619344302300,8.25130224609375,-0.3567348122596741,-0.6389462351799011,1.742823600769043
1761315619363225300,8.270225341796875,0.6597150564193726,1.8283421993255615,0.3671191930770874
1761315619382148000,8.289148193359376,0.09345962852239609,0.21501824259757996,-0.3689517378807068
1761315619401071000,8.308071044921874,-0.8338065147399902,-1.1288456916809082,-0.7696675658226013
1761315619419993900,8.326993896484375,-0.6945333480834961,-2.445908784866333,-1.1532796621322632
1761315619438916900,8.345916748046875,-0.2864873707294464,-2.4526281356811523,-1.8778208494186401
1761315619457839600,8.364839599609375,-0.1325538605451584,-1.8149036169052124,-2.2907536029815674
1761315619476762600,8.3837626953125,-0.10017894953489304,-1.7611490488052368,-2.2931969165802
1761315619495685400,8.402685302734374,-0.03420744836330414,-1.4013599157333374,-2.0421388149261475
1761315619514608400,8.4216083984375,-0.2217375487089157,-0.3903313875198364,-1.7244981527328491
1761315619533531100,8.44053125,-0.3555130958557129,0.10628741979598999,-1.5168100595474243
1761315619552454100,8.4594541015625,-0.291374146938324,-0.031153209507465363,-1.3292036056518555
1761315619571377000,8.478376953125,-0.45141613483428955,-0.38544461131095886,-0.869235634803772
1761315619590300000,8.4972998046875,-0.7696675658226013,-0.5833591222763062,0.1178935244679451
1761315619609223000,8.516222900390625,-0.9517000317573547,-0.5961869359016418,1.243685007095337
1761315619628145700,8.535145751953126,-0.7006418108940125,-0.5057815313339233,1.8869835138320923
1761315619647068700,8.554068603515624,-0.1050657257437706,-1.13800847530365,1.6762412786483765
1761315619665991400,8.572991455078125,0.29381752014160156,-1.3102673292160034,0.46607646346092224
1761315619684914400,8.59191455078125,0.5051707029342651,0.2651077210903168,-0.7085828185081482
1761315619703837200,8.610837158203125,0.47646087408065796,1.8643821477890015,-1.1099094152450562
1761315619722760200,8.62976025390625,0.3280249834060669,2.8661715984344482,-0.8515210747718811
1761315619741683000,8.648682861328124,0.26755109429359436,2.8063087463378906,-0.12216944992542267
1761315619760606000,8.66760595703125,0.30908870697021484,1.7220547199249268,0.3946073353290558
1761315619779528700,8.68652880859375,0.26694026589393616,0.5436540842056274,0.4343124032020569
1761315619798451700,8.70545166015625,0.24433889985084534,0.07207997888326645,0.43858832120895386
1761315619817374500,8.72437451171875,0.183865025639534,-0.46424391865730286,1.159998893737793
1761315619836297500,8.74329736328125,-0.18630841374397278,-1.4337348937988281,2.8783886432647705
1761315619855220200,8.76222021484375,-0.2748812735080719,0.2510582208633423,4.460559368133545
1761315619874143200,8.781143310546875,0.02748812735080719,1.4893219470977783,2.790426731109619
1761315619893066000,8.80006591796875,1.1422843933105469,1.849721908569336,0.2223484069108963
1761315619911989000,8.818989013671874,1.5943876504898071,3.100126266479492,2.7024645805358887
1761315619930911700,8.837911865234375,0.5558710098266602,1.0072871446609497,0.7482879161834717
1761315619949834800,8.856834716796875,0.7971556782722473,1.6982316970825195,-0.16309621930122375
1761315619968757500,8.875757568359376,-0.15454435348510742,0.06352811306715012,-0.8955020904541016
1761315619987680500,8.894680419921874,-0.8686248064041138,-2.5919013023376465,-0.860683798789978
1761315620006603300,8.913603271484375,-0.9455915689468384,-4.057400226593018,-0.9969027042388916
1761315620025526300,8.9325263671875,-0.15393351018428802,-1.475272536277771,-1.6750195026397705
1761315620044449000,8.951448974609375,0.11545012891292572,-0.7696675658226013,-2.1746926307678223
1761315620063372000,8.9703720703125,0.1435490995645523,-1.3328686952590942,-2.38482403755188
1761315620082294800,8.989294677734375,0.017714571207761765,-1.0720369815826416,-2.277925729751587
1761315620101217800,9.0082177734375,-0.1575985997915268,-0.40987852215766907,-2.108110189437866
1761315620120140500,9.027140625,-0.32130566239356995,0.3261924386024475,-2.06412935256958
1761315620139063600,9.0460634765625,-0.45141613483428955,0.7800519466400146,-2.049468994140625
1761315620157986300,9.064986328125,-0.49051034450531006,0.393385648727417,-1.673797845840454
1761315620176909300,9.083909423828125,-0.38544461131095886,-0.6456655263900757,-0.6474980711936951
1761315620195832000,9.10283203125,-0.17225892841815948,-1.4893219470977783,0.5748072862625122
1761315620214755000,9.121755126953126,-0.16737215220928192,-1.6762412786483765,1.0720369815826416
1761315620233678000,9.140677978515624,-0.09284878522157669,-1.8686580657958984,1.175881028175354
1761315620252600800,9.159600830078125,0.22051586210727692,-1.806962490081787,1.277281641960144
1761315620271523600,9.178523681640625,0.2864873707294464,-0.8179244995117188,1.1355650424957275
1761315620290446600,9.197446533203125,0.1704263836145401,1.6108806133270264,0.5564818382263184
1761315620309369300,9.216369384765626,0.15271180868148804,3.593690872192383,-0.009773556143045425
1761315620328292400,9.235292236328124,0.2736595869064331,4.396420478820801,-0.1960819661617279
1761315620347215000,9.254215087890625,0.5326588153839111,4.039074897766113,0.2363978922367096
1761315620366138000,9.27313818359375,0.7464553713798523,2.6908586025238037,0.7262973785400391
1761315620385060900,9.292060791015626,0.6762079000473022,1.3023263216018677,0.7794411182403564
1761315620403984000,9.31098388671875,0.5057815313339233,-0.3365768492221832,0.9816315174102783
1761315620422907000,9.329906982421875,0.09773556143045425,-1.4300698041915894,1.6847931146621704
1761315620441829600,9.34882958984375,-0.42331716418266296,-1.2913310527801514,2.711627244949341
1761315620460752400,9.36775244140625,-0.49417543411254883,-0.47951510548591614,2.631606340408325
1761315620479675400,9.38667529296875,-0.5448757410049438,-1.6994534730911255,2.778209686279297
1761315620498598100,9.40559814453125,0.04459185153245926,-1.867436408996582,1.8057408332824707
1761315620517521200,9.424521240234375,0.6340594291687012,1.821012020111084,0.2626643180847168
1761315620536444000,9.44344384765625,1.317597508430481,2.083676338195801,-0.6542174220085144
1761315620555367000,9.462366943359376,0.4556920528411865,0.49417543411254883,-0.7116370797157288
1761315620574289700,9.48128955078125,-0.27915719151496887,-1.5320812463760376,-0.6261184215545654
1761315620593212700,9.500212646484375,-0.33352261781692505,-2.492333173751831,-0.8985562920570374
1761315620612135400,9.519135498046875,-0.09040539711713791,-1.9169150590896606,-1.6890690326690674
1761315620631058400,9.538058349609376,-0.007330167107284069,-1.8533869981765747,-2.1643083095550537
1761315620649981200,9.556981201171874,-0.07330167293548584,-1.9205801486968994,-2.3512275218963623
1761315620668904200,9.575904296875,-0.28343313932418823,-1.3946406841278076,-2.214397668838501
1761315620687827000,9.594826904296875,-0.3268032968044281,-0.19424942135810852,-2.029921770095825
1761315620706750000,9.61375,-0.3304683566093445,0.46851983666419983,-1.9346296787261963
1761315620725672700,9.632672607421876,-0.3384093940258026,1.0421054363250732,-1.8930920362472534
1761315620744595700,9.651595703125,-0.37322768568992615,1.4893219470977783,-1.7379368543624878
1761315620763518500,9.6705185546875,-0.3549022674560547,1.277281641960144,-1.3781477212905884
1761315620782441500,9.68944140625,-0.16248537600040436,0.38605546951293945,-0.5467082858085632
1761315620801364200,9.7083642578125,0.20219044387340546,-0.8655705451965332,0.869846522808075
1761315620820287200,9.727287353515624,0.10384403169155121,-1.6438663005828857,1.8875943422317505
1761315620839210000,9.7462099609375,-0.07391251623630524,-1.6621917486190796,1.984719157218933
1761315620858132700,9.7651328125,-0.043981000781059265,-1.2803359031677246,1.2791141271591187
1761315620877055700,9.7840556640625,-0.017714571207761765,0.5680879354476929,0.1575985997915268
1761315620895978800,9.802978759765624,-0.0018325417768210173,2.4642341136932373,-0.6933116316795349
1761315620914901500,9.821901611328125,0.07574506103992462,3.4568610191345215,-0.9107732772827148
1761315620933824300,9.84082421875,0.08796200156211853,3.4538068771362305,-0.5320479869842529
1761315620952747300,9.859747314453125,0.16737215220928192,1.9297428131103516,0.11667182296514511
1761315620971670000,9.878669921875,0.2895416021347046,0.20096874237060547,0.4037700295448303
1761315620990593000,9.897593017578124,0.24006296694278717,-0.42392799258232117,0.4715740978717804
1761315621009515800,9.916515869140625,0.4190412163734436,-1.2198619842529297,1.7135028839111328
1761315621028438800,9.935438720703125,0.4715740978717804,-2.2064566612243652,4.15818977355957
1761315621047361500,9.954361572265626,0.08674030750989914,0.7898254990577698,4.587615489959717
1761315621066284500,9.973284423828124,-0.47646087408065796,0.8405258059501648,1.2650647163391113
1761315621085207300,9.992207275390625,0.10628741979598999,1.6139347553253174,2.472175121307373
1761315621113591600,10.020591552734375,0.4581354558467865,0.2357870489358902,0.5338805317878723
1761315621132514600,10.0395146484375,0.9907942414283752,1.273005723953247,-0.21379654109477997
1761315621151437300,10.058437255859374,0.19913621246814728,0.037261683493852615,-1.0323318243026733
1761315621170360300,10.0773603515625,-0.44103172421455383,-3.131279468536377,-1.1056334972381592
1761315621189283000,10.096282958984375,-0.27121618390083313,-3.541768789291382,-1.2259705066680908
1761315621208206000,10.1152060546875,0.3555130958557129,-1.9627286195755005,-2.127657413482666
1761315621227128800,10.13412890625,0.5033381581306458,-1.474050760269165,-2.511880397796631
1761315621246051600,10.153051513671874,0.17714570462703705,-1.5668995380401611,-2.390321731567383
1761315621264974600,10.171974609375,0.037261683493852615,-1.0628741979599,-1.9211909770965576
1761315621283897300,10.1908974609375,-0.04337015375494957,-0.4850127100944519,-1.7580947875976562
1761315621302820400,10.2098203125,-0.15149012207984924,-0.08368607610464096,-1.8857618570327759
1761315621321743000,10.2287431640625,-0.24067382514476776,0.337798535823822,-1.8784316778182983
1761315621340666000,10.247666015625,-0.2767138183116913,0.15943112969398499,-1.3634874820709229
1761315621359588900,10.2665888671875,-0.20768806338310242,-0.446529358625412,-0.41232189536094666
1761315621378512000,10.285511962890626,-0.0036650835536420345,-1.0866972208023071,0.4960079789161682
1761315621397434600,10.3044345703125,0.1832541823387146,-1.5638453960418701,0.8399149775505066
1761315621416357600,10.323357666015625,0.0916270911693573,-1.8918702602386475,0.8509102463722229
1761315621435280400,10.3422802734375,-0.04581354558467865,-1.7758092880249023,0.7488987445831299
1761315621454203400,10.361203369140625,-0.02748812735080719,-0.7299624681472778,0.6377245187759399
1761315621473126100,10.380126220703126,0.0006108472589403391,1.2876659631729126,0.38483378291130066
1761315621492049000,10.399048828125,0.1044548824429512,3.0225486755371094,0.14843589067459106
1761315621510972000,10.417971923828125,0.2596100866794586,3.594301700592041,0.07207997888326645
1761315621529894700,10.436894775390625,0.36039987206459045,2.958409547805786,0.3781144618988037
1761315621548817700,10.455817626953126,0.5375455617904663,1.8326181173324585,0.7177455425262451
1761315621567740400,10.474740478515624,0.5644228458404541,1.009730577468872,0.8173136115074158
1761315621586663400,10.493663330078125,0.49356457591056824,0.4172086715698242,0.9907942414283752
1761315621605586200,10.512586181640625,0.26816195249557495,-2.404982089996338,2.955355405807495
1761315621624509000,10.531509033203125,-0.2516690790653229,-3.1208949089050293,4.2852463722229
1761315621643432000,10.550431884765626,-1.0702043771743774,-1.199093222618103,2.521043062210083
1761315621662354700,10.569354736328124,-0.7641699314117432,-3.5399363040924072,2.8557872772216797
1761315621681277700,10.588277587890625,0.0525328628718853,1.0421054363250732,2.1062777042388916
1761315621700200400,10.607200439453125,0.6077930331230164,2.5222647190093994,0.32191649079322815
1761315621719123200,10.626123291015626,0.39766156673431396,1.9285211563110352,-0.237008735537529
1761315621738046200,10.645046142578124,-0.3927747905254364,-0.4367557764053345,-1.0769237279891968
1761315621756969000,10.663968994140625,-0.6084038615226746,-1.951122522354126,-1.5192534923553467
1761315621775892000,10.68289208984375,-0.46302223205566406,-2.2137868404388428,-2.09039568901062
1761315621794814700,10.701814697265625,-0.208298921585083,-1.7177788019180298,-2.3322911262512207
1761315621813737700,10.72073779296875,0.12644538283348083,-1.5045931339263916,-2.255324363708496
1761315621832660500,10.739660400390624,0.2718270421028137,-1.4960412979125977,-2.1441502571105957
1761315621851583500,10.75858349609375,0.24433889985084534,-1.0854755640029907,-2.072070360183716
1761315621870506200,10.77750634765625,0.3176405727863312,-0.23212195932865143,-2.084897994995117
1761315621889429000,10.796428955078126,0.3781144618988037,0.7061394453048706,-2.2852559089660645
1761315621908352000,10.81535205078125,0.35978904366493225,0.9883508682250977,-2.3310694694519043
1761315621927274800,10.834274658203125,0.5247178077697754,0.061084724962711334,-1.8955353498458862
1761315621946197800,10.85319775390625,0.7745543122291565,-1.5968310832977295,-1.0164498090744019
1761315621965120500,10.87212060546875,0.7183563709259033,-3.568035125732422,0.37200596928596497
1761315621984043300,10.891043212890626,0.18081079423427582,-4.461781024932861,1.2876659631729126
1761315622002966300,10.90996630859375,-0.07757759839296341,-3.61751389503479,1.5326920747756958
1761315622021889000,10.928888916015625,-0.06719319522380829,-0.13988402485847473,1.7721441984176636
1761315622040812000,10.94781201171875,-0.3658975064754486,2.6267194747924805,1.6408120393753052
1761315622059734800,10.96673486328125,-0.6224533319473267,4.426962852478027,1.409911870956421
1761315622078657800,10.98565771484375,-0.6749862432479858,5.359726428985596,1.1893196105957031
1761315622097580500,11.00458056640625,-0.5821374654769897,5.6309428215026855,0.9443698525428772
1761315622116503300,11.02350341796875,-0.3671191930770874,4.977947235107422,0.5173876285552979
1761315622135426300,11.04242626953125,-0.22051586210727692,3.6071293354034424,0.17653486132621765
1761315622154349000,11.06134912109375,-0.11911521852016449,2.1838552951812744,0.08918370306491852
1761315622173272000,11.08027197265625,-0.1325538605451584,-1.298661231994629,1.345162034034729
1761315622192194800,11.09919482421875,-0.7922688722610474,-6.586308002471924,4.235156536102295
1761315622211117600,11.11811767578125,-0.4196520745754242,-4.8789896965026855,3.6657707691192627
1761315622230040600,11.13704052734375,0.6114581227302551,0.6859814524650574,1.3096565008163452
1761315622248963300,11.15596337890625,0.18875180184841156,3.0805790424346924,1.3787586688995361
1761315622267886300,11.17488623046875,-0.10323318839073181,4.136199474334717,-0.12278030067682266
1761315622286809000,11.19380908203125,-0.17531315982341766,-0.17897824943065643,-0.9553651213645935
1761315622305731800,11.21273193359375,-0.6065713167190552,-4.348163604736328,-1.6744086742401123
1761315622324654800,11.23165478515625,-0.33291175961494446,-5.762885570526123,-2.014650583267212
1761315622343577600,11.25057763671875,0.19913621246814728,-4.05312442779541,-1.9010330438613892
1761315622362500600,11.26950048828125,0.3042019307613373,-1.045770525932312,-2.0403060913085938
1761315622381423400,11.28842333984375,0.2089097648859024,0.3549022674560547,-2.4501848220825195
1761315622400346000,11.30734619140625,0.1575985997915268,1.1264023780822754,-2.712238073348999
1761315622419269000,11.32626904296875,0.23334364593029022,1.690901517868042,-2.8759453296661377
1761315622438191900,11.34519189453125,0.2748812735080719,1.4600013494491577,-2.836851119995117
1761315622457114600,11.364114501953125,0.14782503247261047,0.32130566239356995,-2.5088260173797607
1761315622476037600,11.38303759765625,0.08246438205242157,-0.9907942414283752,-2.2064566612243652
1761315622494960400,11.40196044921875,0.08612946420907974,-1.3720393180847168,-1.0231691598892212
1761315622513883400,11.42088330078125,-0.12644538283348083,-1.0298885107040405,1.5497958660125732
1761315622532806100,11.43980615234375,-0.7177455425262451,-2.020148277282715,2.0708484649658203
1761315622551729000,11.45872900390625,-0.446529358625412,-1.9358513355255127,2.142317771911621
1761315622570652000,11.47765185546875,-0.1716480851173401,-1.1264023780822754,1.9779998064041138
1761315622589574700,11.49657470703125,0.17714570462703705,0.2767138183116913,1.4685531854629517
1761315622608497700,11.51549755859375,0.46607646346092224,1.5815598964691162,0.9315420985221863
1761315622627420400,11.53442041015625,0.43858832120895386,2.2999162673950195,0.6053496599197388
1761315622646343200,11.55334326171875,0.023823043331503868,2.3048031330108643,0.6157340407371521
1761315622665266200,11.57226611328125,-0.8594620823860168,1.3029371500015259,1.1178505420684814
1761315622684189000,11.59118896484375,-1.4196853637695312,-0.02993151545524597,1.9218018054962158
1761315622703111700,11.610111572265625,-0.5063923597335815,-1.2870551347732544,2.845402956008911
1761315622722034700,11.62903466796875,0.7024743556976318,-1.6970100402832031,3.8508574962615967
1761315622740957400,11.64795751953125,0.6890357136726379,-1.734271764755249,3.1819796562194824
1761315622759880200,11.666880126953124,-0.08246438205242157,-0.15087927877902985,2.6291630268096924
1761315622778803200,11.68580322265625,-2.6731438636779785,-2.0403060913085938,3.955923318862915
1761315622797726000,11.704725830078125,-1.1044118404388428,0.09407047927379608,1.8466676473617554
1761315622816649000,11.72364892578125,-0.07452336698770523,6.681065559387207,-0.7702783942222595
1761315622835571700,11.74257177734375,-0.888171911239624,4.583950519561768,-1.1911520957946777
1761315622854494500,11.761494384765625,-0.40010493993759155,0.6499415040016174,-0.15271180868148804
1761315622873417500,11.78041748046875,0.3127537965774536,-0.23028941452503204,-0.4874561131000519
1761315622892340200,11.79934033203125,-1.1642749309539795,0.4159869849681854,-1.6890690326690674
1761315622911263000,11.818262939453126,-0.6016845703125,0.9852966070175171,-1.5229185819625854
1761315622930186000,11.83718603515625,-0.30847787857055664,-0.036039989441633224,-1.6249300241470337
1761315622949108700,11.856108642578125,0.10384403169155121,-1.2369656562805176,-1.936462163925171
1761315622968031500,11.875031494140625,0.5021164417266846,-1.0781453847885132,-1.6206541061401367
1761315622986954500,11.89395458984375,0.448361873626709,-2.0079312324523926,-1.0671501159667969
1761315623005877200,11.912877197265624,-0.26632940769195557,-2.0647401809692383,-1.035996913909912
1761315623024800300,11.93180029296875,-0.5125008225440979,-2.8545656204223633,-0.2999260127544403
1761315623043723000,11.950722900390625,0.6768187880516052,-3.0665295124053955,-1.058598279953003
1761315623062645800,11.969645751953125,0.9883508682250977,-2.3805482387542725,-0.9468132257461548
1761315623081568800,11.98856884765625,0.8246437907218933,-1.3127107620239258,-0.4886777997016907
1761315623100491500,12.007491455078124,0.9095515608787537,-0.5998520255088806,-0.30786702036857605
1761315623119414300,12.026414306640625,1.1264023780822754,-0.16004198789596558,-0.2351761907339096
1761315623138337300,12.045337158203125,1.2174185514450073,0.10140064358711243,-0.08674030750989914
1761315623157260000,12.064260009765626,-0.08735115826129913,2.8258557319641113,0.22845686972141266
1761315623176182800,12.083182861328124,-0.6890357136726379,5.754944801330566,0.6927008032798767
1761315623195105800,12.102105712890625,0.20280128717422485,4.258368968963623,1.0524898767471313
1761315623214028500,12.121028564453125,1.0024003982543945,-0.11117420345544815,1.2638429403305054
1761315623232951300,12.139951416015625,1.646309733390808,-3.1410529613494873,1.3860887289047241
1761315623251874300,12.158874267578126,2.081843852996826,-2.321295976638794,0.5986303091049194
1761315623270797000,12.177797119140624,2.91137433052063,-1.1086877584457397,0.02748812735080719
1761315623289719800,12.1967197265625,3.120284080505371,0.8619054555892944,0.24678228795528412
1761315623308642800,12.215642822265625,3.8368079662323,8.124497413635254,3.781831741333008
1761315623327565600,12.234565673828126,5.536872386932373,11.364507675170898,2.697577953338623
1761315623346488300,12.25348828125,3.877734661102295,0.9407047629356384,1.6573050022125244
1761315623365411300,12.272411376953125,2.194239616394043,-5.35483980178833,0.2724378705024719
1761315623384334000,12.291333984375,2.36833119392395,-2.679863214492798,1.8240662813186646
1761315623403256800,12.3102568359375,1.7959673404693604,1.3531030416488647,1.505814790725708
1761315623422179800,12.329179931640626,1.276059865951538,3.268109083175659,-0.24067382514476776
1761315623441102600,12.3481025390625,0.9462023973464966,3.5906364917755127,-0.4434750974178314
1761315623460025300,12.367025390625,0.5241069197654724,4.955345630645752,-0.5241069197654724
1761315623478948000,12.385947998046875,0.8191461563110352,6.141611099243164,-1.6957883834838867
1761315623497871000,12.40487109375,1.3836454153060913,6.7665839195251465,-1.7348825931549072
1761315623516793900,12.4237939453125,2.25715708732605,6.316924095153809,-1.4868786334991455
1761315623535716600,12.442716552734375,2.5289840698242188,2.127046585083008,-1.3273711204528809
1761315623554639600,12.4616396484375,2.781263828277588,-0.6206207871437073,-1.6719653606414795
1761315623573562400,12.480562255859375,1.753208041191101,-1.9804431200027466,-1.5278053283691406
1761315623592485000,12.499485107421876,-0.5302154421806335,-1.4349565505981445,-1.2381874322891235
1761315623611408100,12.518408203125,-2.4795053005218506,0.2211267054080963,-1.0017894506454468
1761315623630331000,12.537330810546875,-3.4593043327331543,1.7556513547897339,-0.5210527181625366
1761315623649253600,12.556253662109375,-3.871626377105713,2.6328279972076416,0.38788801431655884
1761315623668176600,12.5751767578125,-4.018305778503418,0.3042019307613373,0.5748072862625122
1761315623687099400,12.594099365234374,-4.587615489959717,-4.935798645019531,-0.7482879161834717
1761315623706022100,12.613022216796875,-4.1465840339660645,-2.694523572921753,2.648710012435913
1761315623724945200,12.631945068359375,-3.635228395462036,-1.8723231554031372,4.871048927307129
1761315623743868000,12.650867919921875,-2.903433322906494,-2.9559662342071533,6.099462509155273
1761315623762790700,12.669790771484376,-2.3555033206939697,-3.2980406284332275,6.849048614501953
1761315623781713400,12.68871337890625,-1.5455199480056763,-2.280980110168457,7.170965194702148
1761315623800636400,12.707636474609375,-0.4306473135948181,-0.5369347333908081,7.166078090667725
1761315623819559200,12.72655908203125,0.6377245187759399,0.16370706260204315,6.502621650695801
1761315623838482000,12.74548193359375,1.5265836715698242,-1.5424656867980957,4.405583381652832
1761315623857405000,12.764405029296874,2.492333173751831,0.25777754187583923,2.9095418453216553
1761315623876327700,12.78332763671875,3.7176928520202637,2.8441812992095947,1.6896798610687256
1761315623895250400,12.80225048828125,4.248595237731934,4.275472640991211,0.2754921019077301
1761315623914173400,12.82117333984375,4.24981689453125,4.333503246307373,-1.1019684076309204
1761315623933096200,12.84009619140625,3.6944806575775146,0.938872218132019,-0.648108959197998
1761315623952019000,12.85901904296875,2.6969668865203857,-5.187467575073242,3.6938698291778564
1761315623970941700,12.877941650390625,1.991438388824463,-8.231395721435547,5.415924549102783
1761315623989864400,12.896864501953125,1.0103414058685303,-3.1587674617767334,5.327962398529053
1761315624008787500,12.915787353515626,1.3677634000778198,1.0384403467178345,2.5460877418518066
1761315624027710200,12.934710205078124,-0.18569757044315338,1.9126391410827637,0.21562908589839935
1761315624046633000,12.953633056640625,-0.0647498071193695,0.9236010313034058,-0.8014315962791443
1761315624065556000,12.972555908203125,0.18142163753509521,-0.8936695456504822,-0.8276980519294739
1761315624084478700,12.991478759765625,0.42759308218955994,-1.2424633502960205,0.3035911023616791
1761315624103401500,13.0104013671875,0.5442649126052856,-1.4062467813491821,1.714113712310791
1761315624122324500,13.029324462890624,0.629172682762146,-1.2375766038894653,2.055577278137207
1761315624141247200,13.048247314453125,0.6682668924331665,-0.49295374751091003,0.9877400398254395
1761315624160170000,13.067169921875,0.4324798583984375,-0.18814095854759216,0.130721315741539
1761315624179092700,13.0860927734375,-0.037261683493852615,-0.08979454636573792,-0.07574506103992462
1761315624198015500,13.105015380859374,-0.4214846193790436,-0.04825693368911743,-0.009773556143045425
1761315624216938500,13.1239384765625,-0.4416425824165344,-0.27854636311531067,0.20341213047504425
1761315624235861200,13.142861328125,-0.29259583353996277,-0.5283828973770142,0.395218163728714
1761315624254784000,13.161783935546875,-0.16004198789596558,-0.758672297000885,0.4709632396697998
1761315624273707000,13.18070703125,-0.25655585527420044,-0.9504783153533936,0.5619794726371765
1761315624292629800,13.199629638671874,-0.5308262705802917,-1.199093222618103,0.6572716236114502
1761315624311552500,13.218552490234375,-0.7666133046150208,-1.4209071397781372,0.7653915882110596
1761315624330475300,13.237475341796875,-0.8252546191215515,-1.3757044076919556,0.9217684864997864
1761315624349398300,13.256398193359376,-0.4581354558467865,-1.2846118211746216,0.8472451567649841
1761315624368321000,13.275321044921874,-0.05741964280605316,-1.0335536003112793,0.4416425824165344
1761315624387243800,13.294243896484375,0.1704263836145401,-0.786771297454834,0.1850867122411728
1761315624406166500,13.31316650390625,0.3390202224254608,-0.3268032968044281,0.474017471075058
1761315624425089500,13.332089599609375,0.30847787857055664,0.3542914092540741,0.7800519466400146
1761315624444012300,13.35101220703125,0.2217375487089157,0.5399889945983887,0.8936695456504822
1761315624462935000,13.36993505859375,0.1569877415895462,0.416597843170166,0.5961869359016418
1761315624481857800,13.38885791015625,0.02504473738372326,0.4599680006504059,0.2101314514875412
1761315624500780800,13.40778076171875,-0.08551861345767975,0.6933116316795349,-0.07024743407964706
1761315624519703600,13.42670361328125,-0.06841489672660828,0.7556180357933044,-0.3139754831790924
1761315624538626300,13.445626220703126,-0.013438640162348747,0.48012593388557434,-0.4978405237197876
1761315624557549000,13.464549072265624,-0.056808795779943466,0.21746163070201874,-0.5076140761375427
1761315624576472000,13.48347216796875,-0.17470231652259827,0.1850867122411728,-0.21379654109477997
1761315624595394800,13.502394775390625,-0.22479179501533508,0.18691925704479218,0.10017894953489304
1761315624614317600,13.521317626953126,-0.30786702036857605,0.16676130890846252,0.34512871503829956
1761315624633240300,13.540240234375,-0.3701734244823456,0.08307522535324097,0.41048935055732727
1761315624652163300,13.559163330078125,-0.2883199155330658,-0.05131116881966591,0.3164188861846924
1761315624671086000,13.578086181640625,-0.18936264514923096,-0.11667182296514511,0.24556060135364532
1761315624690008800,13.5970087890625,-0.12827792763710022,-0.030542362481355667,0.22906772792339325
1761315624708931600,13.615931640625,-0.030542362481355667,-0.017714571207761765,0.37200596928596497
1761315624727854300,13.634854248046874,0.06352811306715012,-0.0390942245721817,0.6035171151161194
1761315624746777300,13.65377734375,0.12278030067682266,0.02626643143594265,0.7733326554298401
1761315624765700000,13.6727001953125,0.2113531529903412,0.12461283802986145,0.7763868570327759
1761315624784622800,13.691622802734376,0.2748812735080719,0.1698155403137207,0.582748293876648
1761315624803545600,13.710545654296874,0.20341213047504425,-0.004275931045413017,0.21746163070201874
1761315624822468600,13.729468505859375,0.07391251623630524,-0.23212195932865143,0.03420744836330414
1761315624841391400,13.748391357421875,0.012827792204916477,-0.22479179501533508,0.014660334214568138
1761315624860314000,13.767314208984375,0.0030542362947016954,-0.07513421028852463,0.11422843486070633
1761315624879236900,13.78623681640625,0.014660334214568138,-0.013438640162348747,0.14782503247261047
1761315624898159900,13.805159912109374,0.04337015375494957,-0.033596597611904144,0.021379653364419937
1761315624917082600,13.82408251953125,0.07452336698770523,-0.1172826737165451,-0.11972606182098389
1761315624936005400,13.84300537109375,0.10995250940322876,-0.0910162404179573,-0.11911521852016449
1761315624954928000,13.86192822265625,0.13744063675403595,0.021990500390529633,-0.01588202826678753
1761315624973851000,13.880850830078124,0.14110571146011353,0.07574506103992462,0.07146912813186646
1761315624992774000,13.89977392578125,0.11117420345544815,0.053143709897994995,0.09468132257461548
1761315625011696600,13.918696533203125,0.034818295389413834,-0.01588202826678753,0.08735115826129913
1761315625030619400,13.937619384765625,-0.033596597611904144,-0.05497625470161438,0.02504473738372326
1761315625049542100,13.956542236328126,-0.06047387793660164,-0.07330167293548584,-0.02993151545524597
1761315625068465200,13.975465087890624,-0.04031591862440109,-0.05864133685827255,-0.08857285231351852
1761315625087388000,13.994387939453125,-0.005497625097632408,-0.06719319522380829,-0.0910162404179573
1761315625106310700,14.013310546875,0.011606098152697086,-0.08429691940546036,-0.03665083646774292
1761315625125233400,14.0322333984375,0.02626643143594265,-0.0659715011715889,0.051922015845775604
1761315625144156200,14.05115625,0.0390942245721817,-0.04337015375494957,0.09651386737823486
1761315625163079200,14.0700791015625,0.04581354558467865,-0.0397050715982914,0.08918370306491852
1761315625182002000,14.089001953125,0.07024743407964706,-0.015271181240677834,0.11117420345544815
1761315625200924700,14.107924560546875,0.10262233763933182,0.030542362481355667,0.11239589750766754
1761315625219847400,14.126847412109376,0.11422843486070633,0.05375456064939499,0.021990500390529633
1761315625238770200,14.145770263671874,0.10873081535100937,0.04092676565051079,-0.13682979345321655
1761315625257693200,14.164693115234375,0.10384403169155121,-0.04153761267662048,-0.3292466700077057
1761315625276616000,14.183615966796875,0.055587101727724075,-0.11300674080848694,-0.3524588644504547
1761315625295538700,14.20253857421875,0.011606098152697086,-0.05008947476744652,-0.28098973631858826
1761315625314461400,14.22146142578125,-0.017714571207761765,-0.02993151545524597,-0.261442631483078
1761315625333384200,14.24038427734375,-0.0659715011715889,-0.10384403169155121,-0.2626643180847168
1761315625352307000,14.259306884765625,-0.10811996459960938,-0.1172826737165451,-0.17775654792785645
1761315625371230000,14.27822998046875,-0.130721315741539,-0.031153209507465363,-0.06902574002742767
1761315625390152700,14.297152587890626,-0.1447708010673523,0.031153209507465363,0.04337015375494957
1761315625409075500,14.316075439453124,-0.14049486815929413,0.0794101431965828,0.09529217332601547
1761315625427998200,14.334998291015625,-0.09284878522157669,0.07207997888326645,0.08307522535324097
1761315625446921000,14.3539208984375,0.011606098152697086,0.036039989441633224,0.05803048983216286
1761315625465844000,14.372843994140625,0.13499724864959717,0.07146912813186646,0.08490777015686035
1761315625484766700,14.3917666015625,0.22906772792339325,0.182643324136734,0.2718270421028137
1761315625503689500,14.410689453125,0.3512371778488159,0.3555130958557129,0.27915719151496887
1761315625522612200,14.4296123046875,0.3658975064754486,0.1973036676645279,-0.17470231652259827
1761315625541535000,14.448534912109375,0.2754921019077301,-0.16859383881092072,-0.5051707029342651
1761315625560457700,14.467457763671876,0.1563768982887268,-0.19302773475646973,-0.518609344959259
