time,seconds_elapsed,z,y,x
1761316222014387000,0.269386962890625,3.0412776470184326,-8.37727165222168,-4.417150497436523
1761316222033309700,0.288309814453125,3.0412776470184326,-8.324629783630371,-4.419543266296387
1761316222052232200,0.307232177734375,3.0484559535980225,-8.37009334564209,-4.402793884277344
1761316222071154700,0.32615478515625,3.170490026473999,-8.470592498779297,-4.429114818572998
1761316222090077200,0.3450771484375,3.16331148147583,-8.396414756774902,-4.376472473144531
1761316222108999700,0.363999755859375,3.153740167617798,-8.4562349319458,-4.369294166564941
1761316222127922400,0.38292236328125,3.129812002182007,-8.477770805358887,-4.369294166564941
1761316222146845000,0.401844970703125,2.9934210777282715,-8.48734188079834,-4.438685894012451
1761316222165767400,0.420767333984375,2.9048867225646973,-8.523234367370605,-4.48414945602417
1761316222184690200,0.439690185546875,2.8833513259887695,-8.530412673950195,-4.462614059448242
1761316222203612700,0.45861279296875,2.847458839416504,-8.449056625366211,-4.273581027984619
1761316222222535200,0.47753515625,3.036491870880127,-8.496912956237793,-4.225724697113037
1761316222241457700,0.496457763671875,3.019742250442505,-8.590232849121094,-4.247260093688965
1761316222260380400,0.51538037109375,2.919243574142456,-8.583054542541504,-4.177868366241455
1761316222279303000,0.534302978515625,2.9479575157165527,-8.614161491394043,-4.132404804229736
1761316222298225400,0.553225341796875,3.0388846397399902,-8.513663291931152,-4.280759811401367
1761316222317148000,0.57214794921875,2.9551360607147217,-8.34138011932373,-4.443471431732178
1761316222336070400,0.5910703125,2.9623143672943115,-8.336593627929688,-4.357329845428467
1761316222354993200,0.6099931640625,3.1657042503356934,-8.449056625366211,-4.342973232269287
1761316222373915600,0.62891552734375,3.060420274734497,-8.408378601074219,-4.443471431732178
1761316222392838100,0.647838134765625,2.9934210777282715,-8.408378601074219,-4.405186653137207
1761316222411761000,0.666760986328125,3.0867412090301514,-8.451449394226074,-4.357329845428467
1761316222430683400,0.685683349609375,3.0795626640319824,-8.37966537475586,-4.321437835693359
1761316222449606000,0.70460595703125,3.091526746749878,-8.429914474487305,-4.381258487701416
1761316222468528400,0.7235283203125,3.0723843574523926,-8.389236450195312,-4.4721856117248535
1761316222487451100,0.742451171875,3.1130621433258057,-8.37966537475586,-4.536791801452637
1761316222506373600,0.76137353515625,3.074777126312256,-8.417949676513672,-4.319045066833496
1761316222525296000,0.780296142578125,3.10109806060791,-8.365307807922363,-4.299902439117432
1761316222544218600,0.799218505859375,3.105883836746216,-8.446663856506348,-4.264009952545166
1761316222563141400,0.818141357421875,3.0723843574523926,-8.468199729919434,-4.235296249389648
1761316222582063900,0.83706396484375,3.1896326541900635,-8.528019905090332,-4.230510234832764
1761316222600986400,0.855986328125,3.239881753921509,-8.535198211669922,-4.254438877105713
1761316222619908900,0.874908935546875,3.074777126312256,-8.46580696105957,-4.254438877105713
1761316222638831600,0.89383154296875,2.9694929122924805,-8.616554260253906,-4.275974273681641
1761316222657754000,0.912754150390625,3.0484559535980225,-8.353343963623047,-4.280759811401367
1761316222676676600,0.931676513671875,3.029313564300537,-8.35573673248291,-4.254438877105713
1761316222695599000,0.95059912109375,3.0245277881622314,-8.504091262817383,-4.240081787109375
1761316222714521600,0.969521484375,2.9168508052825928,-8.528019905090332,-4.252045631408691
1761316222733444400,0.9884443359375,2.9934210777282715,-8.561519622802734,-4.201796531677246
1761316222752366800,1.007366943359375,2.9455647468566895,-8.566305160522461,-4.125226020812988
1761316222771289300,1.026289306640625,2.9072794914245605,-8.61894702911377,-4.101297855377197
1761316222790212000,1.045212158203125,2.943171739578247,-8.592626571655273,-4.101297855377197
1761316222809134600,1.064134521484375,2.926422119140625,-8.575876235961914,-4.067798614501953
1761316222828057000,1.08305712890625,2.8929226398468018,-8.477770805358887,-3.94815731048584
1761316222846979600,1.1019794921875,2.991028308868408,-8.57348346710205,-3.955335855484009
1761316222865902000,1.120902099609375,2.967100143432617,-8.671588897705078,-4.051048755645752
1761316222884824800,1.139824951171875,2.8833513259887695,-8.532805442810059,-4.156332969665527
1761316222903747300,1.158747314453125,2.785245656967163,-8.518448829650879,-4.091726779937744
1761316222922669800,1.177669921875,2.840280532836914,-8.669196128845215,-4.01037073135376
1761316222941592300,1.19659228515625,2.871387243270874,-8.800801277160645,-3.933800458908081
1761316222960515000,1.21551513671875,2.9048867225646973,-8.80798053741455,-3.9314076900482178
1761316222979437600,1.2344375,3.0867412090301514,-8.606983184814453,-4.024727821350098
1761316222998360000,1.253360107421875,3.0891339778900146,-8.731410026550293,-3.9074792861938477
1761316223017282600,1.272282470703125,3.0580272674560547,-8.779266357421875,-3.8213376998901367
1761316223036205300,1.291205322265625,2.988635540008545,-8.717052459716797,-3.9122650623321533
1761316223055127800,1.3101279296875,3.0269205570220947,-8.58066177368164,-3.9194436073303223
1761316223074050300,1.32905029296875,3.249453067779541,-8.662017822265625,-3.94097900390625
1761316223092972800,1.347972900390625,3.2542388439178467,-8.786444664001465,-3.988835334777832
1761316223111895300,1.366895263671875,2.8187451362609863,-8.7505521774292,-4.024727821350098
1761316223130818000,1.385818115234375,2.63449764251709,-8.70508861541748,-4.046263217926025
1761316223149740500,1.404740478515625,3.084348440170288,-8.898907661437988,-3.627519130706787
1761316223168663000,1.4236630859375,3.170490026473999,-8.903693199157715,-3.5437703132629395
1761316223187585800,1.442585693359375,2.964707374572754,-8.695517539978027,-3.680161237716675
1761316223206508300,1.46150830078125,2.8689942359924316,-8.769695281982422,-3.8356947898864746
1761316223225430800,1.4804306640625,2.864208698272705,-8.96112060546875,-3.7543387413024902
1761316223244353300,1.499353271484375,2.9048867225646973,-8.776873588562012,-3.5365917682647705
1761316223263275800,1.51827587890625,2.9479575157165527,-8.63330364227295,-3.4959139823913574
1761316223282198500,1.537198486328125,2.9790642261505127,-8.60459041595459,-3.460021495819092
1761316223301121000,1.55612109375,2.964707374572754,-8.85344409942627,-3.462414264678955
1761316223320043500,1.57504345703125,3.022135019302368,-8.886942863464355,-3.407379388809204
1761316223338966300,1.59396630859375,3.0556344985961914,-8.858229637145996,-3.4552359580993652
1761316223357888800,1.612888671875,2.9001009464263916,-8.685946464538574,-3.531806230545044
1761316223376811300,1.631811279296875,3.019742250442505,-8.764909744262695,-3.500699520111084
1761316223395733800,1.650733642578125,3.129812002182007,-8.827122688293457,-3.4887354373931885
1761316223414656300,1.66965625,3.1345977783203125,-8.863015174865723,-3.4719855785369873
1761316223433579000,1.6885791015625,3.022135019302368,-8.896514892578125,-3.462414264678955
1761316223452501500,1.70750146484375,2.9934210777282715,-8.886942863464355,-3.5988051891326904
1761316223471424000,1.726424072265625,2.9718856811523438,-8.913264274597168,-3.704089403152466
1761316223490346500,1.745346435546875,2.9383862018585205,-8.827122688293457,-3.675375461578369
1761316223509269200,1.764269287109375,3.0029923915863037,-8.74337387084961,-3.6323046684265137
1761316223528191700,1.783191650390625,3.043670415878296,-8.784051895141602,-3.6155550479888916
1761316223547114200,1.8021142578125,2.9790642261505127,-8.731410026550293,-3.6921253204345703
1761316223566037000,1.821037109375,2.9718856811523438,-8.688339233398438,-3.6227335929870605
1761316223584959500,1.83995947265625,2.895315408706665,-8.621339797973633,-3.5437703132629395
1761316223603882000,1.858882080078125,2.950350284576416,-8.638090133666992,-3.594019651412964
1761316223622804500,1.877804443359375,3.0101709365844727,-8.650053977966309,-3.728017568588257
1761316223641727000,1.89672705078125,3.0269205570220947,-8.779266357421875,-3.737588882446289
1761316223660649700,1.915649658203125,3.014956474304199,-8.846264839172363,-3.7734813690185547
1761316223679572200,1.934572265625,2.9599215984344482,-8.824729919433594,-3.864408493041992
1761316223698494700,1.95349462890625,2.9766714572906494,-8.831908226013184,-3.8213376998901367
1761316223717417500,1.97241748046875,2.950350284576416,-8.891729354858398,-3.8117663860321045
1761316223736340000,1.991340087890625,3.0580272674560547,-8.86062240600586,-3.7328033447265625
1761316223755262500,2.010262451171875,3.263810157775879,-8.798408508300781,-3.7016966342926025
1761316223774185000,2.02918505859375,3.2063822746276855,-8.817551612854004,-3.7256247997283936
1761316223793107700,2.048107666015625,3.084348440170288,-8.803194046020508,-3.737588882446289
1761316223812030200,2.0670302734375,3.1489546298980713,-8.834300994873047,-3.7160534858703613
1761316223830952700,2.08595263671875,3.0412776470184326,-8.812766075134277,-3.706482172012329
1761316223849875200,2.104875244140625,3.050848960876465,-8.839086532592773,-3.6634113788604736
1761316223868798000,2.1237978515625,3.012563705444336,-8.824729919433594,-3.7184464931488037
1761316223887720400,2.142720458984375,3.1178479194641113,-8.760123252868652,-3.680161237716675
1761316223906643000,2.161642822265625,3.029313564300537,-8.791230201721191,-3.5437703132629395
1761316223925565700,2.180565673828125,2.8354947566986084,-8.650053977966309,-3.5198421478271484
1761316223944488200,2.19948828125,2.9359934329986572,-8.781659126281738,-3.570091485977173
1761316223963410700,2.21841064453125,3.2159535884857178,-9.078369140625,-3.4911282062530518
1761316223982333200,2.237333251953125,3.572484254837036,-9.09272575378418,-3.421736478805542
1761316224001256000,2.256255859375,3.524627685546875,-9.008976936340332,-3.469592809677124
1761316224020178400,2.275178466796875,3.3308091163635254,-9.078369140625,-3.500699520111084
1761316224039101000,2.294100830078125,3.0939197540283203,-8.930013656616211,-3.4815568923950195
1761316224058023400,2.3130234375,2.981456995010376,-8.645268440246582,-3.328416347503662
1761316224076946200,2.3319462890625,3.3164522647857666,-9.142974853515625,-3.3236305713653564
1761316224095868700,2.35086865234375,3.2374889850616455,-8.451449394226074,-3.4265220165252686
1761316224114791200,2.369791259765625,3.0317063331604004,-8.47298526763916,-3.3786656856536865
1761316224133714000,2.3887138671875,3.3308091163635254,-8.453842163085938,-3.4241292476654053
1761316224152636400,2.407636474609375,3.3475589752197266,-8.559126853942871,-3.4408788681030273
1761316224171559000,2.426558837890625,3.3690943717956543,-8.717052459716797,-3.3571300506591797
1761316224190481400,2.4454814453125,3.328416347503662,-8.846264839172363,-3.22552490234375
1761316224209404200,2.464404052734375,3.3164522647857666,-9.025727272033691,-3.1800613403320312
1761316224228326700,2.48332666015625,3.3020951747894287,-9.05444049835205,-3.1920254230499268
1761316224247249200,2.502249267578125,3.2518460750579834,-9.104690551757812,-3.1202406883239746
1761316224266172000,2.521171875,3.2207393646240234,-9.107083320617676,-3.146561861038208
1761316224285094400,2.540094482421875,3.2925238609313965,-9.174081802368164,-3.208775281906128
1761316224304017000,2.559016845703125,3.414557933807373,-9.061619758605957,-3.3643085956573486
1761316224322939400,2.577939453125,3.486342668533325,-8.891729354858398,-3.414557933807373
1761316224341862100,2.596862060546875,3.4193434715270996,-8.662017822265625,-3.4241292476654053
1761316224360784600,2.61578466796875,3.2518460750579834,-8.441878318786621,-3.469592809677124
1761316224379707100,2.63470703125,3.0484559535980225,-8.410771369934082,-3.280559778213501
1761316224398630000,2.6536298828125,3.10109806060791,-8.317451477050781,-3.13220477104187
1761316224417552400,2.672552490234375,3.0867412090301514,-8.34855842590332,-3.1968109607696533
1761316224436475000,2.691474853515625,3.2853455543518066,-8.264809608459473,-3.4408788681030273
1761316224455397600,2.710397705078125,3.594019651412964,-8.298309326171875,-3.6993038654327393
1761316224474320100,2.729320068359375,3.972085475921631,-8.60459041595459,-3.8117663860321045
1761316224493242600,2.74824267578125,4.019941806793213,-8.760123252868652,-3.809373617172241
1761316224512165400,2.767165283203125,3.8907296657562256,-8.597412109375,-4.029513359069824
1761316224531088000,2.786087890625,3.893122434616089,-8.453842163085938,-4.386044025421143
1761316224550010400,2.80501025390625,3.8428730964660645,-8.35573673248291,-4.536791801452637
1761316224568932900,2.823932861328125,3.7016966342926025,-8.568697929382324,-4.627718925476074
1761316224587855600,2.842855712890625,3.397808074951172,-8.097311973571777,-4.7401814460754395
1761316224606778000,2.861778076171875,3.728017568588257,-8.329415321350098,-5.044070243835449
1761316224625700600,2.88070068359375,3.6993038654327393,-8.295916557312012,-5.173282623291016
1761316224644623400,2.899623291015625,3.6921253204345703,-8.58066177368164,-5.024927616119385
1761316224663545900,2.9185458984375,3.6059837341308594,-8.449056625366211,-5.2354960441589355
1761316224682468400,2.93746826171875,3.510270833969116,-8.350951194763184,-4.989035129547119
1761316224701391000,2.95639111328125,3.390629768371582,-8.319844245910645,-4.981856822967529
1761316224720313600,2.975313720703125,3.6370904445648193,-7.812565803527832,-4.783252239227295
1761316224739236000,2.994236083984375,3.6873397827148438,-7.389036178588867,-4.646861553192139
1761316224758158800,3.013158935546875,3.900300979614258,-6.9583282470703125,-4.515256404876709
1761316224777081300,3.032081298828125,3.864408493041992,-6.333801746368408,-4.431507587432861
1761316224796003800,3.05100390625,4.113262176513672,-6.017949104309082,-4.508078098297119
1761316224814926600,3.069926513671875,4.230510234832764,-6.075376510620117,-4.603790760040283
1761316224833849000,3.08884912109375,4.043870449066162,-6.51326322555542,-4.728217601776123
1761316224852771600,3.107771484375,3.902693748474121,-6.64486837387085,-4.60139799118042
1761316224871694300,3.1266943359375,4.177868366241455,-6.429514408111572,-4.680361270904541
1761316224890616800,3.145616943359375,4.522434711456299,-6.410371780395508,-4.7952165603637695
1761316224909539300,3.164539306640625,4.9124650955200195,-6.4941205978393555,-5.084748268127441
1761316224928462000,3.183462158203125,5.2977094650268555,-6.4510498046875,-5.637490272521973
1761316224947384600,3.202384521484375,5.443671703338623,-6.049055576324463,-5.912664890289307
1761316224966307000,3.22130712890625,6.005984783172607,-5.560919761657715,-5.9509501457214355
1761316224985229800,3.240229736328125,6.374479293823242,-5.285745143890381,-6.020341873168945
1761316225004152300,3.25915234375,6.664011001586914,-4.948357105255127,-6.0610198974609375
1761316225023074800,3.27807470703125,6.687939167022705,-4.529613494873047,-6.058627128601074
1761316225041997600,3.29699755859375,6.338587284088135,-4.575077056884766,-5.924628734588623
1761316225060920000,3.315920166015625,6.151947021484375,-5.438885688781738,-5.740381717681885
1761316225079842600,3.334842529296875,6.235695838928223,-8.176275253295898,-5.264209747314453
1761316225098765300,3.353765380859375,7.963313579559326,-13.73480224609375,-5.749952793121338
1761316225117687800,3.372687744140625,6.329015731811523,-16.847864151000977,-8.22413158416748
1761316225136610300,3.3916103515625,2.9455647468566895,-10.533205032348633,-7.611568927764893
1761316225155533000,3.410532958984375,2.909672260284424,-6.041877269744873,-0.32303106784820557
1761316225174455600,3.42945556640625,4.316651821136475,-5.489135265350342,2.8761727809906006
1761316225193378300,3.44837841796875,1.1772687435150146,-6.5252275466918945,0.9954141974449158
1761316225212300800,3.46730078125,-1.9597218036651611,-7.369893550872803,-4.151547431945801
1761316225231223300,3.486223388671875,-1.8352949619293213,-8.329415321350098,-7.3052873611450195
1761316225250146000,3.50514599609375,-0.638883650302887,-9.200403213500977,-8.812766075134277
1761316225269068500,3.524068603515625,-0.07417750358581543,-9.879964828491211,-8.894122123718262
1761316225287991000,3.542990966796875,1.7754744291305542,-7.793423175811768,-7.015756130218506
1761316225306913800,3.561913818359375,1.7371892929077148,-6.905686378479004,-5.276174068450928
1761316225325836300,3.580836181640625,1.1892328262329102,-7.293323516845703,-5.127819061279297
1761316225344758800,3.5997587890625,0.12442677468061447,-7.477570533752441,-4.797609329223633
1761316225363681500,3.618681640625,-0.4546363055706024,-7.671389579772949,-4.742574691772461
1761316225382604000,3.63760400390625,-0.03349951654672623,-7.798209190368652,-5.058426856994629
1761316225401526500,3.656526611328125,0.45224347710609436,-7.843672752380371,-5.163711071014404
1761316225420449300,3.67544921875,0.5694918036460876,-8.011170387268066,-4.9531426429748535
1761316225439371800,3.694371826171875,0.15074782073497772,-8.22413158416748,-5.242674350738525
1761316225458294300,3.713294189453125,0.07417750358581543,-8.166703224182129,-5.082355499267578
1761316225477217000,3.732217041015625,-0.3565305769443512,-8.181060791015625,-4.620540618896484
1761316225496139500,3.751139404296875,-0.06699903309345245,-8.22413158416748,-4.381258487701416
1761316225515062000,3.77006201171875,0.26560330390930176,-8.011170387268066,-4.249652862548828
1761316225533984800,3.78898486328125,0.4450650215148926,-7.817351341247559,-4.95074987411499
1761316225552907300,3.8079072265625,0.4426721930503845,-7.5637125968933105,-5.864808082580566
1761316225571830000,3.826830078125,0.7417750358581543,-7.542177200317383,-6.678368091583252
1761316225590752500,3.84575244140625,0.6293123364448547,-7.322037220001221,-7.798209190368652
1761316225609675000,3.864675048828125,0.5910272002220154,-7.1856465339660645,-8.212167739868164
1761316225628597800,3.88359765625,0.6245267391204834,-7.544569969177246,-7.944170951843262
1761316225647520300,3.902520263671875,0.6843472719192505,-8.568697929382324,-7.247859954833984
1761316225666442800,3.92144287109375,0.4737788736820221,-9.585647583007812,-6.656832695007324
1761316225685365500,3.940365478515625,-0.009571290574967861,-9.834501266479492,-6.4701924324035645
1761316225704288000,3.9592880859375,-0.5479564070701599,-9.31047248840332,-6.580262184143066
1761316225723210800,3.978210693359375,-1.2562319040298462,-9.17886734008789,-7.17368221282959
1761316225742133200,3.99713330078125,-1.9525432586669922,-9.365508079528809,-8.578269004821777
1761316225761055700,4.0160556640625,-0.6915257573127747,-9.274580955505371,-9.528220176696777
1761316225779978500,4.034978515625,0.16271193325519562,-10.39920711517334,-8.382058143615723
1761316225798901000,4.05390087890625,3.1680972576141357,-11.909078598022461,-6.372086524963379
1761316225817823500,4.072823486328125,3.1441688537597656,-13.098311424255371,-4.4243292808532715
1761316225836746200,4.091746337890625,1.2251251935958862,-12.409177780151367,-3.8428730964660645
1761316225855668700,4.110668701171875,-0.5072783827781677,-11.983255386352539,-4.156332969665527
1761316225874591500,4.129591552734375,-0.6580262184143066,-11.892328262329102,-3.9840497970581055
1761316225893514000,4.148513916015625,1.0432707071304321,-11.44247817993164,-5.4628143310546875
1761316225912436500,4.1674365234375,3.34995174407959,-11.492727279663086,-6.537191390991211
1761316225931359200,4.186359130859375,3.077169895172119,-11.92343521118164,-5.9437713623046875
1761316225950281700,4.20528173828125,1.28255295753479,-10.147960662841797,-5.00578498840332
1761316225969204500,4.22420458984375,1.25144624710083,-9.023334503173828,-4.474578380584717
1761316225988127000,4.243126953125,0.5958128571510315,-7.944170951843262,-4.7401814460754395
1761316226007049500,4.262049560546875,-0.02632104977965355,-6.900900363922119,-4.72582483291626
1761316226025972200,4.28097216796875,0.42831525206565857,-6.50608491897583,-4.34536600112915
1761316226044894700,4.299894775390625,1.1772687435150146,-6.649653911590576,-3.8261234760284424
1761316226063817500,4.3188173828125,2.0721843242645264,-6.209374904632568,-3.0867412090301514
1761316226082740000,4.337739990234375,1.9692929983139038,-5.618347644805908,-3.1513473987579346
1761316226101662500,4.356662353515625,1.34476637840271,-5.19960355758667,-2.8450660705566406
1761316226120585200,4.375585205078125,1.1509476900100708,-5.053641319274902,-2.1750757694244385
1761316226139507700,4.3945078125,1.5098711252212524,-5.481956481933594,-2.187039852142334
1761316226158430200,4.41343017578125,2.3641088008880615,-5.627918720245361,-2.66560435295105
1761316226177353000,4.43235302734375,3.586841106414795,-5.4867424964904785,-3.359523057937622
1761316226196275500,4.451275390625,3.9696927070617676,-5.0225348472595215,-3.933800458908081
1761316226215198000,4.470197998046875,4.2281174659729,-4.467400074005127,-4.500899314880371
1761316226234120700,4.48912060546875,4.706682205200195,-4.110869407653809,-5.350351333618164
1761316226253043200,4.508043212890625,5.577669620513916,-3.972085475921631,-6.350551128387451
1761316226271966000,4.526966064453125,6.740581512451172,-4.596612453460693,-7.467999458312988
1761316226290888400,4.545888427734375,7.561319351196289,-5.72123908996582,-9.07119083404541
1761316226309811200,4.564811279296875,7.946564197540283,-6.709474563598633,-10.006784439086914
1761316226328733700,4.583733642578125,8.22413158416748,-7.0755767822265625,-9.53779125213623
1761316226347656200,4.60265625,8.396414756774902,-6.314659118652344,-8.149953842163086
1761316226366579000,4.621578857421875,7.70967435836792,-4.41475772857666,-6.879364967346191
1761316226385501400,4.64050146484375,6.6113691329956055,-2.9001009464263916,-5.606383323669434
1761316226404424200,4.659424072265625,4.852644443511963,-3.689732551574707,-4.316651821136475
1761316226423346700,4.6783466796875,3.744767427444458,-7.886743545532227,-4.06540584564209
1761316226442269200,4.697269287109375,6.197410583496094,-14.529218673706055,-6.262016773223877
1761316226461192000,4.71619189453125,7.269395351409912,-19.389041900634766,-7.546962738037109
1761316226480114400,4.735114501953125,2.5076780319213867,-12.282358169555664,-5.501099109649658
1761316226499037000,4.754036865234375,0.33499518036842346,-6.776473522186279,-0.8566305041313171
1761316226517959700,4.772959716796875,-2.4358935356140137,-5.19960355758667,0.19381862878799438
1761316226536882200,4.791882080078125,-4.194618225097656,-6.4079790115356445,-2.132004976272583
1761316226555805000,4.810804931640625,-2.746960401535034,-8.305487632751465,-4.115654945373535
1761316226574727400,4.8297275390625,-0.23688943684101105,-10.322636604309082,-5.699703693389893
1761316226593650000,4.84864990234375,-0.5120640397071838,-12.201003074645996,-5.759523868560791
1761316226612572700,4.86757275390625,-1.5864413976669312,-11.387442588806152,-7.149754047393799
1761316226631495200,4.8864951171875,1.404586911201477,-8.776873588562012,-6.580262184143066
1761316226650418000,4.90541796875,0.9978070259094238,-7.070790767669678,-5.642275810241699
1761316226669340400,4.92434033203125,0.3445664644241333,-6.1710896492004395,-5.201996326446533
1761316226688263000,4.943262939453125,-0.3445664644241333,-6.503692150115967,-5.558526992797852
1761316226707185700,4.962185546875,-0.1339980661869049,-7.0061845779418945,-5.764309883117676
1761316226726108200,4.981108154296875,0.07417750358581543,-7.204789161682129,-5.9676995277404785
1761316226745031000,5.000031005859375,0.08135596662759781,-7.300501823425293,-6.446264266967773
1761316226763953400,5.018953369140625,0.4091726839542389,-7.628318786621094,-6.362515449523926
1761316226782876000,5.0378759765625,0.5240281820297241,-7.83410120010376,-6.226124286651611
1761316226801798700,5.056798583984375,1.0528420209884644,-7.661818027496338,-6.034698486328125
1761316226820721200,5.07572119140625,1.2251251935958862,-7.5326056480407715,-6.03948450088501
1761316226839643600,5.0946435546875,1.0456634759902954,-7.4847493171691895,-6.206982135772705
1761316226858566400,5.11356640625,0.8590233325958252,-7.5804619789123535,-6.393621921539307
1761316226877489000,5.132489013671875,0.5335994362831116,-7.688138961791992,-6.424728870391846
1761316226896411600,5.15141162109375,0.6747759580612183,-7.479963779449463,-6.496513366699219
1761316226915334100,5.170334228515625,1.0097711086273193,-7.2095746994018555,-6.3122663497924805
1761316226934257000,5.1892568359375,1.4093725681304932,-6.92482852935791,-6.240481376647949
1761316226953179400,5.208179443359375,1.2299108505249023,-6.932007312774658,-6.415157318115234
1761316226972102000,5.227101806640625,0.9044869542121887,-7.2095746994018555,-6.857829570770264
1761316226991024600,5.246024658203125,0.7441678643226624,-7.477570533752441,-7.310073375701904
1761316227009947100,5.264947021484375,0.33738797903060913,-7.680960655212402,-7.403393268585205
1761316227028869600,5.28386962890625,-0.09810572862625122,-8.082955360412598,-7.456035137176514
1761316227047792400,5.30279248046875,-0.1818545162677765,-8.709874153137207,-6.91765022277832
1761316227066715000,5.32171484375,0.2153540402650833,-9.281759262084961,-5.886343479156494
1761316227085637600,5.3406376953125,0.9547362327575684,-9.528220176696777,-6.056233882904053
1761316227104560000,5.35956005859375,0.5264210104942322,-9.281759262084961,-7.623532772064209
1761316227123482600,5.378482666015625,1.4380863904953003,-8.37009334564209,-8.81515884399414
1761316227142405400,5.3974052734375,0.29431718587875366,-8.338987350463867,-8.444271087646484
1761316227161327900,5.416327880859375,0.4905286431312561,-9.09272575378418,-9.391828536987305
1761316227180250600,5.435250732421875,1.6510475873947144,-10.722238540649414,-8.207381248474121
1761316227199173000,5.454173095703125,1.1820544004440308,-12.361321449279785,-5.747560024261475
1761316227218095600,5.473095703125,-0.24885354936122894,-14.055439949035645,-3.4241292476654053
1761316227237018400,5.492018310546875,0.4019941985607147,-14.041083335876465,-3.926621913909912
1761316227255940900,5.51094091796875,0.6317051649093628,-12.050254821777344,-3.4097721576690674
1761316227274863600,5.529863525390625,2.7517459392547607,-10.248459815979004,-4.431507587432861
1761316227293786000,5.5487861328125,2.6464617252349854,-10.3681001663208,-6.113661766052246
1761316227312708600,5.56770849609375,1.191625714302063,-9.525827407836914,-6.565905570983887
1761316227331631400,5.58663134765625,0.9906286001205444,-8.228917121887207,-6.647261142730713
1761316227350553900,5.605553955078125,0.30628129839897156,-7.628318786621094,-6.192625045776367
1761316227369476600,5.6244765625,-0.2560320198535919,-7.003791809082031,-5.776273727416992
1761316227388399000,5.643399169921875,-0.06939185410737991,-6.8004021644592285,-5.034498691558838
1761316227407321600,5.662321533203125,0.7441678643226624,-6.690331935882568,-4.613361835479736
1761316227426244400,5.681244384765625,1.9381862878799438,-6.441478729248047,-4.122833251953125
1761316227445166800,5.700166748046875,1.3495519161224365,-6.173482418060303,-3.649054527282715
1761316227464089600,5.719089599609375,0.9930213689804077,-5.584847927093506,-2.792423963546753
1761316227483012000,5.73801220703125,0.8446664214134216,-5.276174068450928,-2.139183521270752
1761316227501934600,5.7569345703125,1.1485549211502075,-5.027320384979248,-1.8041882514953613
1761316227520857300,5.775857421875,1.7922241687774658,-5.4628143310546875,-2.201396942138672
1761316227539779800,5.79477978515625,2.9455647468566895,-5.352744102478027,-2.675175666809082
1761316227558702300,5.813702392578125,3.3954153060913086,-5.127819061279297,-2.8450660705566406
1761316227577625000,5.832625,3.627519130706787,-4.508078098297119,-3.596412420272827
1761316227596547600,5.851547607421875,4.541577339172363,-4.101297855377197,-4.455435752868652
1761316227615470300,5.87047021484375,5.795416355133057,-4.156332969665527,-5.292923450469971
1761316227634392800,5.889392822265625,6.9583282470703125,-4.828716278076172,-6.879364967346191
1761316227653315300,5.9083154296875,7.70967435836792,-6.013163089752197,-9.164510726928711
1761316227672238000,5.927238037109375,8.118846893310547,-7.513463020324707,-10.430314064025879
1761316227691160600,5.94616064453125,7.8317084312438965,-8.030312538146973,-8.906085968017578
1761316227710083300,5.965083251953125,7.482356548309326,-7.089933395385742,-6.754938125610352
1761316227729005800,5.984005859375,6.558726787567139,-5.520241737365723,-5.1182475090026855
1761316227747928300,6.00292822265625,6.051448345184326,-3.9984066486358643,-4.158725738525391
1761316227766851000,6.02185107421875,4.783252239227295,-6.233303070068359,-5.0464630126953125
1761316227785773600,6.040773681640625,6.118447303771973,-10.061819076538086,-7.140182971954346
1761316227804696300,6.0596962890625,7.046862602233887,-13.557733535766602,-7.101897716522217
1761316227823618800,6.078618896484375,5.350351333618164,-13.852049827575684,-7.6474609375
1761316227842541300,6.097541259765625,0.43549370765686035,-9.827322959899902,-5.941378593444824
1761316227861464000,6.116464111328125,0.9332008361816406,-8.13081169128418,-2.4670002460479736
1761316227880386600,6.135386474609375,-1.277767300605774,-8.561519622802734,-1.7515461444854736
1761316227899309000,6.15430908203125,-4.304687976837158,-7.087540626525879,-3.242274761199951
1761316227918231800,6.173231689453125,-5.058426856994629,-7.750352382659912,-4.453042984008789
1761316227937154300,6.192154296875,-3.4337005615234375,-7.8077802658081055,-5.874379634857178
1761316227956077000,6.2110771484375,-3.407379388809204,-8.542376518249512,-6.446264266967773
1761316227974999600,6.22999951171875,1.1222338676452637,-9.549755096435547,-6.8554368019104
1761316227993922000,6.248922119140625,2.770888566970825,-10.71984577178955,-5.450850009918213
1761316228012844800,6.2678447265625,2.0243279933929443,-10.401599884033203,-4.957928657531738
1761316228031767300,6.286767333984375,1.430907964706421,-9.023334503173828,-5.0943193435668945
1761316228050690000,6.30568994140625,0.5359922647476196,-7.575676441192627,-4.878965377807617
1761316228069612500,6.324612548828125,0.10049854964017868,-6.489335060119629,-5.2354960441589355
1761316228088535000,6.34353515625,-0.04307080805301666,-6.238088607788086,-5.891129493713379
1761316228107457800,6.362457763671875,-0.064606212079525,-6.757331371307373,-6.2500529289245605
1761316228126380300,6.38138037109375,0.1818545162677765,-7.350750923156738,-6.687939167022705
1761316228145303000,6.400302978515625,0.5072783827781677,-7.36032247543335,-6.608976364135742
1761316228164225500,6.4192255859375,0.7417750358581543,-7.355536937713623,-6.309873104095459
1761316228183148000,6.43814794921875,1.0169496536254883,-7.568498134613037,-5.757131099700928
1761316228202070800,6.45707080078125,1.1988041400909424,-7.8388872146606445,-5.108676433563232
1761316228220993300,6.4759931640625,1.5074782371520996,-7.546962738037109,-4.716253280639648
1761316228239915800,6.494915771484375,1.6701902151107788,-6.752545356750488,-5.07517671585083
1761316228258838500,6.513838623046875,1.2370892763137817,-6.295516490936279,-6.044270038604736
1761316228277761000,6.532760986328125,-0.2967100143432617,-6.216553211212158,-6.955935478210449
1761316228296683800,6.551683837890625,-1.098305583000183,-7.0301127433776855,-7.36032247543335
1761316228315606300,6.570606201171875,0.22971096634864807,-8.123632431030273,-6.953542709350586
1761316228334528800,6.58952880859375,1.038485050201416,-8.554341316223145,-6.891329288482666
1761316228353451500,6.608451416015625,0.26560330390930176,-8.34138011932373,-7.434499740600586
1761316228372374000,6.6273740234375,-0.27038896083831787,-8.075776100158691,-8.090133666992188
1761316228391296500,6.646296630859375,0.19621145725250244,-8.214560508728027,-8.542376518249512
1761316228410219300,6.66521923828125,1.3519448041915894,-8.805587768554688,-8.58784008026123
1761316228429141800,6.684141845703125,1.9716858863830566,-9.037691116333008,-8.963513374328613
1761316228448064500,6.703064453125,1.5050854682922363,-8.602197647094727,-10.327422142028809
1761316228466987000,6.721987060546875,1.8951154947280884,-7.056434154510498,-9.339186668395996
1761316228485909500,6.740909423828125,2.5076780319213867,-8.930013656616211,-8.181060791015625
1761316228504832300,6.759832275390625,2.5674986839294434,-12.105289459228516,-6.173482418060303
1761316228523754800,6.778754638671875,1.2370892763137817,-14.10568904876709,-4.170690059661865
1761316228542677500,6.797677490234375,-0.9475577473640442,-14.07697582244873,-3.926621913909912
1761316228561600000,6.81660009765625,-1.1198409795761108,-13.351950645446777,-4.9531426429748535
1761316228580522500,6.8355224609375,0.7226324677467346,-11.131410598754883,-5.960521221160889
1761316228599445200,6.8544453125,2.242074728012085,-10.279565811157227,-6.427121639251709
1761316228618367700,6.87336767578125,2.8450660705566406,-11.124232292175293,-6.783652305603027
1761316228637290500,6.89229052734375,1.8951154947280884,-10.01874828338623,-6.017949104309082
1761316228656213000,6.911212890625,2.007578134536743,-8.477770805358887,-6.556334018707275
1761316228675135500,6.930135498046875,0.7968099117279053,-7.659425258636475,-5.757131099700928
1761316228694058200,6.949058349609375,0.07657032459974289,-6.98704195022583,-5.831308841705322
1761316228712980700,6.967980712890625,0.3397808074951172,-6.728617191314697,-5.089533805847168
1761316228731903200,6.9869033203125,0.8231309652328491,-6.3601226806640625,-4.474578380584717
1761316228750826000,7.005825927734375,1.3112667798995972,-6.099305152893066,-3.6299118995666504
1761316228769748500,7.02474853515625,1.1078768968582153,-5.685346603393555,-3.6299118995666504
1761316228788671000,7.0436708984375,1.2059825658798218,-4.9292144775390625,-2.854637384414673
1761316228807593700,7.06259375,1.4644074440002441,-4.996213912963867,-2.2325034141540527
1761316228826516200,7.08151611328125,1.950150489807129,-5.371886730194092,-1.7204394340515137
1761316228845439000,7.10043896484375,2.6488547325134277,-5.584847927093506,-1.797009825706482
1761316228864361500,7.119361572265625,3.500699520111084,-5.426921844482422,-2.517249345779419
1761316228883284000,7.138283935546875,4.254438877105713,-5.190032482147217,-3.115455150604248
1761316228902206700,7.157206787109375,5.015356063842773,-4.692325115203857,-4.094119548797607
1761316228921129200,7.176129150390625,6.068198204040527,-4.610969066619873,-5.2354960441589355
1761316228940051700,7.1950517578125,7.338787078857422,-4.919643402099609,-6.369693756103516
1761316228958974500,7.213974365234375,8.324629783630371,-5.570491313934326,-7.592426300048828
1761316228977897000,7.23289697265625,8.724231719970703,-6.618547439575195,-9.329615592956543
1761316228996819700,7.25181982421875,8.482556343078613,-7.652246952056885,-9.688538551330566
1761316229015742200,7.2707421875,8.669196128845215,-7.850851058959961,-8.291130065917969
1761316229034664700,7.289664794921875,8.709874153137207,-5.766702651977539,-6.051448345184326
1761316229053587500,7.30858740234375,8.011170387268066,-2.778067111968994,-4.132404804229736
1761316229072510000,7.327510009765625,6.393621921539307,-1.5170495510101318,-3.438486099243164
1761316229091432400,7.346432373046875,4.168296813964844,-4.4243292808532715,-4.0797624588012695
1761316229110355200,7.365355224609375,5.3934221267700195,-12.782458305358887,-8.061419486999512
1761316229129277700,7.384277587890625,3.5222349166870117,-19.721643447875977,-10.162318229675293
1761316229148200200,7.4032001953125,1.7730815410614014,-14.3330078125,-8.93240737915039
1761316229167123000,7.422123046875,2.3473589420318604,-8.652446746826172,-1.1581261157989502
1761316229186045400,7.44104541015625,0.7824530005455017,-7.652246952056885,2.6009981632232666
1761316229204968200,7.45996826171875,-4.01037073135376,-4.991427898406982,0.7082754969596863
1761316229223890700,7.478890625,-5.414957523345947,-5.974878311157227,-3.737588882446289
1761316229242813200,7.497813232421875,-3.3954153060913086,-8.453842163085938,-5.429314613342285
1761316229261736000,7.51673583984375,-1.5074782371520996,-10.332208633422852,-7.314858913421631
1761316229280658400,7.535658447265625,0.5551348328590393,-10.636096954345703,-7.41535758972168
1761316229299581000,7.554580810546875,4.180261135101318,-9.480362892150879,-5.821737289428711
1761316229318503700,7.573503662109375,1.5002998113632202,-7.637889862060547,-5.759523868560791
1761316229337426200,7.59242626953125,1.2873386144638062,-6.307480335235596,-6.192625045776367
1761316229356349000,7.611348876953125,0.4713860750198364,-5.749952793121338,-6.941578388214111
1761316229375271400,7.630271484375,0.04785645380616188,-6.228517532348633,-7.020541667938232
1761316229394194000,7.64919384765625,-0.09092725813388824,-6.936792850494385,-6.977470874786377
1761316229413116700,7.66811669921875,0.007178467698395252,-7.317251682281494,-6.97986364364624
1761316229432039200,7.6870390625,0.28953152894973755,-8.044670104980469,-6.417550563812256
1761316229450961700,7.705961669921875,0.8183453679084778,-8.200202941894531,-6.001199245452881
1761316229469884400,7.724884521484375,1.275374412536621,-8.054241180419922,-5.998806476593018
1761316229488807000,7.743806884765625,1.4428720474243164,-7.953742504119873,-5.953342914581299
1761316229507729700,7.762729736328125,0.8087740540504456,-7.762316703796387,-5.742774486541748
1761316229526652200,7.781652099609375,0.20099709928035736,-7.625925540924072,-5.558526992797852
1761316229545574700,7.80057470703125,0.11485548317432404,-7.724031448364258,-5.1876397132873535
1761316229564497400,7.819497314453125,0.6221339106559753,-7.561319351196289,-5.111069202423096
1761316229583420000,7.838419921875,1.0887342691421509,-7.286144733428955,-5.517848968505859
1761316229602342400,7.85734228515625,1.5242279767990112,-7.171289443969727,-6.187839508056641
1761316229621265200,7.87626513671875,1.5242279767990112,-7.216753005981445,-6.908079147338867
1761316229640187600,7.895187744140625,1.1940184831619263,-7.307680130004883,-6.8410797119140625
1761316229659110100,7.914110107421875,0.9044869542121887,-7.680960655212402,-7.063612461090088
1761316229678033000,7.933032958984375,0.41874396800994873,-8.300702095031738,-7.3986077308654785
1761316229696955400,7.951955322265625,0.02392822690308094,-8.930013656616211,-7.6737823486328125
1761316229715878100,7.970878173828125,0.5144568681716919,-9.255437850952148,-7.874779224395752
1761316229734800600,7.989800537109375,1.2299108505249023,-9.463613510131836,-8.161917686462402
1761316229753723100,8.00872314453125,0.8925228714942932,-9.439684867858887,-8.965906143188477
1761316229772646000,8.02764599609375,0.6867401003837585,-8.796015739440918,-9.667003631591797
1761316229791568400,8.046568359375,1.306481122970581,-8.8438720703125,-8.827122688293457
1761316229810491000,8.065490966796874,0.43549370765686035,-8.97787094116211,-7.975277900695801
1761316229829413600,8.08441357421875,1.8305093050003052,-8.831908226013184,-7.2813591957092285
1761316229848336100,8.103336181640625,1.179661512374878,-9.53061294555664,-6.238088607788086
1761316229867259000,8.1222587890625,-0.8350951075553894,-11.23190975189209,-5.5106706619262695
1761316229886181400,8.141181396484376,-0.8039883971214294,-12.902099609375,-4.893322467803955
1761316229905104000,8.160103759765626,0.8111668825149536,-12.31825065612793,-4.42193603515625
1761316229924026600,8.179026611328124,2.2229323387145996,-10.789237022399902,-3.94097900390625
1761316229942949000,8.19794921875,3.651447296142578,-10.614561080932617,-5.20678186416626
1761316229961871600,8.21687158203125,2.878565549850464,-10.49252700805664,-6.173482418060303
1761316229980794400,8.23579443359375,1.7635103464126587,-9.123832702636719,-5.876772403717041
1761316229999716900,8.254716796875,0.7513462901115417,-8.176275253295898,-5.807380676269531
1761316230018639400,8.273639404296874,0.08853443711996078,-7.262216567993164,-5.773880958557129
1761316230037562000,8.29256201171875,0.15314064919948578,-6.774080753326416,-5.333601474761963
1761316230056484600,8.311484619140625,0.8446664214134216,-6.967899322509766,-4.374079704284668
1761316230075407000,8.330406982421875,1.5385849475860596,-7.336394309997559,-3.6442689895629883
1761316230094329900,8.349329833984376,2.1535403728485107,-6.915257453918457,-2.8929226398468018
1761316230113252400,8.36825244140625,1.770688772201538,-6.032305717468262,-2.7732813358306885
1761316230132174800,8.3871748046875,1.923829436302185,-5.295316696166992,-2.895315408706665
1761316230151097600,8.40609765625,2.045863389968872,-4.843072891235352,-2.9001009464263916
1761316230170020000,8.42502001953125,2.1774685382843018,-4.563112735748291,-3.2063822746276855
1761316230188942600,8.443942626953126,2.65842604637146,-4.692325115203857,-3.7423746585845947
1761316230207865300,8.462865234375,3.2590243816375732,-4.926821708679199,-4.252045631408691
1761316230226787800,8.481787841796875,4.084548473358154,-4.957928657531738,-4.761716842651367
1761316230245710600,8.500710693359375,5.477170944213867,-4.800002098083496,-5.570491313934326
1761316230264633000,8.519633056640625,6.91765022277832,-4.591826438903809,-6.678368091583252
1761316230283555600,8.5385556640625,7.843672752380371,-4.962714195251465,-7.8819580078125
1761316230302478300,8.557478271484374,8.14516830444336,-5.618347644805908,-8.7505521774292
1761316230321400800,8.57640087890625,7.755138397216797,-6.278766632080078,-9.21715259552002
1761316230340323300,8.5953232421875,7.989634990692139,-6.551548480987549,-8.008777618408203
1761316230359246000,8.61424609375,8.126026153564453,-4.778466701507568,-6.649653911590576
1761316230378168600,8.63316845703125,6.9104719161987305,-2.4095723628997803,-5.175675392150879
1761316230397091300,8.65209130859375,5.994020938873291,-1.0671988725662231,-4.077369689941406
1761316230416013800,8.671013916015625,5.008177757263184,-3.5270206928253174,-4.084548473358154
1761316230434936300,8.689936279296875,4.874179840087891,-10.808380126953125,-4.778466701507568
1761316230453859000,8.708859130859375,7.802994728088379,-18.06820297241211,-7.29810905456543
1761316230472781600,8.727781494140626,7.781459331512451,-19.597217559814453,-9.432506561279297
1761316230491704000,8.7467041015625,1.1461620330810547,-12.555140495300293,-5.374279499053955
1761316230510626800,8.765626708984374,-1.160519003868103,-5.711667537689209,-0.16510476171970367
1761316230529549300,8.78454931640625,-4.043870449066162,-4.398007869720459,0.7226324677467346
1761316230548471800,8.803471923828125,-4.067798614501953,-3.7543387413024902,-1.4404792785644531
1761316230567394600,8.82239453125,-3.029313564300537,-6.350551128387451,-4.613361835479736
1761316230586317000,8.841317138671876,-2.014756679534912,-9.31047248840332,-6.759724140167236
1761316230605239600,8.860239501953124,-2.6775684356689453,-11.583654403686523,-8.13798999786377
1761316230624162300,8.879162353515625,3.1202406883239746,-11.48076343536377,-6.991827964782715
1761316230643084800,8.898084716796875,2.8594231605529785,-9.674181938171387,-5.718846321105957
1761316230662007300,8.91700732421875,0.8805587291717529,-7.513463020324707,-4.785645484924316
1761316230680930000,8.935929931640626,0.8183453679084778,-6.144768714904785,-5.240281581878662
1761316230699852500,8.9548525390625,0.5335994362831116,-6.094519138336182,-6.0849480628967285
1761316230718775000,8.973775146484375,0.3445664644241333,-6.9344000816345215,-6.664011001586914
1761316230737697800,8.99269775390625,0.1052841991186142,-7.463213920593262,-7.319644451141357
1761316230756620300,9.011620361328125,-0.3613162338733673,-7.963313579559326,-7.664210796356201
1761316230775543000,9.03054296875,0.04546362906694412,-8.080561637878418,-7.381857872009277
1761316230794465500,9.049465576171874,0.9547362327575684,-7.735995769500732,-6.39601469039917
1761316230813388000,9.068387939453125,1.4333007335662842,-7.178467750549316,-6.1710896492004395
1761316230832310800,9.087310791015625,1.6366907358169556,-7.338787078857422,-5.864808082580566
1761316230851233300,9.1062333984375,1.2179467678070068,-7.539783954620361,-5.72123908996582
1761316230870155800,9.12515576171875,0.9475577473640442,-7.463213920593262,-5.551348686218262
1761316230889078500,9.14407861328125,0.6173482537269592,-7.125825881958008,-5.302495002746582
1761316230908001000,9.1630009765625,0.6508477330207825,-6.795616149902344,-5.170889854431152
1761316230926923500,9.181923583984375,0.7250252366065979,-6.616154670715332,-5.242674350738525
1761316230945846300,9.20084619140625,1.0193424224853516,-6.984649181365967,-5.714060306549072
1761316230964768800,9.219768798828126,1.2705888748168945,-7.307680130004883,-6.759724140167236
1761316230983691300,9.238691162109374,1.3088740110397339,-7.499105930328369,-7.685746192932129
1761316231002614000,9.257614013671875,0.8063812255859375,-7.759923934936523,-7.95134973526001
1761316231021536500,9.27653662109375,0.09092725813388824,-8.415556907653809,-7.573283672332764
1761316231040459000,9.295458984375,0,-9.44447135925293,-6.941578388214111
1761316231059381800,9.3143818359375,0.9308080077171326,-10.85862922668457,-6.479763507843018
1761316231078304300,9.33330419921875,1.4428720474243164,-11.777473449707031,-6.477370738983154
1761316231097226800,9.352226806640624,0.9379864931106567,-11.69851016998291,-8.12123966217041
1761316231116149500,9.3711494140625,-0.7920243144035339,-11.112268447875977,-9.968499183654785
1761316231135072000,9.390072021484375,-0.6029912829399109,-10.15753173828125,-9.035298347473145
1761316231153994500,9.408994384765625,2.321038007736206,-11.308480262756348,-6.805187702178955
1761316231172917200,9.427917236328126,3.6394832134246826,-11.382657051086426,-5.039284706115723
1761316231191839700,9.44683984375,2.084148406982422,-10.432706832885742,-4.965106964111328
1761316231210762200,9.46576220703125,-0.4331009089946747,-8.93240737915039,-7.056434154510498
1761316231229685000,9.48468505859375,-1.6031911373138428,-8.082955360412598,-8.298309326171875
1761316231248607500,9.503607421875,-1.3758729696273804,-8.126026153564453,-7.635497093200684
1761316231267530000,9.522530029296876,1.0265209674835205,-8.559126853942871,-6.3840508460998535
1761316231286452700,9.54145263671875,1.7778671979904175,-8.61176872253418,-5.036891460418701
1761316231305375200,9.560375244140625,2.4191436767578125,-9.446864128112793,-5.850451469421387
1761316231324298000,9.579298095703125,2.2923240661621094,-9.480362892150879,-5.458028316497803
1761316231343220500,9.598220458984375,1.612762451171875,-9.066405296325684,-4.893322467803955
1761316231362143000,9.61714306640625,0.1866401731967926,-8.24566650390625,-4.6061835289001465
1761316231381065500,9.6360654296875,0.03349951654672623,-7.223931789398193,-5.163711071014404
1761316231399988200,9.65498828125,0.04307080805301666,-6.484549522399902,-4.778466701507568
1761316231418910700,9.67391064453125,0.3565305769443512,-6.427121639251709,-5.381458282470703
1761316231437833200,9.692833251953125,1.6031911373138428,-6.5180487632751465,-4.72582483291626
1761316231456756000,9.711755859375,2.445464849472046,-6.128018856048584,-4.42193603515625
1761316231475678500,9.730678466796874,2.691925525665283,-5.86002254486084,-4.256831645965576
1761316231494601200,9.749601318359375,2.6536402702331543,-5.687739372253418,-3.871587038040161
1761316231513523700,9.768523681640625,2.249253273010254,-5.623133182525635,-3.4648072719573975
1761316231532446200,9.7874462890625,2.1990039348602295,-5.398207664489746,-3.572484254837036
1761316231551368700,9.80636865234375,2.4574289321899414,-5.2283172607421875,-3.3403804302215576
1761316231570291500,9.82529150390625,3.0963125228881836,-4.914857864379883,-3.1657042503356934
1761316231589214000,9.8442138671875,4.06540584564209,-4.275974273681641,-3.3403804302215576
1761316231608136400,9.863136474609375,4.941178798675537,-3.82373046875,-4.390829563140869
1761316231627059200,9.88205908203125,5.742774486541748,-3.680161237716675,-5.888736724853516
1761316231645981700,9.900981689453126,6.668796539306641,-4.027120590209961,-7.032505512237549
1761316231664904400,9.919904541015624,7.6043901443481445,-4.508078098297119,-7.520641803741455
1761316231683827000,9.938826904296874,7.960920810699463,-4.735395908355713,-7.814958572387695
1761316231702749400,9.95774951171875,8.24566650390625,-4.907679080963135,-7.549355506896973
1761316231721672000,9.976671875,8.630910873413086,-4.95074987411499,-6.941578388214111
1761316231740594700,9.9955947265625,8.62612533569336,-4.555934429168701,-6.2189459800720215
1761316231759517200,10.01451708984375,8.025527000427246,-3.5748770236968994,-5.513063430786133
1761316231778439700,10.033439697265624,5.927021503448486,-2.7182464599609375,-4.460221290588379
1761316231797362400,10.052362548828125,5.233103275299072,-5.515456199645996,-5.312066078186035
1761316231816285000,10.071284912109375,5.508277893066406,-14.1918306350708,-7.2430739402771
1761316231835207400,10.09020751953125,6.989434719085693,-18.991832733154297,-8.901300430297852
1761316231854130200,10.109130126953126,6.190232276916504,-13.753944396972656,-6.4079790115356445
1761316231873052700,10.128052734375,3.7423746585845947,-8.872586250305176,-0.5335994362831116
1761316231891975200,10.14697509765625,-0.7393822073936462,-4.991427898406982,0.6269195079803467
1761316231910898000,10.16589794921875,-3.8189449310302734,-4.311866283416748,-2.3712873458862305
1761316231929820400,10.1848203125,-3.8572301864624023,-4.855037212371826,-5.838487148284912
1761316231948743000,10.203742919921876,-1.3830515146255493,-7.133004188537598,-8.011170387268066
1761316231967665700,10.222665771484374,0.97148597240448,-9.42772102355957,-8.669196128845215
1761316231986588200,10.241588134765625,-0.4211367964744568,-9.999606132507324,-6.711867332458496
1761316232005510700,10.2605107421875,3.201596736907959,-9.858428955078125,-5.106283664703369
1761316232024433400,10.279433349609375,2.421536445617676,-8.48016357421875,-4.264009952545166
1761316232043356000,10.29835595703125,1.0360921621322632,-7.465606689453125,-4.716253280639648
1761316232062278400,10.3172783203125,0.6340979933738708,-6.508477687835693,-5.493920803070068
1761316232081201200,10.336201171875,0.12442677468061447,-6.080162525177002,-6.632904529571533
1761316232100123600,10.35512353515625,0.4019941985607147,-6.427121639251709,-7.465606689453125
1761316232119046100,10.374046142578125,0.4043870270252228,-6.922435760498047,-7.83410120010376
1761316232137968600,10.39296875,0.6604190468788147,-7.479963779449463,-7.334001541137695
1761316232156891400,10.411891357421876,1.301695466041565,-7.3986077308654785,-6.86261510848999
1761316232175814000,10.43081396484375,1.2921242713928223,-7.271788120269775,-6.496513366699219
1761316232194736400,10.449736328125,1.1485549211502075,-7.286144733428955,-6.209374904632568
1761316232213659100,10.4686591796875,1.093519926071167,-7.609176158905029,-6.034698486328125
1761316232232581600,10.48758154296875,1.0887342691421509,-7.654639720916748,-5.6590256690979
1761316232251504000,10.506504150390626,0.8374879360198975,-7.539783954620361,-5.087141036987305
1761316232270427000,10.525427001953124,0.8757730722427368,-7.396214962005615,-5.173282623291016
1761316232289349400,10.544349365234375,1.0839486122131348,-7.4225358963012695,-5.424529075622559
1761316232308271900,10.56327197265625,1.31365966796875,-7.3986077308654785,-5.498706340789795
1761316232327194400,10.5821943359375,1.2418749332427979,-7.3675007820129395,-5.709274768829346
1761316232346117000,10.6011171875,1.0863415002822876,-7.3292155265808105,-5.840879917144775
1761316232365039600,10.62003955078125,0.794417142868042,-7.432106971740723,-6.159125328063965
1761316232383962400,10.63896240234375,0.2632105052471161,-7.8077802658081055,-6.364908218383789
1761316232402884900,10.657884765625,-0.040677983313798904,-8.286344528198242,-6.625725746154785
1761316232421807400,10.676807373046875,-0.12681959569454193,-9.05444049835205,-6.632904529571533
1761316232440729900,10.695729736328126,-0.7010970115661621,-9.879964828491211,-7.2574310302734375
1761316232459652600,10.714652587890624,-1.3184453248977661,-10.62413215637207,-9.05444049835205
1761316232478575000,10.7335751953125,-1.8759729862213135,-10.853843688964844,-10.892128944396973
1761316232497497600,10.75249755859375,-2.1032910346984863,-10.628918647766113,-10.26760196685791
1761316232516420000,10.771420166015625,2.5292134284973145,-12.16511058807373,-7.386643409729004
1761316232535342800,10.7903427734375,5.637490272521973,-12.236894607543945,-3.6083765029907227
1761316232554265300,10.809265380859374,4.3310089111328125,-11.263015747070312,-3.0173492431640625
1761316232573188000,10.82818798828125,2.0195422172546387,-9.77707290649414,-3.9936211109161377
1761316232592110600,10.847110595703125,-0.29431718587875366,-8.49452018737793,-8.453842163085938
1761316232611033000,10.866033203125,-1.6223337650299072,-8.01356315612793,-9.19561767578125
1761316232629955600,10.88495556640625,-2.076970100402832,-8.417949676513672,-7.470392227172852
1761316232648878300,10.90387841796875,-0.031106693670153618,-7.9585280418396,-6.561119556427002
1761316232667800800,10.92280078125,1.9716858863830566,-7.472784996032715,-5.575276851654053
1761316232686723300,10.941723388671875,3.6394832134246826,-9.047262191772461,-6.106483459472656
1761316232705645800,10.960645751953125,2.100898265838623,-10.37767219543457,-5.460421085357666
1761316232724568600,10.979568603515625,1.6534404754638672,-10.01156997680664,-4.536791801452637
1761316232743491000,10.998490966796876,0.7513462901115417,-8.863015174865723,-4.242474555969238
1761316232762413600,11.01741357421875,0.33020952343940735,-7.700103282928467,-3.9529430866241455
1761316232781336300,11.03633642578125,0.6293123364448547,-7.302894592285156,-3.9146578311920166
1761316232800258800,11.0552587890625,1.1389836072921753,-6.920042991638184,-4.06540584564209
1761316232819181300,11.074181396484375,2.100898265838623,-6.6352972984313965,-4.146761417388916
1761316232838103800,11.093103759765626,2.806781053543091,-5.960521221160889,-4.1347975730896
1761316232857026600,11.112026611328124,3.0340991020202637,-5.168497085571289,-4.091726779937744
1761316232875949000,11.130948974609375,2.7397818565368652,-4.759324073791504,-4.161118507385254
1761316232894871600,11.14987158203125,2.6297121047973633,-4.7712883949279785,-3.895515203475952
1761316232913794300,11.168794189453125,2.306680917739868,-5.051248550415039,-3.845266103744507
1761316232932716800,11.187716796875,2.4837498664855957,-4.9124650955200195,-3.596412420272827
1761316232951639300,11.206639404296874,3.13220477104187,-4.680361270904541,-3.926621913909912
1761316232970562000,11.22556201171875,4.235296249389648,-4.261617183685303,-4.450650215148926
1761316232989484500,11.244484619140625,5.474778175354004,-3.91705060005188,-5.26899528503418
1761316233008407000,11.263406982421875,6.752545356750488,-3.9361932277679443,-6.357729911804199
1761316233027329500,11.28232958984375,7.700103282928467,-4.381258487701416,-7.22871732711792
1761316233046252300,11.301252197265624,8.080561637878418,-4.8813581466674805,-8.025527000427246
1761316233065174800,11.3201748046875,8.097311973571777,-5.615954875946045,-8.788837432861328
1761316233084097300,11.33909716796875,7.733603000640869,-6.288337707519531,-8.35573673248291
1761316233103019800,11.358019775390625,8.207381248474121,-5.6207404136657715,-7.077969551086426
1761316233121942500,11.376942626953126,7.877171993255615,-3.617947816848755,-5.879165172576904
1761316233140865000,11.395864990234376,6.984649181365967,-3.5270206928253174,-5.123033046722412
1761316233159787500,11.41478759765625,5.374279499053955,-8.563912391662598,-7.0923261642456055
1761316233178710300,11.433710205078125,5.127819061279297,-16.24247932434082,-9.425328254699707
1761316233197632800,11.4526328125,4.445864677429199,-17.4891414642334,-9.489934921264648
1761316233216555300,11.47155517578125,2.0315065383911133,-11.796615600585938,-5.577669620513916
1761316233235477800,11.490477783203126,1.7252250909805298,-7.458428382873535,0.6173482537269592
1761316233254400500,11.509400390625,-1.2083754539489746,-4.486542224884033,1.4093725681304932
1761316233273323000,11.528322998046875,-3.6610186100006104,-4.575077056884766,-1.1748759746551514
1761316233292245500,11.54724560546875,-3.864408493041992,-5.690132141113281,-4.223331928253174
1761316233311168300,11.566168212890625,-1.5074782371520996,-8.236095428466797,-5.91505765914917
1761316233330090800,11.5850908203125,0.20578274130821228,-11.186446189880371,-7.561319351196289
1761316233349013200,11.60401318359375,-0.41874396800994873,-12.370893478393555,-7.044469833374023
1761316233367935700,11.622935791015625,2.833101987838745,-10.705488204956055,-6.58265495300293
1761316233386858500,11.6418583984375,1.179661512374878,-7.546962738037109,-6.072983741760254
1761316233405781000,11.660781005859375,0.6675975322723389,-6.240481376647949,-6.556334018707275
1761316233424703500,11.679703369140626,0.36610186100006104,-6.211767673492432,-6.424728870391846
1761316233443626000,11.6986259765625,0.3924229145050049,-6.941578388214111,-6.1399827003479
1761316233462548500,11.717548583984374,0.2799602448940277,-7.8628153800964355,-6.116054534912109
1761316233481471200,11.73647119140625,0.4570291340351105,-8.532805442810059,-6.233303070068359
1761316233500393700,11.755393798828125,0.4426721930503845,-8.48734188079834,-6.221338748931885
1761316233519316200,11.774316162109375,0.42352959513664246,-7.814958572387695,-6.537191390991211
1761316233538239000,11.793239013671876,0.4977070987224579,-7.269395351409912,-6.661618232727051
1761316233557161500,11.812161376953124,0.7034898400306702,-7.477570533752441,-6.206982135772705
1761316233576084000,11.831083984375,0.4785645306110382,-7.922635555267334,-5.632704734802246
1761316233595006500,11.85000634765625,0.5431707501411438,-8.329415321350098,-5.13021183013916
1761316233613929200,11.86892919921875,0.849452018737793,-8.46580696105957,-4.800002098083496
1761316233632851700,11.887851806640626,0.9475577473640442,-8.104490280151367,-4.575077056884766
1761316233651774200,11.906774169921874,0.9619147181510925,-7.623532772064209,-5.063212871551514
1761316233670696700,11.92569677734375,1.246660590171814,-7.240681171417236,-5.599205017089844
1761316233689619500,11.944619384765625,1.0719845294952393,-7.025327205657959,-5.91505765914917
1761316233708542000,11.9635419921875,0.8877372145652771,-7.144968509674072,-6.044270038604736
1761316233727464400,11.98246435546875,0.6556333899497986,-7.293323516845703,-6.228517532348633
1761316233746387000,12.001386962890624,0.6317051649093628,-7.664210796356201,-6.460621356964111
1761316233765309700,12.020309814453125,0.8925228714942932,-8.070990562438965,-6.742974281311035
1761316233784232200,12.039232177734375,1.0839486122131348,-8.2695951461792,-7.0301127433776855
1761316233803154700,12.05815478515625,0.7848458290100098,-8.437092781066895,-7.039684295654297
1761316233822077200,12.0770771484375,0.24406790733337402,-8.903693199157715,-7.144968509674072
1761316233841000000,12.096,-0.6580262184143066,-9.999606132507324,-7.759923934936523
1761316233859922400,12.11492236328125,-1.5864413976669312,-10.39920711517334,-8.870193481445312
1761316233878845000,12.133844970703125,-1.1174482107162476,-10.569097518920898,-9.140582084655762
1761316233897767400,12.152767333984375,1.246660590171814,-12.430713653564453,-8.3629150390625
1761316233916690200,12.171690185546876,2.912065267562866,-11.973684310913086,-4.962714195251465
1761316233935612700,12.19061279296875,2.029113531112671,-10.088140487670898,-5.106283664703369
1761316233954535200,12.20953515625,0.7920243144035339,-8.401200294494629,-6.1399827003479
1761316233973457700,12.228457763671875,0.32542386651039124,-7.77188777923584,-6.7692952156066895
1761316233992380400,12.24738037109375,0.08374879509210587,-8.281558990478516,-7.310073375701904
1761316234011303000,12.266302978515625,0.2512463629245758,-8.657232284545898,-6.69990348815918
1761316234030225400,12.285225341796876,0.4618147611618042,-8.93240737915039,-5.642275810241699
1761316234049148000,12.30414794921875,0.07896314561367035,-9.176474571228027,-4.374079704284668
1761316234068070400,12.3230703125,0.11246266216039658,-8.908478736877441,-4.039084434509277
1761316234086993200,12.3419931640625,1.0480563640594482,-8.96829891204834,-5.20678186416626
1761316234105915600,12.36091552734375,1.4620146751403809,-9.487542152404785,-5.364708423614502
1761316234124838100,12.379838134765626,1.919043779373169,-9.391828536987305,-5.335994720458984
1761316234143760600,12.3987607421875,1.9022940397262573,-9.336793899536133,-4.7401814460754395
1761316234162683400,12.417683349609375,1.423729419708252,-9.073583602905273,-4.838287353515625
1761316234181606000,12.43660595703125,1.00259268283844,-8.286344528198242,-4.974678039550781
1761316234200528400,12.4555283203125,1.2418749332427979,-7.891529083251953,-5.438885688781738
1761316234219451000,12.474450927734376,1.5696916580200195,-7.599604606628418,-5.520241737365723
1761316234238373600,12.49337353515625,2.2755744457244873,-7.389036178588867,-5.257031440734863
1761316234257296100,12.512296142578125,2.847458839416504,-7.04925537109375,-4.902893543243408
1761316234276218600,12.531218505859375,2.4646072387695312,-6.254838466644287,-4.816751956939697
1761316234295141000,12.55014111328125,2.4741785526275635,-5.776273727416992,-4.264009952545166
1761316234314064000,12.56906396484375,2.249253273010254,-5.855237007141113,-4.232903480529785
1761316234332986400,12.587986328125,2.3736801147460938,-5.862415313720703,-3.988835334777832
1761316234351908900,12.606908935546874,2.7972097396850586,-5.522634506225586,-3.737588882446289
1761316234370831400,12.625831298828125,3.2829527854919434,-4.9363932609558105,-3.5772697925567627
1761316234389753900,12.64475390625,3.8979079723358154,-4.474578380584717,-3.8117663860321045
1761316234408676600,12.663676513671875,4.335794448852539,-3.933800458908081,-4.785645484924316
1761316234427599000,12.68259912109375,4.692325115203857,-3.2781670093536377,-5.632704734802246
1761316234446521600,12.701521484375,5.19242525100708,-2.964707374572754,-6.367300987243652
1761316234465444000,12.720444091796875,5.905486106872559,-3.2518460750579834,-7.106683254241943
1761316234484366800,12.739366943359375,6.733402729034424,-3.759124279022217,-7.759923934936523
1761316234503289300,12.758289306640625,7.448856830596924,-4.204189300537109,-8.805587768554688
1761316234522211800,12.7772119140625,7.865208148956299,-4.754538536071777,-8.683553695678711
1761316234541134300,12.79613427734375,8.032705307006836,-5.190032482147217,-7.5086774826049805
1761316234560056800,12.815056884765625,7.910671710968018,-4.845465660095215,-6.214160442352295
1761316234578979600,12.8339794921875,7.037291526794434,-4.2592244148254395,-4.831109046936035
1761316234597902000,12.852902099609375,6.175875186920166,-3.7878382205963135,-4.247260093688965
1761316234616824600,12.871824462890626,5.376672267913818,-4.632504463195801,-4.778466701507568
1761316234635747000,12.8907470703125,4.807180881500244,-8.257631301879883,-6.498906135559082
1761316234654669600,12.909669677734374,6.939185619354248,-13.414163589477539,-9.53061294555664
1761316234673592300,12.92859228515625,5.948556900024414,-16.151552200317383,-11.10030460357666
1761316234692514800,12.947514892578125,3.208775281906128,-11.016555786132812,-8.920442581176758
1761316234711437300,12.966437255859375,1.4715858697891235,-7.611568927764893,-4.084548473358154
1761316234730359800,12.98535986328125,1.1198409795761108,-5.970092296600342,0.16510476171970367
1761316234749282600,13.004282470703124,-1.155733346939087,-5.718846321105957,-0.7178468108177185
1761316234768205000,13.023205078125,-2.7182464599609375,-5.807380676269531,-2.9694929122924805
1761316234787127600,13.04212744140625,-3.2135608196258545,-6.989434719085693,-5.85284423828125
1761316234806050000,13.061050048828125,-2.1750757694244385,-8.547162055969238,-7.300501823425293
1761316234824972500,13.07997265625,-0.638883650302887,-9.856036186218262,-7.692924976348877
1761316234843895000,13.09889501953125,1.545763373374939,-10.205389022827148,-6.398407936096191
1761316234862817800,13.11781787109375,3.177668571472168,-9.695717811584473,-5.477170944213867
1761316234881740300,13.136740234375,2.3401806354522705,-8.310273170471191,-5.529813289642334
1761316234900662800,13.155662841796875,2.2636101245880127,-7.2335028648376465,-5.807380676269531
1761316234919585300,13.174585205078126,1.9980069398880005,-6.5180487632751465,-6.2500529289245605
1761316234938508000,13.193508056640624,1.8424733877182007,-6.721438884735107,-6.606583118438721
1761316234957430500,13.212430419921875,1.5960127115249634,-7.0301127433776855,-6.5491557121276855
1761316234976353000,13.23135302734375,1.2705888748168945,-7.5086774826049805,-6.7692952156066895
1761316234995275500,13.250275634765625,1.5050854682922363,-7.795815944671631,-6.4510498046875
1761316235014198000,13.269197998046875,1.1581261157989502,-7.920242786407471,-6.302694797515869
1761316235033120500,13.28812060546875,1.1389836072921753,-7.922635555267334,-5.953342914581299
1761316235052043300,13.307043212890624,1.3423734903335571,-8.063812255859375,-5.410171985626221
1761316235070965800,13.3259658203125,1.5481562614440918,-8.260024070739746,-5.201996326446533
1761316235089888300,13.34488818359375,1.6103696823120117,-8.650053977966309,-4.9052863121032715
1761316235108810800,13.363810791015625,1.7563318014144897,-8.535198211669922,-4.685146808624268
1761316235127733500,13.3827333984375,1.7228323221206665,-8.3629150390625,-5.134997367858887
1761316235146656000,13.401656005859374,1.7252250909805298,-7.9968132972717285,-5.66620397567749
1761316235165578500,13.42057861328125,1.5026925802230835,-7.76470947265625,-6.120840549468994
1761316235184501000,13.4395009765625,1.557727575302124,-7.537391185760498,-6.340980052947998
1761316235203423500,13.458423583984375,1.6869399547576904,-7.278966426849365,-6.453442573547363
1761316235222346000,13.477345947265626,1.7084753513336182,-6.912864685058594,-6.652047157287598
1761316235241268700,13.496268798828124,1.3184453248977661,-6.620940208435059,-6.8171515464782715
1761316235260191200,13.515191162109375,1.3830515146255493,-6.829115867614746,-6.898507595062256
1761316235279113700,13.53411376953125,1.5409778356552124,-7.214360237121582,-6.5180487632751465
1761316235298036200,13.5530361328125,1.770688772201538,-7.843672752380371,-6.759724140167236
1761316235316958700,13.571958740234376,1.6247265338897705,-8.334200859069824,-6.879364967346191
1761316235335881500,13.590881591796874,1.277767300605774,-8.200202941894531,-6.283552169799805
1761316235354804000,13.609803955078124,1.5433706045150757,-7.936992645263672,-5.19242525100708
1761316235373726500,13.6287265625,2.03629207611084,-7.956135272979736,-4.642076015472412
1761316235392649000,13.64764892578125,2.526820659637451,-8.212167739868164,-4.922036170959473
1761316235411571500,13.666571533203125,2.390429735183716,-8.523234367370605,-5.670989513397217
1761316235430494000,13.685493896484376,1.9525432586669922,-8.528019905090332,-6.027520179748535
1761316235449416700,13.704416748046874,1.5481562614440918,-8.149953842163086,-5.886343479156494
1761316235468339200,13.723339111328125,1.1988041400909424,-7.561319351196289,-5.771488189697266
1761316235487261700,13.74226171875,1.5553346872329712,-7.539783954620361,-5.891129493713379
1761316235506184200,13.76118408203125,2.2612173557281494,-7.707281589508057,-5.960521221160889
1761316235525106700,13.780106689453126,2.3856441974639893,-7.893921852111816,-6.0466628074646
1761316235544029200,13.799029296875,2.1607189178466797,-8.039883613586426,-5.91505765914917
1761316235562952000,13.817951904296875,1.9956140518188477,-7.81974458694458,-5.86002254486084
1761316235581874400,13.83687451171875,2.053041934967041,-7.520641803741455,-5.955735683441162
1761316235600797000,13.855796875,2.1104695796966553,-7.41535758972168,-6.056233882904053
1761316235619719400,13.874719482421876,2.383251428604126,-7.389036178588867,-6.2668023109436035
1761316235638642000,13.893641845703126,2.335394859313965,-7.513463020324707,-6.314659118652344
1761316235657564400,13.912564453125,2.170290231704712,-7.637889862060547,-6.041877269744873
1761316235676487200,13.931487060546875,2.251646041870117,-7.712067604064941,-5.828916072845459
1761316235695409700,13.95040966796875,2.287538528442383,-7.688138961791992,-5.807380676269531
1761316235714332200,13.969332275390625,2.400001049041748,-7.621140003204346,-5.867201328277588
1761316235733254700,13.988254638671876,2.4670002460479736,-7.613961696624756,-6.041877269744873
1761316235752177200,14.00717724609375,2.486142635345459,-7.652246952056885,-5.996413707733154
1761316235771099600,14.026099609375,2.5363919734954834,-7.628318786621094,-5.91505765914917
1761316235790022400,14.0450224609375,2.4981069564819336,-7.537391185760498,-6.010770320892334
1761316235808945000,14.06394482421875,2.304288148880005,-7.503891944885254,-6.096911907196045
1761316235827867400,14.082867431640626,2.2301106452941895,-7.551748275756836,-5.986842155456543
1761316235846790000,14.101789794921874,2.1990039348602295,-7.527820110321045,-5.979663848876953
1761316235865712400,14.12071240234375,2.2540390491485596,-7.5326056480407715,-6.008377552032471
1761316235884635000,14.139634765625,2.2636101245880127,-7.566105365753174,-6.056233882904053
1761316235903557600,14.1585576171875,2.155933141708374,-7.64028263092041,-6.013163089752197
1761316235922480000,14.177480224609376,2.2468605041503906,-7.637889862060547,-5.962913990020752
1761316235941402600,14.196402587890624,2.2947168350219727,-7.712067604064941,-5.862415313720703
1761316235960325000,14.2153251953125,2.163111686706543,-7.867600917816162,-5.800201892852783
1761316235979247600,14.23424755859375,2.2205393314361572,-7.846065521240234,-5.615954875946045
1761316235998170000,14.253170166015625,2.610569477081299,-7.817351341247559,-5.876772403717041
1761316236017092600,14.272092529296875,2.3976082801818848,-7.812565803527832,-5.936593055725098
1761316236036015400,14.291015380859376,2.1846470832824707,-7.613961696624756,-5.960521221160889
1761316236054937900,14.309937744140624,1.9860427379608154,-7.585247993469238,-5.893522262573242
