time,seconds_elapsed,z,y,x
1761316221983503000,0.238503173828125,-0.03184041380882263,0.0325276181101799,0.060092099010944366
1761316222002425900,0.25742578125,-0.025731941685080528,0.07650861889123917,0.10407309979200363
1761316222021348400,0.276348388671875,-0.007406522985547781,0.10705098509788513,0.09918632358312607
1761316222040270800,0.295270751953125,0.0023670331574976444,0.08261708915233612,0.07169819623231888
1761316222059193300,0.314193359375,0.012751436792314053,0.049020491540431976,0.040544986724853516
1761316222078116000,0.3331162109375,0.00786465872079134,0.03558185324072838,0.03382566571235657
1761316222097038600,0.35203857421875,-0.00862821750342846,0.021532366052269936,0.02283041551709175
1761316222115961000,0.370961181640625,-0.022677704691886902,0.001985253533348441,0.014278554357588291
1761316222134883600,0.389883544921875,-0.036727190017700195,-0.03649812191724777,0.006948387715965509
1761316222153806000,0.40880615234375,-0.044668205082416534,-0.05115845799446106,-0.0028251686599105597
1761316222172728800,0.427728759765625,-0.037948887795209885,-0.07498150318861008,-0.013209572061896324
1761316222191651300,0.4466513671875,-0.020845163613557816,-0.08047912269830704,-0.01748550310730934
1761316222210573800,0.46557373046875,-0.013514995574951172,-0.07681404054164886,-0.02970244735479355
1761316222229496600,0.48449658203125,-0.01046075951308012,-0.0988045409321785,-0.043141089379787445
1761316222248419000,0.503419189453125,-0.01046075951308012,-0.10369132459163666,-0.041919391602277756
1761316222267341600,0.522341552734375,-0.017180079594254494,-0.08292251825332642,-0.031534988433122635
1761316222286264000,0.54126416015625,-0.028786176815629005,-0.07070557028055191,-0.01748550310730934
1761316222305186800,0.560186767578125,-0.03489464893937111,-0.06704048812389374,-0.011987877078354359
1761316222324109300,0.579109375,-0.030007870867848396,-0.0462716780602932,-0.0022143214009702206
1761316222343031800,0.59803173828125,-0.017180079594254494,-0.05482354015111923,-0.022372281178832054
1761316222361954300,0.616954345703125,-0.014125842601060867,-0.10246963053941727,-0.049860406666994095
1761316222380877000,0.635876953125,-0.009239064529538155,-0.0725381150841713,-0.03825430944561958
1761316222399799600,0.654799560546875,0.0005344913806766272,-0.06581879407167435,-0.04008685052394867
1761316222418722000,0.67372216796875,-0.0067956759594380856,-0.06887302547693253,-0.05169294774532318
1761316222437644500,0.69264453125,-0.0067956759594380856,-0.06642963737249374,-0.053525492548942566
1761316222456567300,0.7115673828125,-0.027564482763409615,-0.06704048812389374,-0.04558447748422623
1761316222475489800,0.73048974609375,-0.047111593186855316,-0.09147437661886215,-0.03764346241950989
1761316222494412300,0.749412353515625,-0.04650074616074562,-0.11346487700939178,-0.05047125369310379
1761316222513334800,0.768334716796875,-0.03306210786104202,-0.07559234648942947,-0.049860406666994095
1761316222532257300,0.78725732421875,-0.025731941685080528,-0.06887302547693253,-0.04619532451033592
1761316222551180000,0.806179931640625,-0.03367295488715172,-0.05787777900695801,-0.04375193640589714
1761316222570102500,0.8251025390625,-0.058717694133520126,-0.034665580838918686,-0.03458922728896141
1761316222589025000,0.84402490234375,-0.06665870547294617,-0.05115845799446106,-0.053525492548942566
1761316222607947800,0.86294775390625,-0.06665870547294617,-0.0590994730591774,-0.06085565686225891
1761316222626870300,0.881870361328125,-0.061771929264068604,0.004428642801940441,-0.04680617153644562
1761316222645792800,0.900792724609375,-0.07826480269432068,0.058183200657367706,-0.05657972767949104
1761316222664715300,0.91971533203125,-0.07887565344572067,-0.033443886786699295,-0.08101361989974976
1761316222683637800,0.9386376953125,-0.08498412370681763,-0.07498150318861008,-0.06940752267837524
1761316222702560500,0.957560546875,-0.09414683282375336,-0.11835165321826935,-0.09139802306890488
1761316222721483000,0.97648291015625,-0.09475768357515335,-0.10857810080051422,-0.09261971712112427
1761316222740405500,0.995405517578125,-0.08559497445821762,-0.1122431829571724,-0.08162446320056915
1761316222759328300,1.014328369140625,-0.07948649674654007,-0.10369132459163666,-0.0761268362402916
1761316222778250800,1.033250732421875,-0.0745997205376625,-0.05726693198084831,-0.06696412712335587
1761316222797173200,1.05217333984375,-0.06421531736850739,-0.021837789565324783,-0.039476003497838974
1761316222816095700,1.071095703125,-0.05322006717324257,0.0038177953101694584,-0.016874656081199646
1761316222835018200,1.090018310546875,-0.05322006717324257,-0.004123218823224306,-0.022372281178832054
1761316222853941000,1.10894091796875,-0.07032378762960434,-0.04749337583780289,-0.04008685052394867
1761316222872863500,1.127863525390625,-0.08620581775903702,-0.0859767496585846,-0.04558447748422623
1761316222891786000,1.146785888671875,-0.08131904155015945,-0.0725381150841713,-0.027259059250354767
1761316222910708500,1.16570849609375,-0.06604786217212677,-0.05604523420333862,-0.03825430944561958
1761316222929631200,1.18463134765625,-0.058717694133520126,-0.03649812191724777,-0.03703261539340019
1761316222948553700,1.2035537109375,-0.05993938818573952,0.02641914412379265,-0.018707197159528732
1761316222967476200,1.222476318359375,-0.06482616811990738,0.08994726091623306,0.0038941511884331703
1761316222986398700,1.241398681640625,-0.03978142887353897,0.11621369421482086,0.016721943393349648
1761316223005321500,1.260321533203125,-0.02817532978951931,0.028251685202121735,-0.04253023862838745
1761316223024244000,1.279243896484375,-0.03978142887353897,-0.010231691412627697,-0.022372281178832054
1761316223043166500,1.29816650390625,-0.055052608251571655,-0.021837789565324783,-0.026037365198135376
1761316223062089000,1.3170888671875,-0.061771929264068604,-0.08353336155414581,-0.040697697550058365
1761316223081011700,1.33601171875,-0.06910209357738495,-0.20814619958400726,-0.06574243307113647
1761316223099934200,1.354934326171875,-0.07948649674654007,-0.3364241421222687,-0.07429429888725281
1761316223118856700,1.373856689453125,-0.09109259396791458,-0.28633466362953186,-0.012598725035786629
1761316223137779200,1.392779296875,-0.047111593186855316,-0.1256818175315857,-0.0028251686599105597
1761316223156702000,1.411701904296875,-0.00129805039614439,-0.05604523420333862,-0.015042114071547985
1761316223175624400,1.43062451171875,-0.0019088976550847292,-0.06948387622833252,-0.019928891211748123
1761316223194547000,1.449546875,-0.0165692325681448,-0.09513945877552032,-0.024815669283270836
1761316223213469400,1.468469482421875,-0.024510245770215988,-0.0988045409321785,-0.02664821222424507
1761316223232392200,1.48739208984375,-0.030007870867848396,-0.05787777900695801,-0.005268557462841272
1761316223251314700,1.506314697265625,-0.0489441379904747,-0.05482354015111923,-0.004657710436731577
1761316223270237200,1.5252373046875,-0.058717694133520126,-0.06398624926805496,-0.024815669283270836
1761316223289159700,1.54415966796875,-0.05810684710741043,-0.10857810080051422,-0.043141089379787445
1761316223308082200,1.563082275390625,-0.047111593186855316,-0.11407572776079178,-0.05963396281003952
1761316223327005000,1.5820048828125,-0.043446511030197144,-0.10246963053941727,-0.04802786558866501
1761316223345927400,1.600927490234375,-0.05016583204269409,-0.07803573459386826,-0.03336753323674202
1761316223364850000,1.619849853515625,-0.04772244393825531,-0.04199574887752533,-0.015042114071547985
1761316223383772700,1.638772705078125,-0.03978142887353897,-0.03588727489113808,-0.026037365198135376
1761316223402695200,1.657695068359375,-0.03978142887353897,-0.04077405482530594,-0.024815669283270836
1761316223421617700,1.67661767578125,-0.035505495965480804,-0.050547610968351364,-0.019928891211748123
1761316223440540200,1.6955400390625,-0.044668205082416534,-0.043828289955854416,0.0008399150101467967
1761316223459462700,1.714462646484375,-0.0489441379904747,-0.029778804630041122,0.007559234742075205
1761316223478385400,1.733385498046875,-0.04527905210852623,-0.010842538438737392,0.0130568603053689
1761316223497308000,1.752307861328125,-0.0361163429915905,0.01847812905907631,0.023441264405846596
1761316223516230400,1.77123046875,-0.03733803704380989,0.03130592033267021,0.01916533336043358
1761316223535153200,1.790153076171875,-0.04161396995186806,-0.0029015245381742716,0.005726693198084831
1761316223554075600,1.80907568359375,-0.047111593186855316,-0.04443913698196411,0.005726693198084831
1761316223572998100,1.827998046875,-0.048333290964365005,-0.06032116711139679,-0.008933641016483307
1761316223591920600,1.846920654296875,-0.05199837312102318,-0.037108972668647766,-0.015042114071547985
1761316223610843400,1.865843505859375,-0.052609220147132874,-0.03405473381280899,-0.023593975231051445
1761316223629766000,1.884765869140625,-0.049554985016584396,-0.07375980913639069,-0.0358109213411808
1761316223648688400,1.9036884765625,-0.044668205082416534,-0.10185877978801727,-0.039476003497838974
1761316223667611000,1.92261083984375,-0.04283566400408745,-0.10613471269607544,-0.03458922728896141
1761316223686533400,1.941533447265625,-0.03306210786104202,-0.12140589207410812,-0.048638712614774704
1761316223705456000,1.9604560546875,-0.02023431472480297,-0.14156384766101837,-0.06452073901891708
1761316223724378600,1.979378662109375,-0.012904148548841476,-0.14645062386989594,-0.06452073901891708
1761316223743301000,1.998301025390625,-0.009239064529538155,-0.14645062386989594,-0.05841226875782013
1761316223762223900,2.017223876953125,-0.014736690558493137,-0.1757712960243225,-0.059023115783929825
1761316223781146400,2.036146484375,-0.012293301522731781,-0.2038702666759491,-0.04558447748422623
1761316223800068900,2.05506884765625,-0.0025197449140250683,-0.20875705778598785,-0.01626380905508995
1761316223818991400,2.073991455078125,0.006032116711139679,-0.21058958768844604,-0.004657710436731577
1761316223837914000,2.0929140625,0.01885990984737873,-0.18798823654651642,-0.004046862944960594
1761316223856836600,2.111836669921875,0.02557922899723053,-0.17454960942268372,0.0014507622690871358
1761316223875759000,2.130759033203125,0.020692450925707817,-0.2038702666759491,0.009391776286065578
1761316223894681600,2.149681640625,0.0164165198802948,-0.26495498418807983,-0.013209572061896324
1761316223913604400,2.168604248046875,0.012751436792314053,-0.2967190444469452,-0.01748550310730934
1761316223932526800,2.18752685546875,0.021303297951817513,-0.23807771503925323,0.002061609411612153
1761316223951449300,2.206449462890625,0.05673243850469589,-0.15744587779045105,-0.015652960166335106
1761316223970372000,2.2253720703125,0.07750124484300613,-0.21853061020374298,-0.024815669283270836
1761316223989294600,2.244294677734375,0.07750124484300613,-0.36574479937553406,-0.05535803362727165
1761316224008217000,2.263217041015625,0.06406260281801224,-0.5007420182228088,-0.10911259055137634
1761316224027139600,2.2821396484375,0.06284090876579285,-0.4414898455142975,-0.10117157548666
1761316224046062300,2.301062255859375,0.09093988686800003,-0.25945737957954407,-0.04497363045811653
1761316224064984800,2.31998486328125,0.12759071588516235,-0.08964183181524277,-0.06696412712335587
1761316224083907300,2.3389072265625,0.11842801421880722,-0.060932014137506485,-0.13049224019050598
1761316224102830000,2.357830078125,0.1361425817012787,-0.20875705778598785,-0.13598987460136414
1761316224121752600,2.376752685546875,0.12636902928352356,-0.2166980654001236,-0.126216322183609
1761316224140675000,2.395675048828125,0.11598462611436844,-0.266176700592041,-0.17080816626548767
1761316224159597600,2.41459765625,0.12270393967628479,-0.30160582065582275,-0.1934095174074173
1761316224178520300,2.433520263671875,0.12392564117908478,-0.3352024257183075,-0.17202985286712646
1761316224197442800,2.45244287109375,0.120871402323246,-0.3211529552936554,-0.14515258371829987
1761316224216365300,2.471365234375,0.10987614840269089,-0.2588465213775635,-0.10972344130277634
1761316224235287800,2.490287841796875,0.09949174523353577,-0.20936790108680725,-0.08345700800418854
1761316224254210600,2.50921044921875,0.09827005118131638,-0.15988926589488983,-0.057801421731710434
1761316224273133000,2.528133056640625,0.10132429003715515,-0.14400723576545715,-0.033978380262851715
1761316224292055600,2.5470556640625,0.11109784245491028,-0.10857810080051422,-0.0064902519807219505
1761316224310978300,2.565978271484375,0.11842801421880722,-0.08353336155414581,0.014889402315020561
1761316224329900800,2.58490087890625,0.14530529081821442,-0.10674555599689484,0.002061609411612153
1761316224348823300,2.6038232421875,0.1587439328432083,-0.1495048701763153,0.0008399150101467967
1761316224367746000,2.62274609375,0.18012358248233795,-0.0981936976313591,-0.005879404954612255
1761316224386668500,2.64166845703125,0.20761170983314514,0.025808297097682953,0.010613471269607544
1761316224405591000,2.660591064453125,0.23204560577869415,0.150421142578125,0.025884652510285378
1761316224424513500,2.679513427734375,0.27113983035087585,0.2683146595954895,0.0558161698281765
1761316224443436300,2.698436279296875,0.3303920030593872,0.3727695345878601,0.04543176665902138
1761316224462358800,2.71735888671875,0.4079696238040924,0.4265241026878357,0.039323292672634125
1761316224481281300,2.73628125,0.4629458785057068,0.5077667832374573,0.08452598750591278
1761316224500204000,2.7552041015625,0.49226653575897217,0.46928340196609497,0.14377817511558533
1761316224519126500,2.77412646484375,0.48127129673957825,0.37948885560035706,0.15477342903614044
1761316224538049000,2.793049072265625,0.48004958033561707,0.27320143580436707,0.15538427233695984
1761316224556971800,2.8119716796875,0.5044834613800049,0.17241163551807404,0.18409408628940582
1761316224575894300,2.830894287109375,0.538080096244812,0.11682453751564026,0.2134147584438324
1761316224594816800,2.849816650390625,0.4916556775569916,0.1516428291797638,0.1724879890680313
1761316224613739500,2.868739501953125,0.4501180648803711,-0.06948387622833252,0.16393613815307617
1761316224632662000,2.887662109375,0.47943875193595886,-0.1904316395521164,0.11140327155590057
1761316224651584500,2.90658447265625,0.5368583798408508,-0.4152234196662903,0.010002624243497849
1761316224670507300,2.92550732421875,0.6107708811759949,-0.5257867574691772,-0.06513158977031708
1761316224689429800,2.9444296875,0.6724664568901062,-0.5282301902770996,-0.11949699372053146
1761316224708352300,2.963352294921875,0.7347729206085205,-0.5752654075622559,-0.1659213900566101
1761316224727275000,2.98227490234375,0.7836406826972961,-0.6400152444839478,-0.1671430766582489
1761316224746197500,3.001197509765625,0.7634826898574829,-0.6901046633720398,-0.17569494247436523
1761316224765120000,3.0201201171875,0.6425349712371826,-0.7481352090835571,-0.20929154753684998
1761316224784042500,3.03904248046875,0.4641675651073456,-0.8263236284255981,-0.2606027126312256
1761316224802965200,3.05796533203125,0.3279486298561096,-0.8422056436538696,-0.26426780223846436
1761316224821887700,3.0768876953125,0.24609509110450745,-0.8806890249252319,-0.26365694403648376
1761316224840810500,3.095810546875,0.23632153868675232,-0.8648070096969604,-0.25082916021347046
1761316224859733000,3.11473291015625,0.2796916961669922,-0.8690829277038574,-0.21723255515098572
1761316224878655500,3.133655517578125,0.3474957346916199,-0.8855758309364319,-0.17630578577518463
1761316224897578200,3.152578125,0.4488963782787323,-0.9717052578926086,-0.15187190473079681
1761316224916500700,3.171500732421875,0.51914381980896,-1.0169079303741455,-0.16103461384773254
1761316224935423200,3.19042333984375,0.6003865003585815,-1.0999832153320312,-0.179360032081604
1761316224954345700,3.209345703125,0.7249993681907654,-1.098150610923767,-0.232503741979599
1761316224973268500,3.2282685546875,0.7983010411262512,-1.0114103555679321,-0.31618982553482056
1761316224992191000,3.24719091796875,0.7512657642364502,-0.931389331817627,-0.34245625138282776
1761316225011113500,3.266113525390625,0.643756628036499,-0.8183826208114624,-0.4004867374897003
1761316225030036200,3.2850361328125,0.4757736623287201,-0.6949914693832397,-0.5299863815307617
1761316225048958700,3.303958740234375,0.36093437671661377,-0.49524441361427307,-0.6594859957695007
1761316225067881500,3.322881591796875,0.3963635265827179,-0.24662958085536957,-0.7627191543579102
1761316225086804000,3.341803955078125,0.33588963747024536,-0.10552386194467545,-0.6918608546257019
1761316225105726500,3.3607265625,0.3279486298561096,-0.0035123717971146107,-0.42614230513572693
1761316225124649200,3.379649169921875,0.329781174659729,0.2933593988418579,0.0130568603053689
1761316225143571700,3.39857177734375,0.5478536486625671,1.1962679624557495,0.24884390830993652
1761316225162494200,3.417494140625,0.18989713490009308,1.401512622833252,-0.008933641016483307
1761316225181417000,3.4364169921875,-0.6713975071907043,1.2610177993774414,0.1590493619441986
1761316225200339500,3.45533935546875,-1.4832135438919067,2.743544101715088,0.30870693922042847
1761316225219262000,3.474261962890625,-1.3714284896850586,4.581048965454102,0.16821207106113434
1761316225238184700,3.493184814453125,-0.8430455923080444,4.7282633781433105,-0.08712209016084671
1761316225257107200,3.512107177734375,-0.06482616811990738,3.175413131713867,-0.21112407743930817
1761316225276029700,3.53102978515625,0.23265644907951355,1.1009758710861206,-0.22334103286266327
1761316225294952400,3.549952392578125,-0.15034478902816772,0.19562382996082306,-0.26487863063812256
1761316225313875000,3.568875,-0.7819608449935913,0.30313295125961304,-0.34673216938972473
1761316225332797400,3.58779736328125,-0.9316184520721436,0.4631749391555786,-0.6081748008728027
1761316225351720200,3.60672021484375,-0.9090170860290527,0.21211670339107513,-0.678422212600708
1761316225370642700,3.625642578125,-0.8271635174751282,0.049020491540431976,-0.701634407043457
1761316225389565400,3.6445654296875,-0.6982747912406921,0.00015271181473508477,-0.7498913407325745
1761316225408488000,3.663488037109375,-0.5932090282440186,-0.1366770714521408,-0.7712710499763489
1761316225427410400,3.682410400390625,-0.6011500358581543,-0.13423368334770203,-0.8354099988937378
1761316225446333200,3.701333251953125,-0.6249731183052063,0.12659808993339539,-0.8506811857223511
1761316225465255700,3.720255615234375,-0.6158103942871094,0.2933593988418579,-0.7828771471977234
1761316225484178200,3.73917822265625,-0.6463527679443359,0.4772244095802307,-0.7413395047187805
1761316225503101000,3.758100830078125,-0.6994964480400085,0.7845569252967834,-0.6735354661941528
1761316225522023400,3.7770234375,-0.7251520752906799,0.9751412868499756,-0.5244887471199036
1761316225540946000,3.79594580078125,-0.6842252612113953,0.9708653688430786,-0.42369893193244934
1761316225559868700,3.81486865234375,-0.5956524610519409,0.8560260534286499,-0.4530195891857147
1761316225578791200,3.833791259765625,-0.609701931476593,0.7020925879478455,-0.5189911127090454
1761316225597714000,3.8527138671875,-0.6732300519943237,0.7405759692192078,-0.5605286955833435
1761316225616636400,3.871636474609375,-0.5370110869407654,0.6758261322975159,-0.5629721283912659
1761316225635559000,3.890558837890625,-0.31954947113990784,0.5309789776802063,-0.5147151947021484
1761316225654481700,3.909481689453125,-0.17355698347091675,0.4271349310874939,-0.4426352083683014
1761316225673404200,3.928404052734375,-0.1662268042564392,0.3184041380882263,-0.2697654068470001
1761316225692326700,3.94732666015625,-0.2212030589580536,0.3361186981201172,-0.01382041908800602
1761316225711249400,3.96624951171875,-0.22181391716003418,0.6141305565834045,0.28244051337242126
1761316225730172000,3.985171875,-0.07337802648544312,0.862134575843811,0.5664844512939453
1761316225749094700,4.0040947265625,0.29801711440086365,0.8181535601615906,0.6006919145584106
1761316225768017200,4.02301708984375,0.8972582817077637,0.37704548239707947,0.4742465317249298
1761316225786939600,4.041939697265625,1.3835690021514893,-0.23929941654205322,0.5970268249511719
1761316225805862400,4.0608623046875,1.790393352508545,-0.4897467792034149,1.0563839673995972
1761316225824785000,4.079784912109375,1.9076759815216064,-0.7798992395401001,1.6575340032577515
1761316225843707400,4.098707275390625,1.637070655822754,-0.47203221917152405,1.9342478513717651
1761316225862630100,4.117630126953125,1.3762388229370117,0.435075968503952,2.1217780113220215
1761316225881552600,4.136552734375,1.123958945274353,0.39414918422698975,2.042367696762085
1761316225900475400,4.155475341796875,1.051191806793213,-0.35536038875579834,1.9531841278076172
1761316225919398000,4.17439794921875,1.1160179376602173,-0.746913492679596,2.059471607208252
1761316225938320400,4.1933203125,1.1056334972381592,-0.7530219554901123,2.1614830493927
1761316225957243100,4.2122431640625,1.166107416152954,-0.6571189165115356,1.7118993997573853
1761316225976165600,4.23116552734375,1.1184613704681396,-0.6583406329154968,1.3062968254089355
1761316225995088400,4.25008837890625,1.0493592023849487,-1.167176365852356,0.9592592716217041
1761316226014011000,4.269010986328125,1.1160179376602173,-1.4127370119094849,0.6159631013870239
1761316226032933400,4.287933349609375,1.2290246486663818,-1.552010178565979,0.366737425327301
1761316226051856100,4.306856201171875,1.2113101482391357,-1.7981816530227661,0.2628933787345886
1761316226070778600,4.325778564453125,1.028590440750122,-2.0700087547302246,0.2274642437696457
1761316226089701400,4.344701416015625,0.7848623991012573,-2.17698335647583,0.02710634656250477
1761316226108624000,4.363623779296875,0.5747309327125549,-1.8763700723648071,-0.3222982883453369
1761316226127546400,4.38254638671875,0.35238251090049744,-1.5630054473876953,-0.6271110773086548
1761316226146469000,4.40146923828125,0.19050799310207367,-1.30644953250885,-0.7010235786437988
1761316226165391600,4.4203916015625,0.13797512650489807,-0.8971819281578064,-0.6148941516876221
1761316226184314000,4.439314208984375,0.18317782878875732,-0.5141806602478027,-0.4841728210449219
1761316226203236900,4.45823681640625,0.24609509110450745,-0.2154763638973236,-0.4255314767360687
1761316226222159400,4.477159423828125,0.2522035539150238,-0.10796725004911423,-0.4951680600643158
1761316226241082000,4.49608203125,0.23632153868675232,-0.1250709742307663,-0.5831300616264343
1761316226260004600,4.515004638671875,0.25831204652786255,-0.1769929975271225,-0.6100073456764221
1761316226278927000,4.533927001953125,0.2650313675403595,-0.2796153426170349,-0.5641937851905823
1761316226297849900,4.552849853515625,0.33772218227386475,-0.5239542126655579,-0.5409815907478333
1761316226316772400,4.5717724609375,0.5753417611122131,-0.931389331817627,-0.5971795320510864
1761316226335694800,4.59069482421875,0.7897491455078125,-1.3602041006088257,-0.7217923998832703
1761316226354617600,4.60961767578125,0.8086854219436646,-1.2838482856750488,-0.6692595481872559
1761316226373540000,4.6285400390625,0.7030088305473328,-0.9680401682853699,-0.468290776014328
1761316226392462800,4.647462890625,0.5967214107513428,-0.6442911624908447,-0.3766636848449707
1761316226411385300,4.66638525390625,0.45378315448760986,-0.30404922366142273,-0.5654155015945435
1761316226430308000,4.68530810546875,0.09949174523353577,-0.041384901851415634,-0.9129875898361206
1761316226449230600,4.704230712890625,-0.1668376624584198,0.03558185324072838,-0.7908181548118591
1761316226468153000,4.723153076171875,-0.246247798204422,-0.018783552572131157,0.04115583375096321
1761316226487075800,4.742075927734375,0.05978667363524437,0.150421142578125,0.732024073600769
1761316226505998300,4.760998291015625,-0.2444152534008026,0.7479060888290405,0.15049749612808228
1761316226524920800,4.7799208984375,-0.9077953696250916,1.8730868101119995,-0.23739051818847656
1761316226543843600,4.798843505859375,-1.3787586688995361,3.995246410369873,-0.6057314276695251
1761316226562766000,4.81776611328125,-1.4490060806274414,5.207778453826904,-0.678422212600708
1761316226581688800,4.836688720703125,-1.086162805557251,4.364809036254883,-0.07673768699169159
1761316226600611300,4.855611328125,-0.7178218960762024,2.2860195636749268,0.6752153038978577
1761316226619533800,4.874533935546875,-0.6536829471588135,1.4516021013259888,0.3545204699039459
1761316226638456600,4.89345654296875,-0.7923452258110046,0.9922450184822083,-0.06329904496669769
1761316226657379000,4.912379150390625,-0.9719343185424805,0.9458206295967102,-0.38155046105384827
1761316226676301800,4.9313017578125,-0.9994224905967712,0.7106444239616394,-0.48661619424819946
1761316226695224300,4.950224365234375,-0.8919133543968201,0.5108210444450378,-0.5208236575126648
1761316226714146800,4.969146728515625,-0.7819608449935913,0.2793098986148834,-0.5385382175445557
1761316226733069600,4.988069580078125,-0.747753381729126,0.3306210935115814,-0.5134934782981873
1761316226751992000,5.006991943359375,-0.664678156375885,0.4039227366447449,-0.5299863815307617
1761316226770914800,5.025914794921875,-0.5461738109588623,0.47417017817497253,-0.5623612403869629
1761316226789837300,5.04483740234375,-0.4936409294605255,0.7338566184043884,-0.512882649898529
1761316226808759800,5.063759765625,-0.4679853618144989,0.7845569252967834,-0.38338300585746765
1761316226827682600,5.0826826171875,-0.46004435420036316,0.7986064553260803,-0.1934095174074173
1761316226846605000,5.10160498046875,-0.47287213802337646,0.8163210153579712,-0.11949699372053146
1761316226865527600,5.120527587890625,-0.5516714453697205,0.7589013576507568,-0.15614783763885498
1761316226884450300,5.1394501953125,-0.6481853127479553,0.732024073600769,-0.31863319873809814
1761316226903372800,5.158372802734375,-0.7111025452613831,0.7179746031761169,-0.4798968732357025
1761316226922295600,5.177295654296875,-0.7306496500968933,0.7674532532691956,-0.5629721283912659
1761316226941218000,5.196218017578125,-0.7275954484939575,0.677047848701477,-0.5556419491767883
1761316226960140800,5.215140869140625,-0.6811710596084595,0.46928340196609497,-0.5122717618942261
1761316226979063300,5.234063232421875,-0.6243622303009033,0.31412819027900696,-0.4792860448360443
1761316226997985800,5.25298583984375,-0.5284592509269714,0.2786990702152252,-0.42125552892684937
1761316227016908500,5.271908447265625,-0.38002336025238037,0.2279987335205078,-0.34367793798446655
1761316227035831000,5.2908310546875,-0.21692712604999542,0.18340688943862915,-0.2447206825017929
1761316227054753500,5.30975341796875,-0.1283542811870575,0.32756683230400085,-0.08406785130500793
1761316227073676300,5.32867626953125,-0.11858072131872177,0.6086329221725464,0.1749313771724701
1761316227092598800,5.347598876953125,-0.09353598952293396,0.8169318437576294,0.4913502633571625
1761316227111521500,5.366521484375,0.1483595222234726,0.8499175906181335,0.5805339813232422
1761316227130444000,5.385444091796875,0.5325824618339539,0.34405970573425293,0.6196281909942627
1761316227149366500,5.404366455078125,0.935130774974823,-0.3981196880340576,0.7912762761116028
1761316227168289300,5.423289306640625,1.4122788906097412,-0.9814788103103638,0.9427663683891296
1761316227187211800,5.442211669921875,1.8129947185516357,-1.2300937175750732,1.2708677053451538
1761316227206134500,5.461134521484375,1.692046880722046,-0.8147175312042236,1.654479742050171
1761316227225057000,5.48005712890625,1.0940274000167847,-0.24601873755455017,1.8212411403656006
1761316227243979500,5.4989794921875,0.7702020406723022,-0.25212720036506653,1.947075605392456
1761316227262902300,5.51790234375,0.8685484528541565,-0.06887302547693253,2.0521414279937744
1761316227281824800,5.53682470703125,0.9937721490859985,0.16019469499588013,2.2225677967071533
1761316227300747500,5.55574755859375,1.1038010120391846,-0.3846810758113861,2.2543318271636963
1761316227319670000,5.574669921875,1.1435060501098633,-0.8025006055831909,1.8517835140228271
1761316227338592500,5.593592529296875,1.1160179376602173,-0.7566870450973511,1.3734900951385498
1761316227357515300,5.612515380859375,1.087918996810913,-1.3345485925674438,0.902450442314148
1761316227376437800,5.631437744140625,1.119683027267456,-1.5410149097442627,0.49684789776802063
1761316227395360500,5.650360595703125,1.2094775438308716,-1.7187714576721191,0.24151372909545898
1761316227414283000,5.669282958984375,1.2400199174880981,-2.0522940158843994,0.13889139890670776
1761316227433205500,5.68820556640625,1.1880979537963867,-2.3119804859161377,0.188370019197464
1761316227452128300,5.707128173828125,0.9131402969360352,-2.142164945602417,0.13095037639141083
1761316227471050800,5.72605078125,0.5301390886306763,-2.091999053955078,-0.29175591468811035
1761316227489973500,5.744973388671875,0.23326729238033295,-2.051072359085083,-0.7786011695861816
1761316227508896000,5.76389599609375,0.1086544543504715,-1.823837161064148,-0.9844567179679871
1761316227527818500,5.782818603515625,0.04146125912666321,-1.0633323192596436,-0.8671740293502808
1761316227546741200,5.8017412109375,-0.0067956759594380856,-0.4115583300590515,-0.6185591816902161
1761316227565663700,5.820663818359375,-0.10392039269208908,-0.14034216105937958,-0.49944397807121277
1761316227584586200,5.839586181640625,-0.17538951337337494,0.010537114925682545,-0.5660263299942017
1761316227603509000,5.858509033203125,-0.17172443866729736,0.2041756957769394,-0.7260683178901672
1761316227622431500,5.877431396484375,-0.18577392399311066,0.4399627447128296,-0.9087116718292236
1761316227641354200,5.896354248046875,-0.1808871477842331,0.2689255177974701,-0.9881218075752258
1761316227660276700,5.91527685546875,-0.0019088976550847292,-0.23929941654205322,-0.9258154034614563
1761316227679199200,5.93419921875,0.32367268204689026,-0.950936496257782,-0.9471950531005859
1761316227698122000,5.9531220703125,0.5985539555549622,-1.2154333591461182,-0.9044356942176819
1761316227717044500,5.97204443359375,0.6309288740158081,-0.7963921427726746,-0.600233793258667
1761316227735967200,5.99096728515625,0.5722874999046326,-0.12812520563602448,-0.2838149070739746
1761316227754889700,6.0098896484375,0.537469208240509,0.35138988494873047,-0.231282040476799
1761316227773812200,6.028812255859375,0.3450523316860199,0.4497362971305847,-0.6069530844688416
1761316227792735000,6.04773486328125,0.036574479192495346,0.6141305565834045,-0.7462263107299805
1761316227811657500,6.066657470703125,-0.22975492477416992,0.5193728804588318,-0.283204048871994
1761316227830580200,6.085580322265625,-0.45210331678390503,0.13331741094589233,0.27388864755630493
1761316227849502700,6.104502685546875,-0.40873315930366516,0.2426590770483017,0.33619505167007446
1761316227868425200,6.12342529296875,-0.6066476702690125,0.6440621018409729,0.15355172753334045
1761316227887348000,6.142347900390625,-1.0201913118362427,2.0483999252319336,-0.03825430944561958
1761316227906270500,6.1612705078125,-1.2633085250854492,2.75270676612854,-0.4401918053627014
1761316227925193000,6.18019287109375,-0.9181798100471497,2.7111692428588867,-0.6863632798194885
1761316227944115700,6.19911572265625,-0.33298811316490173,1.6446298360824585,-0.4560738205909729
1761316227963038200,6.2180380859375,0.10926530510187149,0.7827243804931641,-0.29236677289009094
1761316227981961000,6.2369609375,0.12942326068878174,1.0117921829223633,-0.13415732979774475
1761316228000883500,6.255883544921875,-0.271903395652771,1.327600121498108,0.002061609411612153
1761316228019806000,6.274805908203125,-0.6231405735015869,1.2182585000991821,-0.42308807373046875
1761316228038728700,6.293728759765625,-0.6481853127479553,0.7283589839935303,-0.6387171745300293
1761316228057651200,6.312651123046875,-0.7062157988548279,0.3495573401451111,-0.6155049800872803
1761316228076573700,6.33157373046875,-0.7233195304870605,0.26403874158859253,-0.5208236575126648
1761316228095496400,6.350496337890625,-0.6127561330795288,0.3342861533164978,-0.4438568949699402
1761316228114419000,6.3694189453125,-0.5125772356987,0.551824152469635,-0.40720605850219727
1761316228133341700,6.388341796875,-0.40873315930366516,0.5389963388442993,-0.46096062660217285
1761316228152264200,6.40726416015625,-0.3598653972148895,0.5463265180587769,-0.512882649898529
1761316228171186700,6.426186767578125,-0.3904077410697937,0.6746044158935547,-0.5067741274833679
1761316228190109400,6.445109375,-0.41239824891090393,0.7735617160797119,-0.39621078968048096
1761316228209032000,6.464031982421875,-0.526626706123352,0.7937196493148804,-0.31618982553482056
1761316228227954700,6.48295458984375,-0.7263737320899963,0.760123074054718,-0.2966426908969879
1761316228246877200,6.501877197265625,-0.8882482647895813,0.7075902223587036,-0.37055522203445435
1761316228265799700,6.520799560546875,-0.9371160268783569,0.3898732662200928,-0.498222291469574
1761316228284722400,6.539722412109375,-0.8570950627326965,-0.012064233422279358,-0.6576534509658813
1761316228303645000,6.55864501953125,-0.6610130667686462,0.01725643500685692,-0.8500702977180481
1761316228322567700,6.577567626953125,-0.43744298815727234,0.2426590770483017,-0.8048676252365112
1761316228341490200,6.596490234375,-0.31893861293792725,0.20967331528663635,-0.512882649898529
1761316228360412700,6.61541259765625,-0.24991288781166077,0.1632489264011383,-0.29114508628845215
1761316228379335400,6.63433544921875,-0.1668376624584198,0.26342788338661194,-0.17141900956630707
1761316228398258000,6.6532578125,-0.09353598952293396,0.6239041090011597,0.008780929259955883
1761316228417180400,6.672180419921875,-0.019623467698693275,0.953761637210846,0.28671643137931824
1761316228436103200,6.691103271484375,0.1874537467956543,0.7442410588264465,0.5451048016548157
1761316228455025700,6.710025634765625,0.6003865003585815,0.31412819027900696,0.6886539459228516
1761316228473948200,6.7289482421875,1.0401965379714966,-0.3180987238883972,0.7827243804931641
1761316228492871000,6.747870849609375,1.345085620880127,-0.8788564801216125,1.0545514822006226
1761316228511793400,6.76679345703125,1.5619364976882935,-1.3327159881591797,1.3398934602737427
1761316228530716200,6.785716064453125,1.4330476522445679,-1.2545275688171387,1.6221048831939697
1761316228549638700,6.804638671875,1.1312891244888306,-0.6736118197441101,1.7919204235076904
1761316228568561200,6.82356103515625,0.9723924994468689,-0.2429644912481308,1.8615570068359375
1761316228587484000,6.84248388671875,1.0573002099990845,0.19745637476444244,2.1388816833496094
1761316228606406400,6.861406494140625,1.1209046840667725,0.013591351918876171,2.507833480834961
1761316228625329200,6.8803291015625,1.0909732580184937,-0.5514423847198486,2.537154197692871
1761316228644251600,6.899251708984375,1.0695935487747192,-0.5160132050514221,1.9574600458145142
1761316228663174100,6.918174072265625,1.1074661016464233,-0.9637642502784729,1.2256649732589722
1761316228682097000,6.937096923828125,1.068982720375061,-1.77741277217865,0.6678851246833801
1761316228701019400,6.956019287109375,1.1404517889022827,-1.9056907892227173,0.2531198263168335
1761316228719942100,6.974942138671875,1.2809467315673828,-2.057180881500244,0.0429883748292923
1761316228738864600,6.99386474609375,1.3566917181015015,-2.3028178215026855,0.027717193588614464
1761316228757787100,7.012787109375,1.180156946182251,-2.839141607284546,0.01794363744556904
1761316228776710000,7.0317099609375,0.8832087516784668,-2.844639301300049,-0.09078717231750488
1761316228795632400,7.05063232421875,0.5221980214118958,-2.5453240871429443,-0.4273640215396881
1761316228814555000,7.069554931640625,0.21860696375370026,-2.164766311645508,-0.7993699908256531
1761316228833477600,7.0884775390625,0.05978667363524437,-1.6894508600234985,-0.9630770683288574
1761316228852400000,7.107400146484375,-0.06665870547294617,-0.8892409205436707,-0.8109760880470276
1761316228871323000,7.126322998046875,-0.14301460981369019,-0.24662958085536957,-0.6124507188796997
1761316228890245400,7.145245361328125,-0.17600037157535553,0.12171131372451782,-0.5208236575126648
1761316228909167900,7.16416796875,-0.17477867007255554,0.3348970115184784,-0.46157145500183105
1761316228928090600,7.183090576171875,-0.13079766929149628,0.49738237261772156,-0.4127036929130554
1761316228947013000,7.20201318359375,-0.06788039952516556,0.4515688419342041,-0.41148197650909424
1761316228965935600,7.220935546875,0.015194825828075409,0.13453911244869232,-0.4579063653945923
1761316228984858400,7.2398583984375,0.21982865035533905,-0.3742966651916504,-0.493946373462677
1761316229003780900,7.25878076171875,0.509981095790863,-0.9045121073722839,-0.5757998824119568
1761316229022703600,7.27770361328125,0.6126034259796143,-0.9881981611251831,-0.5183802843093872
1761316229041626000,7.296626220703125,0.5509078502655029,-0.4414898455142975,-0.2697654068470001
1761316229060548600,7.315548583984375,0.48127129673957825,0.10155335813760757,-0.17630578577518463
1761316229079471400,7.334471435546875,0.29557371139526367,0.3721587061882019,-0.3931565582752228
1761316229098393900,7.353393798828125,-0.035505495965480804,0.5181511640548706,-0.8647306561470032
1761316229117316400,7.37231640625,-0.2321983128786087,0.8205969333648682,-0.9459733366966248
1761316229136239000,7.391239013671875,-0.4044572412967682,1.6269153356552124,-0.42492061853408813
1761316229155161600,7.41016162109375,-0.12285665422677994,1.1999330520629883,0.1468324065208435
1761316229174084400,7.42908447265625,-0.04405735805630684,0.49860408902168274,0.4461475610733032
1761316229193006800,7.4480068359375,-0.8809180855751038,0.8480850458145142,0.4217136800289154
1761316229211929300,7.466929443359375,-1.5607911348342896,2.483933925628662,-0.14454172551631927
1761316229230852000,7.48585205078125,-1.6042375564575195,3.9848620891571045,-0.7645516991615295
1761316229249774600,7.504774658203125,-1.084941029548645,3.8077163696289062,-0.6643727421760559
1761316229268697000,7.523697021484375,-0.5174639821052551,1.9280630350112915,0.0038941511884331703
1761316229287619800,7.542619873046875,-0.14362546801567078,1.5817126035690308,0.4125509560108185
1761316229306542300,7.561542236328125,-0.41117656230926514,1.2011548280715942,0.7179746031761169
1761316229325464800,7.58046484375,-0.8308286070823669,1.0276741981506348,0.10651648789644241
1761316229344387600,7.5993876953125,-0.8705337047576904,0.783335268497467,-0.415147066116333
1761316229363310000,7.61831005859375,-0.6231405735015869,0.3226800560951233,-0.5550310611724854
1761316229382232800,7.63723291015625,-0.43377789855003357,0.24449162185192108,-0.6112290620803833
1761316229401155300,7.6561552734375,-0.38491013646125793,0.010537114925682545,-0.6717029213905334
1761316229420077800,7.675077880859375,-0.3116084635257721,-0.14583978056907654,-0.683309018611908
1761316229439000600,7.69400048828125,-0.2877854108810425,0.0716218426823616,-0.6338303685188293
1761316229457923000,7.712923095703125,-0.2706816792488098,0.25121092796325684,-0.5409815907478333
1761316229476845600,7.731845458984375,-0.2877854108810425,0.5340332388877869,-0.4322507977485657
1761316229495768300,7.750768310546875,-0.3537569046020508,0.6110763549804688,-0.31680065393447876
1761316229514690800,7.76969091796875,-0.4704287350177765,0.5817556381225586,-0.36750099062919617
1761316229533613600,7.788613525390625,-0.6158103942871094,0.4497362971305847,-0.5648046731948853
1761316229552536000,7.8075361328125,-0.7618029117584229,0.4149180054664612,-0.7480587959289551
1761316229571458600,7.82645849609375,-0.9090170860290527,0.5267030596733093,-0.817084550857544
1761316229590381300,7.84538134765625,-0.9817079305648804,0.5780905485153198,-0.8335774540901184
1761316229609303800,7.8643037109375,-0.9768211245536804,0.5132644176483154,-0.8671740293502808
1761316229628226300,7.883226318359375,-0.8326611518859863,0.27442312240600586,-0.8201388120651245
1761316229647149000,7.902149169921875,-0.6225296854972839,0.19379130005836487,-0.6497124433517456
1761316229666071600,7.921071533203125,-0.3916294574737549,0.31473904848098755,-0.39376741647720337
1761316229684994000,7.939994140625,-0.18455222249031067,0.44546034932136536,-0.15675868093967438
1761316229703916800,7.958916748046875,-0.028786176815629005,0.5817556381225586,0.02832804247736931
1761316229722839300,7.97783935546875,-0.01901262067258358,0.732024073600769,0.2250208556652069
1761316229741761800,7.99676171875,-0.08559497445821762,0.8413657546043396,0.44431501626968384
1761316229760684500,8.0156845703125,-0.006184828467667103,0.6819345951080322,0.5799230933189392
1761316229779607000,8.03460693359375,0.33711132407188416,0.4240806996822357,0.445536732673645
1761316229798529800,8.05352978515625,0.7237776517868042,-0.2954973578453064,0.49745872616767883
1761316229817452300,8.072452392578125,1.0842539072036743,-0.8562551736831665,0.6605549454689026
1761316229836374800,8.091374755859375,1.5631581544876099,-1.2044380903244019,1.0062944889068604
1761316229855297500,8.110297607421876,1.7366387844085693,-1.2111574411392212,1.4541219472885132
1761316229874220000,8.129219970703126,1.5698775053024292,-0.5276193022727966,1.729614019393921
1761316229893142500,8.148142578125,1.1636639833450317,-0.11712995916604996,1.7308356761932373
1761316229912065300,8.167065185546875,0.9412392973899841,-0.3187095522880554,1.7351115942001343
1761316229930987800,8.18598779296875,0.9302440285682678,-0.425607830286026,1.78214693069458
1761316229949910300,8.20491015625,1.0665392875671387,-0.37735089659690857,1.8163542747497559
1761316229968833000,8.2238330078125,1.1728267669677734,-0.7731798887252808,1.595227599143982
1761316229987755500,8.242755615234374,1.1373976469039917,-0.7481352090835571,1.3985347747802734
1761316230006678000,8.261677978515625,0.9943829774856567,-1.2917892932891846,1.1462548971176147
1761316230025600800,8.280600830078125,0.9717816114425659,-1.5636162757873535,0.8083800077438354
1761316230044523300,8.299523193359375,1.0811996459960938,-1.487260341644287,0.5341095924377441
1761316230063446000,8.318446044921876,1.1856545209884644,-1.6796772480010986,0.40155571699142456
1761316230082368500,8.337368408203124,1.1477819681167603,-1.8366650342941284,0.36062896251678467
1761316230101291000,8.356291015625,0.9259681105613708,-1.8103985786437988,0.37651097774505615
1761316230120213800,8.3752138671875,0.6559736132621765,-1.9374548196792603,0.12972868978977203
1761316230139136300,8.39413623046875,0.39208757877349854,-1.8812568187713623,-0.1811925619840622
1761316230158058800,8.413058837890626,0.19172967970371246,-1.7487030029296875,-0.46096062660217285
1761316230176981500,8.4319814453125,0.053678203374147415,-1.2392563819885254,-0.6289436221122742
1761316230195904000,8.450904052734375,-0.03489464893937111,-0.5422796607017517,-0.7126296758651733
1761316230214826500,8.469826416015625,-0.07337802648544312,-0.1769929975271225,-0.6655944585800171
1761316230233749200,8.488749267578125,-0.028786176815629005,-0.032222192734479904,-0.6014555096626282
1761316230252671700,8.507671630859376,0.10376767814159393,0.0331384651362896,-0.5929036140441895
1761316230271594500,8.526594482421874,0.2271588295698166,0.001985253533348441,-0.5134934782981873
1761316230290517000,8.54551708984375,0.30412557721138,-0.24540787935256958,-0.4255314767360687
1761316230309439500,8.564439453125,0.3835357129573822,-0.6339067220687866,-0.36017081141471863
1761316230328362200,8.5833623046875,0.5808393955230713,-1.1018157005310059,-0.4420243501663208
1761316230347284700,8.60228466796875,0.6681905388832092,-1.2026054859161377,-0.5208236575126648
1761316230366207200,8.621207275390624,0.6694122552871704,-0.7566870450973511,-0.39865419268608093
1761316230385130000,8.6401298828125,0.6290963292121887,-0.07070557028055191,-0.34612134099006653
1761316230404052500,8.659052490234375,0.4073587656021118,0.39231663942337036,-0.42492061853408813
1761316230422975000,8.67797509765625,0.08910734206438065,0.6251258254051208,-0.5849626064300537
1761316230441897700,8.696897705078126,-0.5113555192947388,0.9775846600532532,-0.7877638936042786
1761316230460820200,8.7158203125,-1.0941038131713867,1.0588274002075195,-0.5012765526771545
1761316230479742700,8.73474267578125,-0.9762102961540222,0.30985227227211,0.4858526289463043
1761316230498665500,8.75366552734375,-0.4276694357395172,0.2713688910007477,0.634899377822876
1761316230517588000,8.772587890625,-0.6011500358581543,1.236583948135376,0.1456107199192047
1761316230536510500,8.791510498046875,-1.1545777320861816,2.572506904602051,-0.4273640215396881
1761316230555433200,8.81043310546875,-1.6586030721664429,4.044114112854004,-0.8347991108894348
1761316230574355700,8.829355712890624,-1.3836454153060913,4.293339729309082,-0.80364590883255
1761316230593278500,8.848278564453125,-0.7440882921218872,2.5517380237579346,-0.2618243992328644
1761316230612201000,8.867200927734375,-0.2340308576822281,1.1956571340560913,0.20730629563331604
1761316230631123500,8.88612353515625,-0.25418880581855774,1.2335296869277954,0.5133407711982727
1761316230650046200,8.905046142578126,-0.7086591720581055,0.6422295570373535,0.5231143236160278
1761316230668968700,8.92396875,-0.9187906384468079,0.7191963195800781,-0.17691664397716522
1761316230687891200,8.94289111328125,-0.7465317249298096,0.5597651600837708,-0.59595787525177
1761316230706814000,8.96181396484375,-0.5211290717124939,0.38254308700561523,-0.6185591816902161
1761316230725736400,8.980736328125,-0.42400434613227844,0.29091599583625793,-0.5104392170906067
1761316230744659000,8.999658935546876,-0.40751147270202637,0.07834116369485855,-0.4328616261482239
1761316230763581700,9.018581787109374,-0.38002336025238037,0.1522536724805832,-0.4438568949699402
1761316230782504200,9.037504150390625,-0.32810133695602417,0.41797223687171936,-0.5415924787521362
1761316230801426700,9.0564267578125,-0.35558944940567017,0.5426614284515381,-0.5232670307159424
1761316230820349400,9.075349365234375,-0.40140300989151,0.6428403854370117,-0.4188121557235718
1761316230839272000,9.09427197265625,-0.44904908537864685,0.6575007438659668,-0.37238776683807373
1761316230858194400,9.1131943359375,-0.5461738109588623,0.5951942801475525,-0.4517979025840759
1761316230877117200,9.1321171875,-0.6341357827186584,0.4668400287628174,-0.577021598815918
1761316230896039700,9.151039794921875,-0.6823927164077759,0.44301697611808777,-0.6570425629615784
1761316230914962200,9.169962158203125,-0.6860578060150146,0.5315898060798645,-0.6668161153793335
1761316230933885000,9.188885009765626,-0.669564962387085,0.5964159965515137,-0.627721905708313
1761316230952807400,9.207807373046874,-0.6726191639900208,0.6013027429580688,-0.5696914196014404
1761316230971730200,9.226730224609375,-0.6475744247436523,0.4931064546108246,-0.5147151947021484
1761316230990652700,9.245652587890625,-0.5431195497512817,0.43324342370033264,-0.4921138286590576
1761316231009575200,9.2645751953125,-0.38124504685401917,0.3348970115184784,-0.502498209476471
1761316231028498000,9.283497802734376,-0.21448373794555664,0.2579302489757538,-0.5409815907478333
1761316231047420400,9.30242041015625,-0.10514208674430847,0.3202366828918457,-0.5031090974807739
1761316231066343000,9.321343017578124,-0.0745997205376625,0.5089884996414185,-0.2581593096256256
1761316231085265700,9.340265625,-0.13751699030399323,0.6825454831123352,0.09796462953090668
1761316231104188200,9.359188232421875,-0.12407834827899933,0.6110763549804688,0.42965468764305115
1761316231123110700,9.378110595703125,0.23021306097507477,0.3752129375934601,0.5133407711982727
1761316231142033400,9.397033447265626,0.6791858077049255,0.22738789021968842,0.3826194405555725
1761316231160956000,9.415955810546874,1.0634087324142456,-0.03527642786502838,0.6080220937728882
1761316231179878400,9.43487841796875,1.221083641052246,-0.3071034550666809,1.2140588760375977
1761316231198801200,9.45380126953125,1.230857253074646,-0.3345915973186493,1.8236844539642334
1761316231217723600,9.4727236328125,1.2003148794174194,-0.2655658423900604,2.1993556022644043
1761316231236646100,9.491646240234376,1.2559019327163696,0.07834116369485855,2.317249059677124
1761316231255569000,9.51056884765625,1.165496587753296,0.04352286830544472,1.9898349046707153
1761316231274491400,9.529491455078125,1.0346988439559937,-0.710262656211853,1.6886872053146362
1761316231293414000,9.548413818359375,0.8807653784751892,-1.1170868873596191,1.3405042886734009
1761316231312336600,9.567336669921875,1.0505809783935547,-1.0016367435455322,1.0802069902420044
1761316231331259100,9.586259033203126,1.2333005666732788,-0.8422056436538696,1.1028083562850952
1761316231350181600,9.605181640625,1.1563338041305542,-0.9405520558357239,1.1590826511383057
1761316231369104400,9.6241044921875,1.0004914999008179,-1.4054068326950073,1.0014077425003052
1761316231388027000,9.64302685546875,1.0940274000167847,-1.7596982717514038,0.7711182832717896
1761316231406949400,9.661949462890625,1.2778924703598022,-1.7804670333862305,0.6049678325653076
1761316231425872100,9.6808720703125,1.4415994882583618,-2.09444260597229,0.4492017924785614
1761316231444794600,9.699794677734374,1.4916889667510986,-2.7450711727142334,0.27144524455070496
1761316231463717000,9.718717041015625,1.1880979537963867,-2.289989948272705,0.3038201630115509
1761316231482640000,9.737639892578125,0.7702020406723022,-1.9313462972640991,0.21769069135189056
1761316231501562400,9.756562255859375,0.49226653575897217,-1.7425944805145264,-0.03764346241950989
1761316231520484900,9.77548486328125,0.3591018319129944,-1.6882290840148926,-0.3210766017436981
1761316231539407600,9.79440771484375,0.30656898021698,-1.5165810585021973,-0.4719558656215668
1761316231558330000,9.813330078125,0.27052897214889526,-1.1341906785964966,-0.4438568949699402
1761316231577252600,9.832252685546875,0.20639002323150635,-0.7114843726158142,-0.36017081141471863
1761316231596175400,9.85117529296875,0.11720632016658783,-0.45981526374816895,-0.33268269896507263
1761316231615097900,9.870097900390626,0.04818057641386986,-0.32909396290779114,-0.3406237065792084
1761316231634020400,9.889020263671876,0.031076854094862938,-0.2429644912481308,-0.338791161775589
1761316231652943000,9.907943115234374,0.08483141660690308,-0.23441264033317566,-0.3742203116416931
1761316231671865600,9.926865478515625,0.18928629159927368,-0.3633013963699341,-0.45118704438209534
1761316231690788000,9.9457880859375,0.3145099878311157,-0.5355603098869324,-0.5483117699623108
1761316231709710800,9.9647109375,0.3865899443626404,-0.6430694460868835,-0.6228351593017578
1761316231728633300,9.98363330078125,0.3823140263557434,-0.6198572516441345,-0.5745782256126404
1761316231747555800,10.002555908203124,0.33772218227386475,-0.43477052450180054,-0.46096062660217285
1761316231766478600,10.021478515625,0.28396761417388916,0.03436015918850899,-0.39498910307884216
1761316231785401000,10.040401123046875,0.15019206702709198,0.556100070476532,-0.6436039209365845
1761316231804323600,10.059323486328125,-0.06604786217212677,0.5884749889373779,-0.9789590835571289
1761316231823246300,10.078246337890626,-0.40934401750564575,0.8273162841796875,-1.1249516010284424
1761316231842168800,10.0971689453125,-0.6402443051338196,0.9971317648887634,-0.41087114810943604
1761316231861091300,10.11609130859375,-0.17294612526893616,0.10216420143842697,0.5951942801475525
1761316231880014000,10.13501416015625,-0.5284592509269714,0.017867282032966614,0.6190173625946045
1761316231898936600,10.1539365234375,-1.3476054668426514,1.3214917182922363,0.04787515476346016
1761316231917859000,10.172859130859376,-1.612789511680603,3.3892860412597656,-0.6240568161010742
1761316231936781600,10.191781494140624,-1.4581687450408936,4.486978530883789,-1.0223292112350464
1761316231955704300,10.210704345703125,-0.8748096227645874,4.293951034545898,-1.0424871444702148
1761316231974626800,10.229626708984375,-0.39407283067703247,2.118647336959839,-0.27587389945983887
1761316231993549300,10.24854931640625,-0.2590755820274353,1.194435477256775,0.22379916906356812
1761316232012472000,10.26747216796875,-0.6060368418693542,0.48394373059272766,0.32397812604904175
1761316232031394600,10.28639453125,-0.9481112957000732,-0.0065666078589856625,0.23479440808296204
1761316232050317000,10.305317138671874,-0.7446991801261902,0.6275691986083984,-0.15126104652881622
1761316232069239800,10.32423974609375,-0.41117656230926514,0.8358681201934814,-0.43835926055908203
1761316232088162300,10.343162353515625,-0.22181391716003418,0.6196281909942627,-0.6307761669158936
1761316232107084800,10.362084716796875,-0.22547899186611176,0.44423866271972656,-0.5831300616264343
1761316232126007600,10.381007568359376,-0.3109976053237915,0.3202366828918457,-0.5202127695083618
1761316232144930000,10.399929931640624,-0.38429927825927734,0.2945810854434967,-0.5757998824119568
1761316232163852500,10.4188525390625,-0.3910185992717743,0.15347537398338318,-0.7456154227256775
1761316232182775300,10.437775390625,-0.40812233090400696,-0.03771981969475746,-0.9129875898361206
1761316232201697800,10.45669775390625,-0.44599485397338867,-0.10430216789245605,-0.9850675463676453
1761316232220620300,10.475620361328126,-0.482034832239151,0.05268557742238045,-0.8732824921607971
1761316232239543000,10.49454296875,-0.5186856985092163,0.1382041871547699,-0.7327876687049866
1761316232258465500,10.513465576171875,-0.5693860054016113,0.20234315097332,-0.678422212600708
1761316232277388000,10.532387939453125,-0.6341357827186584,0.3049654960632324,-0.7217923998832703
1761316232296310500,10.551310546875,-0.688501238822937,0.4027010500431061,-0.7535564303398132
1761316232315233300,10.5702333984375,-0.7691330313682556,0.4808894991874695,-0.7285116910934448
1761316232334155800,10.58915576171875,-0.8155574202537537,0.5309789776802063,-0.6930825710296631
1761316232353078300,10.608078369140625,-0.8259418606758118,0.46073153614997864,-0.7211815714836121
1761316232372001000,10.6270009765625,-0.7960103154182434,0.24876753985881805,-0.804256796836853
1761316232390923500,10.645923583984375,-0.743477463722229,0.08200624585151672,-0.8909971117973328
1761316232409846000,10.664845947265626,-0.6316924095153809,0.13209572434425354,-0.8738933801651001
1761316232428768800,10.683768798828124,-0.48814332485198975,0.24571330845355988,-0.650934100151062
1761316232447691300,10.702691162109375,-0.3006131947040558,0.337340384721756,-0.3082487881183624
1761316232466613800,10.72161376953125,-0.014125842601060867,0.36666107177734375,-0.027869906276464462
1761316232485536300,10.740536376953125,0.406137079000473,0.3196258246898651,0.05703786388039589
1761316232504459000,10.759458984375,0.8771002888679504,0.2677038013935089,-0.17569494247436523
1761316232523381500,10.778381591796874,1.1606098413467407,0.39231663942337036,0.06192464008927345
1761316232542304000,10.797303955078124,1.0952491760253906,0.10338589549064636,0.9830822944641113
1761316232561226800,10.816226806640625,0.986441969871521,-0.03527642786502838,1.7546586990356445
1761316232580149200,10.835149169921875,0.8532772660255432,0.1760767251253128,2.4430835247039795
1761316232599071700,10.85407177734375,0.9198595881462097,0.12659808993339539,2.782714605331421
1761316232617994500,10.872994384765626,1.2106993198394775,-0.09147437661886215,2.6947526931762695
1761316232636917000,10.8919169921875,1.1648857593536377,-0.765849769115448,2.031372547149658
1761316232655839500,10.910839599609375,1.0915840864181519,-0.6571189165115356,1.3545538187026978
1761316232674762000,10.929761962890625,1.0438616275787354,-0.5758762359619141,1.0154571533203125
1761316232693684700,10.948684814453125,1.0976924896240234,-1.0236272811889648,1.0973107814788818
1761316232712607200,10.967607177734376,1.0897514820098877,-1.2416998147964478,1.1737430095672607
1761316232731529700,10.98652978515625,0.9558995962142944,-0.9943066239356995,1.1456440687179565
1761316232750452200,11.0054521484375,0.8703809976577759,-1.3070604801177979,0.9500965476036072
1761316232769375000,11.024375,0.8923714756965637,-1.236812949180603,0.8224294781684875
1761316232788297500,11.04329736328125,0.9980480670928955,-1.2594143152236938,0.7729508280754089
1761316232807220000,11.062219970703126,1.1398409605026245,-1.5966020822525024,0.741186797618866
1761316232826142700,11.081142822265624,1.1080769300460815,-1.778023600578308,0.7295807003974915
1761316232845065200,11.100065185546875,0.8459470868110657,-1.560562014579773,0.6440621018409729
1761316232863987700,11.11898779296875,0.5325824618339539,-1.2636902332305908,0.41927027702331543
1761316232882910500,11.137910400390625,0.2790808379650116,-1.1256388425827026,0.1083490327000618
1761316232901833000,11.1568330078125,0.07933378964662552,-1.1134217977523804,-0.179360032081604
1761316232920755500,11.17575537109375,-0.022066857665777206,-1.0419527292251587,-0.39621078968048096
1761316232939678000,11.194677978515625,-0.0892600566148758,-0.8018897175788879,-0.5525876879692078
1761316232958600700,11.2136005859375,-0.1271325796842575,-0.4885250926017761,-0.6515449285507202
1761316232977523200,11.232523193359375,-0.14973393082618713,-0.3229855000972748,-0.7126296758651733
1761316232996445700,11.25144580078125,-0.14973393082618713,-0.20753535628318787,-0.7138513922691345
1761316233015368400,11.270368408203124,-0.11125055700540543,-0.14034216105937958,-0.6906391978263855
1761316233034291000,11.289291015625,-0.0165692325681448,-0.2582356929779053,-0.6936933994293213
1761316233053213400,11.30821337890625,0.1074327602982521,-0.5734328627586365,-0.7236249446868896
1761316233072136000,11.327135986328125,0.3077906668186188,-0.9203941226005554,-0.7303442358970642
1761316233091058700,11.34605859375,0.4763845205307007,-0.9063445925712585,-0.6961368322372437
1761316233109981200,11.364981201171876,0.5228089094161987,-0.6009209752082825,-0.5043307542800903
1761316233128903700,11.383903564453124,0.5533512830734253,-0.13484452664852142,-0.33146098256111145
1761316233147826400,11.402826416015625,0.44339874386787415,0.15897299349308014,-0.3528406620025635
1761316233166749000,11.4217490234375,0.24670593440532684,-0.013896775431931019,-0.6796439290046692
1761316233185671400,11.44067138671875,0.09949174523353577,0.06429167091846466,-0.7046886682510376
1761316233204594000,11.459593994140626,-0.12102411687374115,0.10338589549064636,-0.31313556432724
1761316233223516700,11.4785166015625,-0.004963133949786425,-0.6100836992263794,0.010613471269607544
1761316233242439200,11.497439208984375,-0.4514924883842468,-0.3083251416683197,-0.1787491738796234
1761316233261361700,11.516361572265625,-1.002476692199707,1.2255886793136597,-0.415147066116333
1761316233280284200,11.5352841796875,-1.3677634000778198,2.983607053756714,-0.8024242520332336
1761316233299207000,11.55420703125,-1.3738718032836914,4.4967522621154785,-0.9966736435890198
1761316233318129400,11.57312939453125,-0.9914814829826355,4.612202167510986,-0.6454364657402039
1761316233337052000,11.592052001953125,-0.4563792645931244,2.269526720046997,0.27205610275268555
1761316233355974700,11.610974609375,-0.18699561059474945,1.1492327451705933,0.6342885494232178
1761316233374897200,11.629897216796875,-0.47165045142173767,0.611687183380127,0.60252445936203
1761316233393819600,11.648819580078126,-0.8100598454475403,0.5322006940841675,0.08513683825731277
1761316233412742100,11.6677421875,-0.7801283001899719,0.5408288836479187,-0.5788541436195374
1761316233431665000,11.686664794921874,-0.5797703862190247,0.22005772590637207,-0.8732824921607971
1761316233450587400,11.70558740234375,-0.5192965269088745,-0.07681404054164886,-0.9074899554252625
1761316233469510000,11.724510009765625,-0.4979168772697449,-0.3584146201610565,-0.8512920141220093
1761316233488432400,11.743432373046875,-0.4258368909358978,-0.3834593594074249,-0.7535564303398132
1761316233507355000,11.76235498046875,-0.39407283067703247,-0.013285927474498749,-0.6600968241691589
1761316233526277600,11.781277587890624,-0.3335989713668823,0.1760767251253128,-0.6197808980941772
1761316233545200000,11.8002001953125,-0.2578538954257965,0.025808297097682953,-0.6698703765869141
1761316233564122600,11.81912255859375,-0.24258272349834442,-0.03833066672086716,-0.710797131061554
1761316233583045400,11.83804541015625,-0.2743467688560486,-0.0853659063577652,-0.7724927067756653
1761316233601967900,11.8569677734375,-0.31893861293792725,0.029473381116986275,-0.7957049012184143
1761316233620890400,11.875890380859374,-0.35558944940567017,0.20356485247612,-0.6814764738082886
1761316233639812900,11.894812744140625,-0.4539358615875244,0.28664007782936096,-0.5153260231018066
1761316233658735600,11.913735595703125,-0.4936409294605255,0.409420371055603,-0.4065952003002167
1761316233677658000,11.932658203125,-0.5742727518081665,0.5254813432693481,-0.3339043855667114
1761316233696580600,11.95158056640625,-0.6622347831726074,0.6373427510261536,-0.31435728073120117
1761316233715503000,11.970503173828124,-0.7214869856834412,0.6575007438659668,-0.362003356218338
1761316233734425900,11.98942578125,-0.7166001796722412,0.5181511640548706,-0.4585172235965729
1761316233753348400,12.008348388671875,-0.6487961411476135,0.4155288338661194,-0.5703022480010986
1761316233772270800,12.027270751953125,-0.5437304377555847,0.3727695345878601,-0.6057314276695251
1761316233791193300,12.046193359375,-0.4117874205112457,0.3501681983470917,-0.5147151947021484
1761316233810116000,12.0651162109375,-0.2969481348991394,0.36482852697372437,-0.3253525197505951
1761316233829038600,12.08403857421875,-0.1796654462814331,0.4289674758911133,-0.07979192584753036
1761316233847961000,12.102961181640625,-0.031229566782712936,0.3574983477592468,0.1480541080236435
1761316233866883600,12.121883544921875,0.21921780705451965,0.24021568894386292,0.16821207106113434
1761316233885806300,12.140806396484376,0.4531722962856293,0.22433365881443024,-0.026037365198135376
1761316233904728800,12.159728759765626,0.5631248354911804,0.09727742522954941,-0.10728005319833755
1761316233923651300,12.1786513671875,0.48249298334121704,-0.19959434866905212,0.22135578095912933
1761316233942573800,12.19757373046875,0.5295282006263733,-0.34253260493278503,0.7540146112442017
1761316233961496600,12.21649658203125,0.6358156204223633,-0.3345915973186493,1.3240114450454712
1761316233980419000,12.235419189453125,0.7934142351150513,-0.3614688515663147,1.6392086744308472
1761316233999341600,12.254341552734376,1.046915888786316,-0.19470755755901337,1.7375550270080566
1761316234018264000,12.27326416015625,1.1074661016464233,-0.22036315500736237,1.7149536609649658
1761316234037186800,12.292186767578125,0.9803335070610046,-0.529451847076416,1.5652960538864136
1761316234056109300,12.311109375,0.8575531840324402,-0.7243121266365051,1.2513206005096436
1761316234075031800,12.33003173828125,0.7842515110969543,-0.682774543762207,0.921997606754303
1761316234093954300,12.348954345703126,0.9406284093856812,-0.6223006248474121,0.8584694862365723
1761316234112877000,12.367876953125,1.132510781288147,-0.5654918551445007,0.9873582124710083
1761316234131799600,12.386799560546875,1.138619303703308,-0.5441122055053711,1.1419789791107178
1761316234150722000,12.40572216796875,1.0597436428070068,-0.710262656211853,1.1841274499893188
1761316234169644500,12.42464453125,0.9974372386932373,-0.9167290329933167,1.0362260341644287
1761316234188567000,12.443567138671876,1.0683718919754028,-0.9888089895248413,0.7973847389221191
1761316234207489800,12.46248974609375,1.2607887983322144,-1.1464076042175293,0.6428403854370117
1761316234226412300,12.481412353515625,1.4483188390731812,-1.5831633806228638,0.5182275176048279
1761316234245334800,12.500334716796875,1.4452645778656006,-1.617370843887329,0.4858526289463043
1761316234264257300,12.51925732421875,1.1783243417739868,-1.5636162757873535,0.49257194995880127
1761316234283179800,12.5381796875,0.9253572225570679,-1.5727789402008057,0.31298285722732544
1761316234302102500,12.5571025390625,0.7005654573440552,-1.6350853443145752,0.07169819623231888
1761316234321025000,12.57602490234375,0.538080096244812,-1.6222575902938843,-0.09445225447416306
1761316234339947500,12.594947509765625,0.4782170355319977,-1.4267865419387817,-0.14759597182273865
1761316234358870300,12.613870361328125,0.39208757877349854,-1.0590564012527466,-0.11644276231527328
1761316234377792800,12.632792724609375,0.25831204652786255,-0.8031114339828491,-0.13293562829494476
1761316234396715300,12.65171533203125,0.14102935791015625,-0.659562349319458,-0.22639526426792145
1761316234415637800,12.6706376953125,0.120871402323246,-0.5184566378593445,-0.29297763109207153
1761316234434560300,12.689560302734375,0.1624090075492859,-0.32787227630615234,-0.3656684458255768
1761316234453483000,12.70848291015625,0.16485241055488586,-0.2533488869667053,-0.5104392170906067
1761316234472405500,12.727405517578125,0.18317782878875732,-0.3449759781360626,-0.650934100151062
1761316234491328000,12.746327880859376,0.280913382768631,-0.5233433842658997,-0.7651625275611877
1761316234510250500,12.76525048828125,0.4501180648803711,-0.8788564801216125,-0.8427401781082153
1761316234529173200,12.78417333984375,0.5832827687263489,-1.2410888671875,-0.8567896485328674
1761316234548095700,12.803095703125,0.5289173722267151,-1.2581926584243774,-0.7987591624259949
1761316234567018200,12.822018310546875,0.3817031681537628,-0.7182036638259888,-0.6717029213905334
1761316234585940700,12.840940673828126,0.2644205093383789,-0.059710320085287094,-0.623445987701416
1761316234604863200,12.85986328125,0.14897038042545319,0.1241547018289566,-0.80364590883255
1761316234623785700,12.87878564453125,0.035352785140275955,0.22311195731163025,-1.0748621225357056
1761316234642708500,12.89770849609375,-0.08437328040599823,0.41919392347335815,-1.3082057237625122
1761316234661631000,12.916630859375,-0.07643226534128189,0.4521796703338623,-1.0797488689422607
1761316234680553500,12.935553466796875,-0.06788039952516556,0.07895200699567795,-0.6240568161010742
1761316234699476000,12.95447607421875,0.03474193811416626,-0.45615020394325256,-0.3271850645542145
1761316234718398700,12.973398681640624,0.027411770075559616,-0.44759833812713623,-0.46034976840019226
1761316234737321200,12.9923212890625,-0.4924192428588867,-0.36696648597717285,-0.5483117699623108
1761316234756243700,13.01124365234375,-0.9676584005355835,0.48760882019996643,-0.6112290620803833
1761316234775166200,13.030166259765625,-1.1429716348648071,1.6666203737258911,-0.7089645862579346
1761316234794088700,13.049088623046876,-0.8351045846939087,2.4295685291290283,-0.7358418703079224
1761316234813011500,13.068011474609374,-0.2609081268310547,1.9952561855316162,-0.6179483532905579
1761316234831934000,13.086933837890625,0.045737188309431076,0.8242620229721069,-0.10117157548666
1761316234850856400,13.1058564453125,0.05734328553080559,0.4283566474914551,0.3331408202648163
1761316234869779000,13.124779052734375,-0.13690614700317383,0.21089501678943634,0.449812650680542
1761316234888701700,13.14370166015625,-0.15584240853786469,0.1754658818244934,0.13033953309059143
1761316234907624200,13.162624267578124,-0.0489441379904747,0.28847262263298035,-0.3235199749469757
1761316234926546700,13.181546630859375,-0.0037414394319057465,0.254265159368515,-0.49883314967155457
1761316234945469200,13.20046923828125,-0.004352286923676729,0.14553436636924744,-0.48722705245018005
1761316234964391700,13.2193916015625,-0.07032378762960434,-0.06276455521583557,-0.4432460367679596
1761316234983314200,13.238314208984375,-0.1259108930826187,-0.18615570664405823,-0.5141043066978455
1761316235002237000,13.25723681640625,-0.09292513877153397,-0.2533488869667053,-0.6008446216583252
1761316235021159400,13.276159423828124,-0.0752105712890625,-0.2411319613456726,-0.6613185405731201
1761316235040082000,13.29508203125,-0.044668205082416534,-0.1757712960243225,-0.6423822641372681
1761316235059004400,13.31400439453125,-0.04405735805630684,-0.09452861547470093,-0.5226562023162842
1761316235077927000,13.332927001953125,-0.058717694133520126,0.013591351918876171,-0.364446759223938
1761316235096849700,13.351849609375,-0.09353598952293396,0.1754658818244934,-0.21540001034736633
1761316235115772200,13.370772216796874,-0.10392039269208908,0.3202366828918457,-0.07979192584753036
1761316235134694700,13.389694580078125,-0.1020878478884697,0.4136963188648224,0.08086090534925461
1761316235153617200,13.4086171875,-0.08070819079875946,0.5719820857048035,0.25556322932243347
1761316235172539600,13.42753955078125,-0.07154548168182373,0.6972057819366455,0.3862845301628113
1761316235191462400,13.44646240234375,-0.1008661538362503,0.7534037232398987,0.4632512927055359
1761316235210385000,13.465385009765624,-0.14484715461730957,0.7253047823905945,0.4901285767555237
1761316235229307400,13.484307373046875,-0.16072918474674225,0.5982485413551331,0.4620296061038971
1761316235248230000,13.50322998046875,-0.13324105739593506,0.4399627447128296,0.3856737017631531
1761316235267152400,13.52215234375,-0.06543701142072678,0.27808821201324463,0.320313036441803
1761316235286075000,13.541074951171876,-0.03245126083493233,0.14614520967006683,0.25800660252571106
1761316235304997600,13.55999755859375,-0.015958385542035103,0.04352286830544472,0.17981816828250885
1761316235323920100,13.578920166015624,-0.00129805039614439,-0.004734066314995289,0.11201411485671997
1761316235342842600,13.597842529296875,0.0023670331574976444,-0.031000498682260513,0.016721943393349648
1761316235361765000,13.61676513671875,-0.00129805039614439,0.0038177953101694584,-0.023593975231051445
1761316235380687600,13.6356875,-0.035505495965480804,0.05635065957903862,-0.03092414326965809
1761316235399610400,13.6546103515625,-0.07032378762960434,0.03374931216239929,-0.007711946498602629
1761316235418532900,13.673532958984374,-0.08376242965459824,0.03924693539738655,0.04787515476346016
1761316235437455400,13.692455322265625,-0.1020878478884697,0.18523943424224854,0.14316733181476593
1761316235456377900,13.7113779296875,-0.13079766929149628,0.3739912211894989,0.2628933787345886
1761316235475300400,13.73030029296875,-0.14729054272174835,0.4485146105289459,0.528611958026886
1761316235494222800,13.749222900390626,-0.14423631131649017,0.48577627539634705,0.5334987044334412
1761316235513145600,13.7681455078125,-0.10514208674430847,0.40514445304870605,0.26900187134742737
1761316235532068000,13.787068115234375,-0.11919157207012177,0.24449162185192108,0.09246700257062912
1761316235550990600,13.805990478515625,-0.13690614700317383,0.1620272397994995,0.12606360018253326
1761316235569913000,13.8249130859375,-0.13324105739593506,0.21944688260555267,0.24395711719989777
1761316235588835600,13.843835693359376,-0.11858072131872177,0.2982461750507355,0.3062635362148285
1761316235607758000,13.862758056640626,-0.11247225105762482,0.2976353168487549,0.23051849007606506
1761316235626680800,13.881680908203125,-0.11369394510984421,0.22311195731163025,0.11751174181699753
1761316235645603300,13.900603271484375,-0.1014770045876503,0.12904147803783417,0.08330429345369339
1761316235664525800,13.91952587890625,-0.09048175066709518,0.09910997003316879,0.09613208472728729
1761316235683448300,13.9384482421875,-0.08376242965459824,0.11315945535898209,0.11018157750368118
1761316235702370800,13.957370849609376,-0.0880383625626564,0.13576079905033112,0.09002361446619034
1761316235721293600,13.97629345703125,-0.09842276573181152,0.14248012006282806,0.07230904698371887
1761316235740216000,13.995216064453125,-0.09414683282375336,0.15652960538864136,0.09979717433452606
1761316235759138600,14.014138671875,-0.07948649674654007,0.1656923145055771,0.12484190613031387
1761316235778061000,14.03306103515625,-0.07765395939350128,0.16813570261001587,0.11079242080450058
1761316235796983600,14.051983642578126,-0.07093463838100433,0.14553436636924744,0.09307785332202911
1761316235815906000,14.070906005859374,-0.0623827762901783,0.11865708231925964,0.06497887521982193
1761316235834828500,14.08982861328125,-0.058717694133520126,0.08750387281179428,0.04115583375096321
1761316235853751300,14.108751220703125,-0.056274302303791046,0.08017370104789734,0.039323292672634125
1761316235872673800,14.127673828125,-0.044668205082416534,0.0716218426823616,0.04787515476346016
1761316235891596300,14.14659619140625,-0.04283566400408745,0.0594048947095871,0.03565821051597595
1761316235910518800,14.165518798828124,-0.04405735805630684,0.06123743951320648,0.019776180386543274
1761316235929441300,14.184441162109374,-0.048333290964365005,0.0594048947095871,0.02160872146487236
1761316235948363800,14.20336376953125,-0.05138752609491348,0.07406523078680038,0.07597412914037704
1761316235967286500,14.22228662109375,-0.05138752609491348,0.16996824741363525,0.17737478017807007
1761316235986209000,14.241208984375,-0.011682453565299511,0.17363333702087402,0.1480541080236435
1761316236005131500,14.260131591796876,-0.022677704691886902,0.04107947647571564,-0.053525492548942566
1761316236024054000,14.279053955078124,-0.023288551717996597,-0.01695101149380207,-0.12071868777275085
1761316236042976500,14.2979765625,-0.017180079594254494,-0.0016798300202935934,-0.08467870205640793
