time,seconds_elapsed,z,y,x
1761316199815625200,0.380625244140625,-0.01046075951308012,0.04413371533155441,0.019776180386543274
1761316199862932000,0.427931884765625,-0.005573981441557407,0.08811471611261368,0.017332790419459343
1761316199881854700,0.446854736328125,-0.02023431472480297,0.07345438003540039,0.019776180386543274
1761316199900777200,0.465777099609375,-0.03061871975660324,0.07834116369485855,0.03199312463402748
1761316199919700000,0.484699951171875,-0.022066857665777206,0.06062658876180649,0.010002624243497849
1761316199938622500,0.50362255859375,0.00786465872079134,0.06490252166986465,0.010002624243497849
1761316199957545200,0.522545166015625,0.014583977870643139,0.0850604772567749,0.0295497365295887
1761316199976467700,0.5414677734375,0.010918894782662392,0.10705098509788513,0.04359922185540199
1761316199995390500,0.560390380859375,0.015194825828075409,0.1241547018289566,0.0295497365295887
1761316200014313200,0.579313232421875,0.004810422193259001,0.12781979143619537,0.031382277607917786
1761316200033235700,0.598235595703125,-0.0165692325681448,0.13209572434425354,0.05031854286789894
1761316200052158500,0.617158447265625,-0.0293970238417387,0.12904147803783417,0.06986565887928009
1761316200071081200,0.636081298828125,-0.07826480269432068,0.08689302206039429,0.10407309979200363
1761316200090003700,0.655003662109375,-0.037948887795209885,0.10766182839870453,0.07169819623231888
1761316200108926500,0.673926513671875,0.03962871432304382,0.08750387281179428,0.013667707331478596
1761316200127849000,0.692848876953125,0.02680092304944992,0.06795676052570343,0.019776180386543274
1761316200146771700,0.711771728515625,0.006032116711139679,0.047798797488212585,0.008170082233846188
1761316200165694200,0.730694091796875,0.0164165198802948,0.047798797488212585,0.010613471269607544
1761316200184617000,0.749616943359375,0.01885990984737873,0.06062658876180649,0.007559234742075205
1761316200203539700,0.768539794921875,-0.01901262067258358,0.028251685202121735,0.05337277799844742
1761316200222462200,0.787462158203125,-0.049554985016584396,-0.13484452664852142,0.05459447205066681
1761316200241385000,0.806385009765625,0.05795413255691528,-0.016340164467692375,-0.057801421731710434
1761316200260307700,0.8253076171875,0.07322531193494797,0.10949437320232391,0.06497887521982193
1761316200279230200,0.844230224609375,0.15324631333351135,0.27747735381126404,0.16454698145389557
1761316200298153000,0.863153076171875,0.380481481552124,0.4662291705608368,0.17920731008052826
1761316200317075500,0.882075439453125,0.5283065438270569,0.38132140040397644,0.2250208556652069
1761316200335998200,0.900998291015625,0.5845044851303101,0.29030516743659973,0.18042901158332825
1761316200354921000,0.9199208984375,0.640091598033905,0.025808297097682953,0.12300936877727509
1761316200373843500,0.938843505859375,0.6181010603904724,-0.3101576864719391,0.16454698145389557
1761316200392766200,0.95776611328125,0.6779640913009644,0.10521844029426575,0.14438901841640472
1761316200411688700,0.976688720703125,0.5447993874549866,0.2927485406398773,0.16943375766277313
1761316200430611500,0.995611572265625,0.3841465711593628,0.2579302489757538,0.2121930718421936
1761316200449534000,1.014533935546875,0.3053472638130188,0.1901262104511261,0.22257746756076813
1761316200468456700,1.033456787109375,0.24609509110450745,0.19745637476444244,0.19631104171276093
1761316200487379500,1.05237939453125,0.17768019437789917,0.24632415175437927,0.23174017667770386
1761316200506302000,1.071302001953125,-0.019623467698693275,0.2683146595954895,0.2818296551704407
1761316200525224700,1.090224609375,-0.1405712217092514,0.2163926362991333,0.24151372909545898
1761316200544147200,1.109147216796875,0.07078192383050919,0.14186927676200867,0.04543176665902138
1761316200563070000,1.128070068359375,-0.006184828467667103,0.12171131372451782,0.0814717561006546
1761316200581992700,1.14699267578125,-0.07337802648544312,0.16996824741363525,0.12850698828697205
1761316200600915200,1.165915283203125,-0.10575293004512787,0.1772984117269516,0.1492757946252823
1761316200619838000,1.184837890625,-0.09781191498041153,0.19867807626724243,0.11873343586921692
1761316200638760400,1.203760498046875,-0.07276718318462372,0.2017323076725006,0.07841751724481583
1761316200657683200,1.22268310546875,0.011529741808772087,0.1498102843761444,0.0008399150101467967
1761316200676606000,1.24160595703125,0.005421269219368696,0.12965233623981476,0.004504998680204153
1761316200695528400,1.260528564453125,0.021914144977927208,0.016645587980747223,-0.0358109213411808
1761316200714451200,1.279451171875,0.03290939703583717,-0.06337540596723557,-0.0761268362402916
1761316200733373700,1.298373779296875,0.036574479192495346,-0.08780929446220398,-0.08406785130500793
1761316200752296400,1.31729638671875,0.05978667363524437,-0.08047912269830704,-0.09384141117334366
1761316200771219000,1.336218994140625,0.0683385357260704,-0.04199574887752533,-0.09078717231750488
1761316200790141700,1.3551416015625,0.07689040154218674,-0.028557108715176582,-0.12071868777275085
1761316200809064400,1.374064453125,0.07139277458190918,-0.031000498682260513,-0.10972344130277634
1761316200827987000,1.392987060546875,0.06100837141275406,-0.025502873584628105,-0.1023932695388794
1761316200846909700,1.41190966796875,0.044515494257211685,-0.03588727489113808,-0.11766445636749268
1761316200865832200,1.430832275390625,0.03779617324471474,-0.020005248486995697,-0.11827529966831207
1761316200884755000,1.4497548828125,0.024968381971120834,0.06978929787874222,-0.07673768699169159
1761316200903677400,1.468677490234375,0.028633465990424156,0.09055810421705246,-0.10483665764331818
1761316200922600200,1.48760009765625,0.035352785140275955,0.05757235363125801,-0.1274380087852478
1761316200941523000,1.50652294921875,0.030466007068753242,-0.06276455521583557,-0.1940203607082367
1761316200960445400,1.525445556640625,0.03352024406194687,-0.18676654994487762,-0.2434989959001541
1761316200979368200,1.5443681640625,0.0164165198802948,-0.07864658534526825,-0.1659213900566101
1761316200998290700,1.563290771484375,0.05062396824359894,-0.029167955741286278,-0.14637427031993866
1761316201017213400,1.58221337890625,0.09093988686800003,-0.0004581354442052543,-0.17202985286712646
1761316201036136200,1.60113623046875,0.11659546941518784,0.025808297097682953,-0.14515258371829987
1761316201055058700,1.62005859375,0.1080436110496521,0.07895200699567795,-0.10117157548666
1761316201073981400,1.6389814453125,0.0817771777510643,0.09177979826927185,-0.10605835169553757
1761316201092904000,1.657904052734375,0.05062396824359894,0.11560284346342087,-0.09628479927778244
1761316201111826700,1.67682666015625,0.019470756873488426,0.1498102843761444,-0.1139993667602539
1761316201130749200,1.695749267578125,-0.009239064529538155,0.17974179983139038,-0.15798036754131317
1761316201149672000,1.714671875,-0.0037414394319057465,0.18646112084388733,-0.1530935913324356
1761316201168594700,1.7335947265625,0.007253811229020357,0.16141638159751892,-0.18241426348686218
1761316201187517200,1.75251708984375,0.013362283818423748,0.15408621728420258,-0.21723255515098572
1761316201206440000,1.77143994140625,0.04756972938776016,0.11987877637147903,-0.2434989959001541
1761316201225362400,1.790362548828125,0.059175826609134674,0.036192700266838074,-0.2868691384792328
1761316201244285200,1.80928515625,0.11537377536296844,-0.025502873584628105,-0.2887016832828522
1761316201263208000,1.8282080078125,0.1361425817012787,0.00259610079228878,-0.259991854429245
1761316201282130400,1.84713037109375,0.09827005118131638,0.02886253222823143,-0.25266170501708984
1761316201301053200,1.86605322265625,0.06406260281801224,0.06306997686624527,-0.2318928837776184
1761316201319975700,1.8849755859375,0.00908635277301073,0.05268557742238045,-0.25205084681510925
1761316201338898400,1.9038984375,-0.028786176815629005,-0.04443913698196411,-0.2966426908969879
1761316201357821000,1.922821044921875,-0.03733803704380989,-0.18493400514125824,-0.38093963265419006
1761316201376743700,1.94174365234375,-0.0361163429915905,-0.1776038408279419,-0.415147066116333
1761316201395666400,1.96066650390625,-0.025731941685080528,-0.024281177669763565,-0.3406237065792084
1761316201414589000,1.9795888671875,-0.09903360903263092,0.17363333702087402,-0.2208976447582245
1761316201433511700,1.99851171875,-0.14484715461730957,0.3581092059612274,-0.16042375564575195
1761316201452434200,2.01743408203125,-0.2071535736322403,0.3855973184108734,-0.1811925619840622
1761316201471357000,2.03635693359375,-0.21204034984111786,0.31168481707572937,-0.23616881668567657
1761316201490279400,2.055279541015625,-0.23525254428386688,0.1779092699289322,-0.2337254285812378
1761316201509202200,2.0742021484375,-0.24746949970722198,0.10582929104566574,-0.28014981746673584
1761316201528125000,2.093125,-0.25174543261528015,0.0050394898280501366,-0.3235199749469757
1761316201547047400,2.11204736328125,-0.20837527513504028,-0.010231691412627697,-0.34428879618644714
1761316201565970200,2.13097021484375,-0.1802763044834137,0.08017370104789734,-0.37238776683807373
1761316201584893000,2.149892822265625,-0.3739148676395416,0.24998924136161804,-0.41209283471107483
1761316201603815400,2.1688154296875,-0.6023717522621155,0.14125843346118927,-0.40964943170547485
1761316201622738200,2.18773828125,-0.7013289928436279,0.02886253222823143,-0.42308807373046875
1761316201641660700,2.20666064453125,-0.6732300519943237,0.08689302206039429,-0.4438568949699402
1761316201660583400,2.22558349609375,-0.9139038324356079,0.09055810421705246,-0.5373165011405945
1761316201679506200,2.244506103515625,-1.0403492450714111,-0.06765133142471313,-0.6136724352836609
1761316201698428700,2.2634287109375,-0.9865946769714355,0.06856760382652283,-0.6460473537445068
1761316201717351400,2.282351318359375,-1.057452917098999,0.18096350133419037,-0.6576534509658813
1761316201736274000,2.30127392578125,-1.1118183135986328,0.3226800560951233,-0.6900283098220825
1761316201755196700,2.32019677734375,-1.0085852146148682,0.3245126008987427,-0.6796439290046692
1761316201774119200,2.339119140625,-0.8986326456069946,0.43385425209999084,-0.5385382175445557
1761316201793042000,2.3580419921875,-0.8717554211616516,0.6648308634757996,-0.34184539318084717
1761316201811964700,2.376964599609375,-0.8534299731254578,0.7857786417007446,-0.0755159929394722
1761316201830887200,2.39588720703125,-0.7514184713363647,0.8700755834579468,0.10224056243896484
1761316201849810000,2.414809814453125,-0.5211290717124939,0.7998281121253967,0.1474432498216629
1761316201868732400,2.433732421875,-0.3494809865951538,0.7863894701004028,0.23662695288658142
1761316201887655200,2.4526552734375,-0.17233528196811676,0.7992172837257385,0.3862845301628113
1761316201906578000,2.471577880859375,0.07322531193494797,0.8083800077438354,0.46874892711639404
1761316201925500400,2.49050048828125,0.37864893674850464,0.5689278841018677,0.5121190547943115
1761316201944423200,2.509423095703125,0.7402704954147339,0.125987246632576,0.5890858173370361
1761316201963345700,2.528345703125,1.3707412481307983,-0.3706315755844116,0.7827243804931641
1761316201982268400,2.547268310546875,1.7598509788513184,-0.4225535988807678,1.0881479978561401
1761316202001191200,2.566191162109375,1.5985872745513916,-0.5697677731513977,1.4962704181671143
1761316202020113700,2.58511376953125,0.8129613399505615,-0.8922951221466064,1.9892240762710571
1761316202039036400,2.604036376953125,0.36521029472351074,-0.4109475016593933,2.2457799911499023
1761316202057959000,2.622958984375,0.42690587043762207,-0.09330692142248154,2.1773650646209717
1761316202076881700,2.641881591796875,0.6926244497299194,-0.29916244745254517,1.7748167514801025
1761316202095804400,2.660804443359375,1.046915888786316,-0.6613948941230774,1.3343958854675293
1761316202114727000,2.679726806640625,1.2369656562805176,-0.8495358228683472,1.000796914100647
1761316202133649700,2.698649658203125,1.1422843933105469,-1.0376768112182617,0.7796701788902283
1761316202152572400,2.717572509765625,0.9296332001686096,-1.2056597471237183,0.5493807792663574
1761316202171495000,2.736494873046875,0.8092962503433228,-1.6179816722869873,0.24212458729743958
1761316202190417700,2.755417724609375,0.8154047131538391,-1.685174822807312,0.04665346071124077
1761316202209340200,2.774340087890625,0.7750887870788574,-1.3992983102798462,0.1614927500486374
1761316202228263000,2.793262939453125,0.7146149277687073,-1.1299147605895996,0.2897706627845764
1761316202247185700,2.812185546875,0.7140040993690491,-1.0272923707962036,0.24701136350631714
1761316202266108200,2.831108154296875,0.8099071383476257,-1.2129899263381958,-0.040697697550058365
1761316202285031000,2.850031005859375,0.8703809976577759,-1.5043641328811646,-0.415147066116333
1761316202303953700,2.86895361328125,0.7726454138755798,-1.7071653604507446,-0.678422212600708
1761316202322876200,2.887876220703125,0.6077166795730591,-1.6815097332000732,-0.9007706642150879
1761316202341799000,2.906798828125,0.45439401268959045,-1.3137797117233276,-1.0058363676071167
1761316202360721400,2.925721435546875,0.24487338960170746,-0.6503996253013611,-0.9325346946716309
1761316202379644200,2.94464404296875,-0.05444176122546196,-0.10063708573579788,-0.7700493335723877
1761316202398566700,2.963566650390625,-0.23952847719192505,0.15408621728420258,-0.7101863026618958
1761316202417489400,2.982489501953125,-0.3091650605201721,0.3849864900112152,-0.7120188474655151
1761316202436412200,3.001412109375,-0.3256579339504242,0.653835654258728,-0.7822662591934204
1761316202455334700,3.020334716796875,-0.3219928741455078,0.7772268056869507,-0.8537353873252869
1761316202474257400,3.03925732421875,-0.2065427303314209,0.5609868764877319,-0.8457943797111511
1761316202493180200,3.05818017578125,0.12270393967628479,-0.0035123717971146107,-0.7999808192253113
1761316202512102700,3.0771025390625,0.538080096244812,-0.6455128192901611,-0.6063422560691833
1761316202531025400,3.096025390625,0.833730161190033,-0.8128849864006042,-0.3351260721683502
1761316202549948200,3.1149482421875,0.8471688032150269,-0.7542436718940735,-0.12377292662858963
1761316202568870700,3.13387060546875,0.7879166007041931,-0.3883461356163025,0.07963921129703522
1761316202587793400,3.15279345703125,0.8270108103752136,-0.06826218217611313,0.1456107199192047
1761316202606716200,3.171716064453125,0.8764894604682922,-0.39567631483078003,-0.0755159929394722
1761316202625638700,3.190638671875,1.1477819681167603,-0.8293778896331787,-0.2056264579296112
1761316202644561400,3.2095615234375,1.2546802759170532,-0.42133188247680664,-0.29053422808647156
1761316202663484000,3.22848388671875,1.0017131567001343,0.022754060104489326,-0.3882697820663452
1761316202682406700,3.24740673828125,0.3071798086166382,0.8010498285293579,-0.5703022480010986
1761316202701329400,3.266329345703125,-0.8888590931892395,0.976973831653595,-0.5648046731948853
1761316202720252000,3.285251953125,-1.4166311025619507,1.7729078531265259,-0.3271850645542145
1761316202739174700,3.304174560546875,-0.9175689220428467,2.5694525241851807,0.008780929259955883
1761316202758097400,3.323097412109375,-0.3091650605201721,1.8883579969406128,0.3685699701309204
1761316202777020000,3.34202001953125,0.3016822040081024,0.8957311511039734,0.1853157877922058
1761316202795942700,3.360942626953125,0.5710658431053162,0.9995751976966858,0.1217876747250557
1761316202814865200,3.379865234375,-0.20348849892616272,1.5304014682769775,-0.1665322333574295
1761316202833788000,3.398787841796875,-0.5840463638305664,0.8566369414329529,-0.572745680809021
1761316202852710700,3.417710693359375,-0.5144097208976746,0.4668400287628174,-0.6289436221122742
1761316202871633200,3.436633056640625,-0.4404972195625305,0.2426590770483017,-0.5183802843093872
1761316202890556000,3.455555908203125,-0.43561044335365295,0.3446705639362335,-0.577021598815918
1761316202909478700,3.474478759765625,-0.39468368887901306,0.3202366828918457,-0.7779903411865234
1761316202928401200,3.493401123046875,-0.348259299993515,0.26159533858299255,-0.9172635078430176
1761316202947324000,3.512323974609375,-0.34520506858825684,0.38193225860595703,-0.9630770683288574
1761316202966246700,3.53124658203125,-0.3513135313987732,0.5383855104446411,-0.8030350804328918
1761316202985169200,3.550169189453125,-0.34459421038627625,0.685599684715271,-0.5073850154876709
1761316203004092000,3.569091796875,-0.4258368909358978,0.6269583702087402,-0.3497864007949829
1761316203023014700,3.5880146484375,-0.4789806008338928,0.5542675256729126,-0.42308807373046875
1761316203041937200,3.606937255859375,-0.5803812742233276,0.5756471753120422,-0.4908921420574188
1761316203060860000,3.62585986328125,-0.6610130667686462,0.7662315368652344,-0.4829511046409607
1761316203079782700,3.64478271484375,-0.6524612307548523,0.8236511945724487,-0.4536304473876953
1761316203098705200,3.663705078125,-0.6249731183052063,0.5047125220298767,-0.43469417095184326
1761316203117628000,3.6826279296875,-0.5828246474266052,0.3471139669418335,-0.3803287744522095
1761316203136550700,3.701550537109375,-0.4563792645931244,0.41858309507369995,-0.2728196680545807
1761316203155473200,3.72047314453125,-0.38185590505599976,0.5438831448554993,-0.053525492548942566
1761316203174396000,3.73939599609375,-0.2957264184951782,0.6575007438659668,0.14988665282726288
1761316203193318700,3.758318603515625,-0.1393495351076126,0.8248728513717651,0.341081827878952
1761316203212241200,3.7772412109375,-0.04222481697797775,0.6788803935050964,0.49196112155914307
1761316203231164000,3.796163818359375,0.0017561858985573053,0.4161396920681,0.5866424441337585
1761316203250086400,3.81508642578125,0.3059581220149994,0.2707580327987671,0.606800377368927
1761316203269009200,3.834009033203125,0.8361735343933105,-0.3095468580722809,0.5365529656410217
1761316203287932000,3.852931884765625,1.2290246486663818,-0.9900307059288025,0.4583645164966583
1761316203306854700,3.871854736328125,1.2052016258239746,-1.4188454151153564,0.7735617160797119
1761316203325777200,3.890777099609375,0.982166051864624,-1.0883771181106567,1.3032426834106445
1761316203344700000,3.909699951171875,0.8593857288360596,-0.6198572516441345,1.7625997066497803
1761316203363622400,3.928622314453125,0.9229138493537903,-0.2912214398384094,2.068023443222046
1761316203401468000,3.966468017578125,0.9833877086639404,0.005650337319821119,2.389939785003662
1761316203420390700,3.985390625,0.8123505115509033,0.11315945535898209,2.273878812789917
1761316203439313200,4.004313232421875,0.8251782655715942,-0.15744587779045105,1.766264796257019
1761316203458236000,4.02323583984375,0.8025769591331482,-0.92711341381073,1.1131927967071533
1761316203477158700,4.04215869140625,0.7323294878005981,-1.3009519577026367,0.7937196493148804
1761316203496081200,4.0610810546875,0.6975111961364746,-1.4023525714874268,0.7381325364112854
1761316203515004000,4.08000390625,0.6553627252578735,-1.556286096572876,0.6642200350761414
1761316203533926700,4.0989267578125,0.6278746128082275,-1.644248127937317,0.5738146305084229
1761316203552849200,4.11784912109375,0.6571952700614929,-1.6986135244369507,0.46691638231277466
1761316203571772000,4.13677197265625,0.6840725541114807,-1.8378866910934448,0.2909923493862152
1761316203590694700,4.155694580078125,0.5606814026832581,-1.8818676471710205,-0.035200074315071106
1761316203609617200,4.1746171875,0.3059581220149994,-1.5507885217666626,-0.389491468667984
1761316203628540000,4.193539794921875,0.02680092304944992,-1.057223916053772,-0.6081748008728027
1761316203647462700,4.212462646484375,-0.18882815539836884,-0.5587725043296814,-0.6399388313293457
1761316203666385200,4.23138525390625,-0.2847311794757843,-0.1366770714521408,-0.5794649720191956
1761316203685308000,4.250307861328125,-0.352535218000412,0.1241547018289566,-0.5336514115333557
1761316203704230700,4.269230712890625,-0.3598653972148895,0.5120427012443542,-0.5177693963050842
1761316203723153200,4.288153076171875,-0.3623087704181671,0.9378796219825745,-0.5757998824119568
1761316203742076000,4.307075927734375,-0.3897969126701355,1.0667684078216553,-0.6411605477333069
1761316203760998700,4.32599853515625,-0.34520506858825684,0.7332457900047302,-0.6155049800872803
1761316203779921200,4.344921142578125,-0.17722205817699432,0.2713688910007477,-0.4957789182662964
1761316203798844000,4.363843994140625,0.16546325385570526,-0.16538690030574799,-0.43652671575546265
1761316203817766700,4.3827666015625,0.5808393955230713,-0.6070294380187988,-0.47317755222320557
1761316203836689400,4.401689453125,0.7897491455078125,-0.6247440576553345,-0.38155046105384827
1761316203855612000,4.42061181640625,0.7647044062614441,-0.2533488869667053,-0.08467870205640793
1761316203874534700,4.43953466796875,0.616268515586853,0.08139539510011673,0.0949103906750679
1761316203893457400,4.45845751953125,0.5008183717727661,0.15408621728420258,-0.03214583545923233
1761316203912380000,4.4773798828125,0.34810659289360046,-0.02244863659143448,-0.10972344130277634
1761316203931302700,4.496302734375,0.015194825828075409,-0.1916533261537552,-0.07857023179531097
1761316203950225400,4.515225341796875,-0.10330954194068909,0.016034740954637527,0.0032833039294928312
1761316203969148000,4.53414794921875,-0.3794125020503998,0.5579326152801514,-0.2569376230239868
1761316203988070700,4.553070556640625,-0.8906916379928589,1.3996801376342773,-0.46157145500183105
1761316204006993400,4.571993408203125,-1.1539667844772339,2.2249348163604736,-0.4945572018623352
1761316204025916200,4.590916259765625,-0.9267316460609436,2.040458917617798,-0.4395809471607208
1761316204044838700,4.609838623046875,-0.34398335218429565,1.0734877586364746,-0.2960318624973297
1761316204063761400,4.628761474609375,0.0823880210518837,0.4802786707878113,-0.22639526426792145
1761316204082684200,4.64768408203125,0.20516832172870636,0.7222505211830139,-0.38521555066108704
1761316204101606700,4.666606689453125,-0.08620581775903702,1.2567418813705444,-0.7193490266799927
1761316204120529400,4.685529296875,-0.24380441009998322,1.047221302986145,-0.9019923210144043
1761316204139452200,4.7044521484375,-0.24930204451084137,0.6611657738685608,-0.8647306561470032
1761316204158375000,4.723375,-0.35497862100601196,0.35627666115760803,-0.8293015360832214
1761316204177297400,4.74229736328125,-0.5406761765480042,0.28725093603134155,-0.8610655665397644
1761316204196220200,4.76122021484375,-0.5925981998443604,0.282364159822464,-0.8280798196792603
1761316204215143000,4.780142822265625,-0.6023717522621155,0.5108210444450378,-0.623445987701416
1761316204234065400,4.7990654296875,-0.5107446908950806,0.6837671399116516,-0.44935452938079834
1761316204252988200,4.81798828125,-0.41117656230926514,0.8719081282615662,-0.2703762650489807
1761316204271911000,4.836910888671875,-0.4050680994987488,1.0563839673995972,-0.10361496359109879
1761316204290833700,4.855833740234375,-0.46187686920166016,1.0948673486709595,-0.02664821222424507
1761316204309756200,4.874756103515625,-0.5260158181190491,1.0380585193634033,-0.02176143415272236
1761316204328679000,4.893678955078125,-0.581602931022644,0.9500965476036072,-0.05169294774532318
1761316204347601700,4.9126015625,-0.6481853127479553,0.9293277263641357,-0.08467870205640793
1761316204366524200,4.931524169921875,-0.6597914099693298,0.949485719203949,-0.10300412029027939
1761316204385447000,4.950447021484375,-0.6170321106910706,0.8499175906181335,-0.17569494247436523
1761316204404369700,4.96936962890625,-0.5547256469726562,0.6678851246833801,-0.24288813769817352
1761316204423292400,4.98829248046875,-0.4661528170108795,0.5016583204269409,-0.2459423840045929
1761316204442215000,5.00721484375,-0.35558944940567017,0.4246915578842163,-0.1805817186832428
1761316204461137700,5.0261376953125,-0.246247798204422,0.43141087889671326,-0.10178242623806
1761316204480060400,5.045060302734375,-0.16256172955036163,0.40331190824508667,-0.02298312820494175
1761316204498983000,5.06398291015625,-0.13446275889873505,0.36605021357536316,0.08452598750591278
1761316204517905700,5.08290576171875,-0.16256172955036163,0.5175403356552124,0.27205610275268555
1761316204536828400,5.101828369140625,-0.1527881771326065,0.5915291905403137,0.5732038021087646
1761316204555751200,5.120751220703125,-0.0037414394319057465,0.46073153614997864,0.8926768898963928
1761316204574673700,5.139673583984375,0.29862794280052185,0.3239017724990845,1.2427687644958496
1761316204593596400,5.158596435546875,0.5851153135299683,-0.23196925222873688,1.647149682044983
1761316204612519200,5.177519287109375,0.9021450281143188,-0.9307785034179688,1.6776920557022095
1761316204631442000,5.19644189453125,1.1673290729522705,-1.2856807708740234,1.4889402389526367
1761316204650364400,5.215364501953125,1.3328686952590942,-1.4848170280456543,1.1058626174926758
1761316204669287200,5.234287109375,1.266897201538086,-1.1757283210754395,0.9067264199256897
1761316204688210000,5.2532099609375,1.1447277069091797,-0.34192174673080444,1.1884033679962158
1761316204707132700,5.272132568359375,1.065852165222168,0.02214321307837963,1.7002933025360107
1761316204726055200,5.29105517578125,0.9638406038284302,-0.05360184609889984,2.1101717948913574
1761316204744978000,5.30997802734375,0.9577321410179138,-0.05360184609889984,2.07657527923584
1761316204763900700,5.328900634765625,0.9332982301712036,-0.5917583107948303,1.4351856708526611
1761316204782823400,5.347823486328125,0.9106969237327576,-1.10364830493927,0.7790593504905701
1761316204801746000,5.366745849609375,0.9473477602005005,-1.2881242036819458,0.5334987044334412
1761316204820668700,5.385668701171875,0.912529468536377,-1.2478082180023193,0.45592111349105835
1761316204839591400,5.40459130859375,0.8942040205001831,-1.436560034751892,0.41499435901641846
1761316204858514200,5.42351416015625,0.9510128498077393,-2.0095348358154297,0.1737096905708313
1761316204877436700,5.442436767578125,1.0615761280059814,-2.59907865524292,-0.06085565686225891
1761316204896359400,5.461359375,1.0212602615356445,-2.6027438640594482,-0.36017081141471863
1761316204915282200,5.4802822265625,0.6944569945335388,-2.133002281188965,-0.8146411776542664
1761316204934205000,5.499204833984375,0.3145099878311157,-1.6833423376083374,-1.154272198677063
1761316204953127400,5.51812744140625,0.05856497958302498,-1.2850699424743652,-1.2788851261138916
1761316204972050200,5.53705029296875,-0.04222481697797775,-0.659562349319458,-1.0974634885787964
1761316204990973000,5.555972900390625,-0.0752105712890625,-0.08964183181524277,-0.7938723564147949
1761316205009895700,5.574895751953125,-0.15034478902816772,0.3318427801132202,-0.572745680809021
1761316205028818200,5.593818115234375,-0.23464170098304749,0.7265264391899109,-0.5684697031974792
1761316205047741000,5.612740966796875,-0.3342097997665405,0.8841250538825989,-0.725457489490509
1761316205066663700,5.63166357421875,-0.35436776280403137,0.5762580037117004,-0.8054784536361694
1761316205085586400,5.65058642578125,-0.1802763044834137,-0.0004581354442052543,-0.7834879755973816
1761316205104509200,5.66950927734375,0.19356222450733185,-0.43232715129852295,-0.7908181548118591
1761316205123431700,5.688431640625,0.5344150066375732,-0.8312104344367981,-0.891607940196991
1761316205142354400,5.7073544921875,0.6266529560089111,-0.733474850654602,-0.5929036140441895
1761316205161277200,5.726277099609375,0.611992597579956,-0.21975229680538177,-0.10483665764331818
1761316205180199700,5.74519970703125,0.6095492243766785,0.07589777559041977,0.1340046226978302
1761316205199122400,5.764122314453125,0.5289173722267151,0.2664821147918701,-0.18546849489212036
1761316205218045200,5.783045166015625,0.45683738589286804,0.254265159368515,-0.6203917264938354
1761316205236968000,5.801968017578125,0.15691138803958893,0.16691401600837708,-0.5177693963050842
1761316205255890700,5.820890625,-0.18760646879673004,0.009315420873463154,0.025884652510285378
1761316205274813200,5.839813232421875,-0.29083964228630066,0.2292204350233078,0.1468324065208435
1761316205293736000,5.85873583984375,-0.5974849462509155,1.1156361103057861,-0.12316207587718964
1761316205312658700,5.87765869140625,-1.2419288158416748,1.8339924812316895,-0.15187190473079681
1761316205331581400,5.89658154296875,-1.3170630931854248,2.5609006881713867,-0.21784339845180511
1761316205350504200,5.915504150390625,-0.7514184713363647,2.6012167930603027,-0.24960745871067047
1761316205369426700,5.9344267578125,0.09155073016881943,1.2152042388916016,-0.232503741979599
1761316205388349400,5.953349365234375,0.5319716334342957,0.36605021357536316,0.05703786388039589
1761316205407272200,5.972272216796875,0.2015032321214676,1.0405019521713257,0.21891239285469055
1761316205426195000,5.99119482421875,-0.35925453901290894,1.6580685377120972,-0.2746522128582001
1761316205445117400,6.010117431640625,-0.4692070484161377,0.8792382478713989,-0.6265002489089966
1761316205464040200,6.029040283203125,-0.4319453537464142,0.4008685052394867,-0.5531985759735107
1761316205482963000,6.047962890625,-0.47531551122665405,0.43018919229507446,-0.3791070878505707
1761316205501885700,6.0668857421875,-0.4948626458644867,0.5823665261268616,-0.2880908250808716
1761316205520808200,6.08580810546875,-0.45943349599838257,0.6843779683113098,-0.2679328918457031
1761316205539731000,6.10473095703125,-0.36902809143066406,0.630623459815979,-0.38277217745780945
1761316205558653700,6.12365380859375,-0.3610870838165283,0.7338566184043884,-0.43652671575546265
1761316205577576400,6.142576416015625,-0.38002336025238037,0.8114342093467712,-0.3882697820663452
1761316205596499200,6.161499267578125,-0.4301128387451172,0.9397121667861938,-0.231282040476799
1761316205615421700,6.180421630859375,-0.5247941613197327,1.0111812353134155,-0.10117157548666
1761316205634344400,6.199344482421875,-0.6439093947410583,0.9177216291427612,-0.07429429888725281
1761316205653267200,6.21826708984375,-0.7465317249298096,0.7882220149040222,-0.16408884525299072
1761316205672190000,6.23718994140625,-0.7972320318222046,0.759512186050415,-0.30702710151672363
1761316205691112700,6.25611279296875,-0.7850151062011719,0.704535961151123,-0.4279748499393463
1761316205710035200,6.27503515625,-0.711713433265686,0.5463265180587769,-0.49028128385543823
1761316205728958000,6.2939580078125,-0.6048151254653931,0.46989426016807556,-0.4579063653945923
1761316205747880700,6.312880615234375,-0.4924192428588867,0.5022691488265991,-0.3375694751739502
1761316205766803500,6.331803466796875,-0.3775799572467804,0.5670953392982483,-0.1555369794368744
1761316205785726200,6.350726318359375,-0.299391508102417,0.5053234100341797,0.018554486334323883
1761316205804648700,6.369648681640625,-0.269459992647171,0.5242596864700317,0.14438901841640472
1761316205823571500,6.388571533203125,-0.24136102199554443,0.5689278841018677,0.21891239285469055
1761316205842494200,6.407494140625,-0.2328091561794281,0.7118661403656006,0.31115031242370605
1761316205861417000,6.4264169921875,-0.11674818396568298,0.6727718710899353,0.5273902416229248
1761316205880339700,6.445339599609375,0.10621106624603271,0.439351886510849,0.8132667541503906
1761316205899262200,6.46426220703125,0.4207974076271057,0.24998924136161804,0.8548043966293335
1761316205918185000,6.48318505859375,0.6700230836868286,-0.46897798776626587,0.8590803146362305
1761316205937107700,6.502107666015625,0.8074637055397034,-1.2630794048309326,0.8548043966293335
1761316205956030500,6.521030517578125,0.8966473937034607,-1.307671308517456,1.0252307653427124
1761316205974953000,6.539952880859375,0.9461260437965393,-1.1757283210754395,1.2604832649230957
1761316205993875700,6.558875732421875,0.8984799385070801,-0.9167290329933167,1.350888729095459
1761316206012798500,6.577798583984375,0.8942040205001831,-0.32726141810417175,1.5921733379364014
1761316206031721200,6.59672119140625,0.8807653784751892,-0.02244863659143448,1.9586817026138306
1761316206050644000,6.61564404296875,0.8105179667472839,-0.19531841576099396,2.126664638519287
1761316206069566700,6.634566650390625,0.8349518179893494,-0.28572380542755127,1.9873915910720825
1761316206088489200,6.6534892578125,0.8966473937034607,-0.4946335554122925,1.4962704181671143
1761316206107412000,6.672411865234375,0.9418501257896423,-1.0388984680175781,0.9110023379325867
1761316206126334700,6.691334716796875,0.9687274098396301,-1.3363810777664185,0.611687183380127
1761316206145257500,6.710257568359375,0.9387958645820618,-1.366923451423645,0.4895177185535431
1761316206164180200,6.72918017578125,0.907642662525177,-1.4188454151153564,0.473024845123291
1761316206183102700,6.748102783203125,0.9186379313468933,-1.7713043689727783,0.3459686040878296
1761316206202025500,6.767025390625,0.9528453946113586,-2.246619939804077,0.014889402315020561
1761316206220948200,6.7859482421875,0.9613972306251526,-2.417046308517456,-0.4029301106929779
1761316206239871000,6.80487109375,0.9161945581436157,-2.3895580768585205,-0.7902072668075562
1761316206258793700,6.823793701171875,0.7121715545654297,-2.1898109912872314,-1.0351570844650269
1761316206277716500,6.842716552734375,0.4916556775569916,-1.7169389724731445,-1.0101122856140137
1761316206296639000,6.861638916015625,0.2631988227367401,-1.122584581375122,-0.7920398116111755
1761316206315561700,6.880561767578125,0.13797512650489807,-0.576487123966217,-0.5812975168228149
1761316206334484500,6.899484375,0.06406260281801224,-0.28694549202919006,-0.5147151947021484
1761316206353407200,6.9184072265625,-0.03367295488715172,-0.07375980913639069,-0.6240568161010742
1761316206372329700,6.937329833984375,-0.13385190069675446,0.13026317954063416,-0.827468991279602
1761316206391252500,6.95625244140625,-0.2193705290555954,0.28664007782936096,-0.9575794339179993
1761316206410175200,6.97517529296875,-0.2187596708536148,0.31473904848098755,-0.9869000911712646
1761316206429098000,6.994097900390625,-0.053830914199352264,0.006261184345930815,-0.9826241731643677
1761316206448020700,7.013020751953125,0.2674747407436371,-0.2973299026489258,-0.8610655665397644
1761316206466943500,7.031943603515625,0.5154787302017212,-0.5147915482521057,-0.6032879948616028
1761316206485866000,7.050865966796875,0.5136461853981018,-0.50685054063797,-0.2318928837776184
1761316206504788700,7.069788818359375,0.49715331196784973,-0.20814619958400726,0.06131379306316376
1761316206523711500,7.08871142578125,0.5032618045806885,-0.03771981969475746,0.13950224220752716
1761316206542634200,7.10763427734375,0.5527403950691223,0.014813045971095562,-0.026037365198135376
1761316206561557000,7.126556884765625,0.5118136405944824,0.26281702518463135,-0.4273640215396881
1761316206580479700,7.145479736328125,0.2894652485847473,0.7094227075576782,-0.8989381194114685
1761316206599402200,7.16440234375,-0.08131904155015945,1.217647671699524,-1.239790916442871
1761316206618325000,7.183324951171875,-0.34459421038627625,1.3630293607711792,-0.8427401781082153
1761316206637247700,7.202247802734375,-0.7086591720581055,0.7228613495826721,0.22196662425994873
1761316206656170500,7.22117041015625,-0.5302917957305908,0.4790569543838501,0.8560260534286499
1761316206675093200,7.24009326171875,-0.3372640311717987,1.0722659826278687,0.37528929114341736
1761316206694015700,7.259015625,-0.7373690009117126,1.6037031412124634,0.09857547283172607
1761316206712938500,7.2779384765625,-1.1893960237503052,1.786346435546875,-0.07246175408363342
1761316206731861200,7.296861328125,-1.2168841361999512,1.8901904821395874,-0.42247724533081055
1761316206750784000,7.315783935546875,-0.6359683275222778,1.2316970825195312,-0.6729246377944946
1761316206769706800,7.334706787109375,0.04085041210055351,0.583588182926178,-0.5305972099304199
1761316206788629500,7.35362939453125,0.17157171666622162,0.9030613303184509,-0.17569494247436523
1761316206807552000,7.372552001953125,-0.2566322088241577,1.5676631927490234,0.002061609411612153
1761316206826474800,7.391474853515625,-0.43316707015037537,1.254298448562622,-0.2202867865562439
1761316206845397500,7.4103974609375,-0.3922402858734131,0.43202173709869385,-0.4951680600643158
1761316206864320300,7.4293203125,-0.34581589698791504,0.32878854870796204,-0.366279274225235
1761316206883243000,7.448242919921875,-0.32871219515800476,0.5921400785446167,-0.041919391602277756
1761316206902165800,7.467165771484375,-0.3128301501274109,0.6214607357978821,0.10162971168756485
1761316206921088300,7.486088134765625,-0.2822877764701843,0.6086329221725464,-0.03092414326965809
1761316206940011000,7.505010986328125,-0.30733251571655273,0.5695387125015259,-0.2746522128582001
1761316206958933800,7.523933837890625,-0.35497862100601196,0.5744255185127258,-0.35711658000946045
1761316206977856500,7.5428564453125,-0.3775799572467804,0.6825454831123352,-0.3125247359275818
1761316206996779000,7.561779052734375,-0.40812233090400696,0.7027034163475037,-0.22822780907154083
1761316207015701800,7.58070166015625,-0.48875415325164795,0.6758261322975159,-0.25266170501708984
1761316207034624500,7.59962451171875,-0.6035934686660767,0.575036346912384,-0.35711658000946045
1761316207053547300,7.61854736328125,-0.6842252612113953,0.5719820857048035,-0.43652671575546265
1761316207072470000,7.637469970703125,-0.7074374556541443,0.630012571811676,-0.4579063653945923
1761316207091392800,7.656392822265625,-0.6946097016334534,0.6837671399116516,-0.43469417095184326
1761316207110315300,7.675315185546875,-0.6280273199081421,0.5732038021087646,-0.43469417095184326
1761316207129238000,7.694238037109375,-0.5327351689338684,0.3764346241950989,-0.4316399395465851
1761316207148160800,7.713160888671875,-0.42278265953063965,0.2707580327987671,-0.37238776683807373
1761316207167083500,7.73208349609375,-0.3354314863681793,0.23838314414024353,-0.2825932204723358
1761316207186006300,7.75100634765625,-0.21692712604999542,0.23410721123218536,-0.18913358449935913
1761316207204929000,7.769928955078125,-0.10758547484874725,0.3446705639362335,-0.06879667192697525
1761316207223851500,7.7888515625,-0.08437328040599823,0.5579326152801514,0.08758022636175156
1761316207242774300,7.807774169921875,-0.10514208674430847,0.6935406923294067,0.2500655949115753
1761316207261697000,7.826697021484375,-0.13018682599067688,0.690486490726471,0.40583163499832153
1761316207280619800,7.845619873046875,-0.08254073560237885,0.6061895489692688,0.5304445028305054
1761316207299542500,7.86454248046875,0.12453648447990417,0.49860408902168274,0.5481590628623962
1761316207318465300,7.88346533203125,0.4348468780517578,0.14125843346118927,0.5487698912620544
1761316207337387800,7.9023876953125,0.6938461065292358,-0.5178457498550415,0.6483380198478699
1761316207356310500,7.921310546875,0.8862630128860474,-1.00224769115448,0.7674532532691956
1761316207375233300,7.9402333984375,1.147171139717102,-1.0999832153320312,1.1963443756103516
1761316207394156000,7.959156005859375,1.2424633502960205,-0.825101912021637,1.735722541809082
1761316207413078800,7.978078857421875,1.1483927965164185,-0.453095942735672,2.079629421234131
1761316207432001500,7.99700146484375,1.0524134635925293,-0.24601873755455017,2.2054641246795654
1761316207450924000,8.015924072265625,1.018206000328064,-0.11651911586523056,2.1474335193634033
1761316207469846800,8.0348466796875,0.9473477602005005,-0.38223767280578613,1.8762173652648926
1761316207488769500,8.05376953125,0.9235246777534485,-0.695602297782898,1.535975456237793
1761316207507692300,8.0726923828125,0.9461260437965393,-0.9704836010932922,1.2592616081237793
1761316207526614800,8.09161474609375,0.9766684174537659,-1.3088929653167725,0.8963419795036316
1761316207545537500,8.11053759765625,1.022481918334961,-1.63997220993042,0.6043570041656494
1761316207564460300,8.129460205078125,1.005378246307373,-1.621646761894226,0.3685699701309204
1761316207583383000,8.148383056640625,1.0744802951812744,-1.4952013492584229,0.24823305010795593
1761316207602305800,8.167305908203126,1.1899304389953613,-1.7358752489089966,0.16699036955833435
1761316207621228500,8.186228515625,1.2742273807525635,-2.135369300842285,0.1327829211950302
1761316207640151000,8.205151123046875,1.2180293798446655,-2.249674081802368,0.1217876747250557
1761316207659073800,8.22407373046875,0.9577321410179138,-1.907523274421692,-0.0755159929394722
1761316207677996500,8.24299658203125,0.663303792476654,-1.7352643013000488,-0.44568943977355957
1761316207696919300,8.261919189453126,0.357269287109375,-1.625922679901123,-0.7468371391296387
1761316207715842000,8.280842041015624,0.09827005118131638,-1.407239317893982,-0.8067001700401306
1761316207734764800,8.299764892578125,-0.11919157207012177,-0.9521581530570984,-0.646658182144165
1761316207753687300,8.318687255859375,-0.27801185846328735,-0.35597124695777893,-0.44691112637519836
1761316207772610000,8.337610107421876,-0.3665847182273865,-0.04016320779919624,-0.42308807373046875
1761316207791532800,8.35653271484375,-0.4032355546951294,0.09910997003316879,-0.4970006048679352
1761316207810455600,8.37545556640625,-0.3885752260684967,0.20906247198581696,-0.5806866884231567
1761316207829378300,8.39437841796875,-0.3610870838165283,0.3581092059612274,-0.6888066530227661
1761316207848300800,8.41330078125,-0.26396235823631287,0.2817533016204834,-0.854957103729248
1761316207867223600,8.4322236328125,-0.09109259396791458,-0.05115845799446106,-0.9985061883926392
1761316207886146300,8.451146240234374,0.08666395395994186,-0.46164780855178833,-1.0650885105133057
1761316207905069000,8.470069091796875,0.25709033012390137,-0.7566870450973511,-1.0046147108078003
1761316207923991800,8.48899169921875,0.4134672284126282,-0.6937697529792786,-0.8073109984397888
1761316207942914300,8.507914306640625,0.4745519757270813,-0.1757712960243225,-0.5055524706840515
1761316207961837000,8.526837158203126,0.47943875193595886,0.44729289412498474,-0.1921878159046173
1761316207980759800,8.545759765625,0.4238516390323639,0.787611186504364,-0.19951798021793365
1761316207999682600,8.5646826171875,0.18439951539039612,0.7955521941184998,-0.5293754935264587
1761316208018605300,8.583605224609375,-0.031229566782712936,0.6208499073982239,-0.5507551431655884
1761316208037527800,8.60252783203125,-0.17661121487617493,0.2163926362991333,-0.34428879618644714
1761316208056450600,8.621450439453126,-0.33237725496292114,0.14553436636924744,-0.0749051421880722
1761316208075373300,8.640373291015624,-0.5614449977874756,0.7674532532691956,-0.016874656081199646
1761316208094296000,8.659296142578125,-0.6677324175834656,1.8633131980895996,-0.34184539318084717
1761316208113218800,8.67821875,-0.9016869068145752,2.370927333831787,-0.4841728210449219
1761316208132141300,8.697141357421875,-1.1564102172851562,2.3061773777008057,-0.36750099062919617
1761316208151064000,8.71606396484375,-1.011028528213501,1.6788372993469238,-0.05230379477143288
1761316208169986800,8.73498681640625,-0.4160633385181427,0.6629983186721802,0.1077381819486618
1761316208188909600,8.75390966796875,0.08360971510410309,0.32634514570236206,0.12911784648895264
1761316208207832300,8.772832275390625,0.10376767814159393,0.9720870852470398,0.017332790419459343
1761316208226755000,8.791755126953126,-0.22792237997055054,1.527347207069397,-0.23555797338485718
1761316208245677600,8.810677490234376,-0.2590755820274353,0.9427663683891296,-0.40781688690185547
1761316208264600300,8.829600341796874,-0.2315874695777893,0.3190149664878845,-0.4774535000324249
1761316208283523000,8.848523193359375,-0.2731250822544098,0.1626380831003189,-0.5141043066978455
1761316208302445800,8.86744580078125,-0.2981698215007782,0.2658712565898895,-0.4933355152606964
1761316208321368300,8.886368408203126,-0.28045526146888733,0.35505497455596924,-0.43835926055908203
1761316208340291000,8.905291015625,-0.24258272349834442,0.4503471553325653,-0.38093963265419006
1761316208359213800,8.9242138671875,-0.2309766262769699,0.6061895489692688,-0.2941993176937103
1761316208378136600,8.943136474609375,-0.21387289464473724,0.583588182926178,-0.20073968172073364
1761316208397059300,8.962059326171875,-0.2309766262769699,0.6507813930511475,-0.1530935913324356
1761316208415981800,8.98098193359375,-0.23525254428386688,0.7472952604293823,-0.14454172551631927
1761316208434904600,8.999904541015624,-0.27984440326690674,0.634899377822876,-0.17630578577518463
1761316208453827300,9.018827392578125,-0.4062897861003876,0.5267030596733093,-0.3076379597187042
1761316208472750000,9.03775,-0.5076904296875,0.39231663942337036,-0.5043307542800903
1761316208491672800,9.0566728515625,-0.5791595578193665,0.4088095426559448,-0.6943042874336243
1761316208510595300,9.07559521484375,-0.6194754838943481,0.3990359604358673,-0.836020827293396
1761316208529518000,9.09451806640625,-0.6206972002983093,0.28602921962738037,-0.882445216178894
1761316208548440800,9.11344091796875,-0.5669426321983337,0.1375933438539505,-0.762108325958252
1761316208567363600,9.132363525390625,-0.47592636942863464,0.09727742522954941,-0.5452575087547302
1761316208586286300,9.151286376953125,-0.3671955466270447,0.2438807636499405,-0.32840675115585327
1761316208605208800,9.170208740234376,-0.30366745591163635,0.41858309507369995,-0.1274380087852478
1761316208624131600,9.189131591796874,-0.29083964228630066,0.5150969624519348,0.048486001789569855
1761316208643054300,9.208054443359375,-0.28106608986854553,0.5242596864700317,0.13217207789421082
1761316208661977000,9.22697705078125,-0.30488914251327515,0.5854207277297974,0.15538427233695984
1761316208680899800,9.24589990234375,-0.30611082911491394,0.6507813930511475,0.19447849690914154
1761316208699822300,9.264822265625,-0.2193705290555954,0.70881187915802,0.29710084199905396
1761316208718745000,9.2837451171875,0.03352024406194687,0.6697176694869995,0.4107184112071991
1761316208737667800,9.302667724609375,0.3200076222419739,0.3752129375934601,0.44248247146606445
1761316208756590600,9.321590576171875,0.6559736132621765,-0.4262186884880066,0.4766899347305298
1761316208775513300,9.340513427734376,0.9809443354606628,-0.9491039514541626,0.4235462248325348
1761316208794435800,9.359435791015626,1.1856545209884644,-1.093263864517212,0.5817556381225586
1761316208813358600,9.378358642578124,1.1575555801391602,-1.0786035060882568,1.0179005861282349
1761316208832281300,9.39728125,0.8037986159324646,-1.0364550352096558,1.5384187698364258
1761316208851204000,9.4162041015625,0.538080096244812,-0.659562349319458,2.097344160079956
1761316208870126800,9.435126953125,0.6865159869194031,-0.04077405482530594,2.522493839263916
1761316208889049300,9.45404931640625,0.9180271029472351,-0.019394399598240852,2.609234094619751
1761316208907972000,9.47297216796875,0.9809443354606628,-0.270452618598938,2.438807725906372
1761316208926894800,9.491894775390625,0.9223030209541321,-0.20631365478038788,2.198744773864746
1761316208945817600,9.510817626953125,0.9174162149429321,-0.22341738641262054,1.6618099212646484
1761316208964740000,9.529739990234376,0.9601755142211914,-0.8141067028045654,0.902450442314148
1761316208983662800,9.548662841796874,0.9937721490859985,-1.430451512336731,0.23479440808296204
1761316209002585600,9.567585693359375,0.9620080590248108,-1.6179816722869873,-0.16225630044937134
1761316209021508400,9.58650830078125,0.9436826705932617,-1.4878711700439453,-0.19096612930297852
1761316209040431000,9.60543115234375,1.0102649927139282,-1.612484097480774,-0.14454172551631927
1761316209059353600,9.624353515625,1.023703694343567,-1.825058937072754,0.0014507622690871358
1761316209078276400,9.6432763671875,0.7903599739074707,-1.7468703985214233,0.17554223537445068
1761316209097199000,9.66219921875,0.49287739396095276,-1.3547065258026123,0.02710634656250477
1761316209116121900,9.681121826171875,0.23693238198757172,-1.1867234706878662,-0.4811185598373413
1761316209135044400,9.70004443359375,0.0555107444524765,-1.1256388425827026,-0.8806126713752747
1761316209153967000,9.718967041015626,-0.1283542811870575,-0.8287670016288757,-0.9227611422538757
1761316209172889900,9.737889892578124,-0.33237725496292114,-0.31443363428115845,-0.7413395047187805
1761316209191812600,9.7568125,-0.4692070484161377,0.0007635590736754239,-0.6075639724731445
1761316209210735400,9.7757353515625,-0.5290700793266296,0.19684553146362305,-0.5452575087547302
1761316209229657900,9.794657958984375,-0.5461738109588623,0.34405970573425293,-0.5397599339485168
1761316209248580600,9.81358056640625,-0.5125772356987,0.45706647634506226,-0.5428141355514526
1761316209267503400,9.83250341796875,-0.4319453537464142,0.4668400287628174,-0.5611395835876465
1761316209286426000,9.851426025390625,-0.2865637242794037,0.2029540091753006,-0.5941253304481506
1761316209305348600,9.8703486328125,-0.07093463838100433,-0.21364383399486542,-0.6155049800872803
1761316209324271400,9.889271240234375,0.20761170983314514,-0.6033644080162048,-0.6655944585800171
1761316209343194000,9.908194091796876,0.3737621605396271,-0.82082599401474,-0.6454364657402039
1761316209362116900,9.927116943359374,0.42934927344322205,-0.5435013771057129,-0.4420243501663208
1761316209381039600,9.94603955078125,0.4134672284126282,-0.217308908700943,-0.2190650999546051
1761316209399962000,9.964962158203125,0.4110238552093506,0.04413371533155441,-0.17691664397716522
1761316209418884900,9.983884765625,0.3316137194633484,0.35444411635398865,-0.3510081171989441
1761316209437807600,10.0028076171875,0.37437301874160767,0.5780905485153198,-0.4670690894126892
1761316209456730400,10.02173046875,0.5002075433731079,0.3764346241950989,-0.3656684458255768
1761316209475652900,10.04065283203125,0.22288289666175842,0.284196674823761,-0.13232478499412537
1761316209494575600,10.05957568359375,0.05123481526970863,0.5994702577590942,0.08635853230953217
1761316209513498400,10.078498291015626,-0.1424037665128708,1.3208808898925781,-0.17386239767074585
1761316209532421000,10.097421142578124,-0.6658998727798462,1.7057145833969116,-0.39804333448410034
1761316209551343900,10.11634375,-1.2706387042999268,1.7118231058120728,-0.5354839563369751
1761316209570266400,10.135266357421875,-1.4624446630477905,1.702660322189331,-0.3784962296485901
1761316209589189000,10.154189208984375,-0.8406021595001221,0.6959841251373291,-0.22211933135986328
1761316209608111900,10.17311181640625,-0.02023431472480297,-0.004123218823224306,-0.2691545784473419
1761316209627034400,10.192034423828124,0.3468848764896393,0.5762580037117004,-0.1934095174074173
1761316209645957000,10.21095703125,0.14408360421657562,1.684945821762085,-0.04558447748422623
1761316209664879900,10.2298798828125,-0.1674485057592392,1.661733627319336,-0.06757497787475586
1761316209683802600,10.248802734375,-0.22670069336891174,0.8187643885612488,-0.26854372024536133
1761316209702725400,10.267725341796876,-0.2975589632987976,0.11438114941120148,-0.52571040391922
1761316209721647900,10.28664794921875,-0.37208232283592224,-0.16538690030574799,-0.7126296758651733
1761316209740570600,10.305570556640625,-0.3873535096645355,-0.21914145350456238,-0.7505022287368774
1761316209759493400,10.324493408203125,-0.3910185992717743,0.07101099193096161,-0.6460473537445068
1761316209778416000,10.343416015625,-0.3244362473487854,0.3067980408668518,-0.4536304473876953
1761316209797338600,10.362338623046876,-0.2682383060455322,0.5695387125015259,-0.30580541491508484
1761316209816261400,10.381261474609374,-0.26640576124191284,0.7711182832717896,-0.2044047713279724
1761316209835181000,10.40018115234375,-0.31771692633628845,0.7753942608833313,-0.15003935992717743
1761316209854103300,10.419103271484374,-0.4411080777645111,0.7436301708221436,-0.1915769726037979
1761316209873025800,10.43802587890625,-0.5327351689338684,0.6043570041656494,-0.2850365936756134
1761316209891948500,10.456948486328125,-0.5761052966117859,0.4521796703338623,-0.35589489340782166
1761316209910871300,10.475871337890625,-0.6005392074584961,0.4362976551055908,-0.36994436383247375
1761316209929794000,10.4947939453125,-0.6072585582733154,0.5536566972732544,-0.37116608023643494
1761316209948716800,10.513716796875,-0.6072585582733154,0.6190173625946045,-0.35955995321273804
1761316209967639300,10.532639404296875,-0.5779378414154053,0.5047125220298767,-0.35406234860420227
1761316209986562000,10.55156201171875,-0.5333459973335266,0.34283801913261414,-0.3760528564453125
1761316210005484800,10.57048486328125,-0.4527141749858856,0.2560977041721344,-0.4041518270969391
1761316210024407300,10.5894072265625,-0.34398335218429565,0.26220619678497314,-0.36872267723083496
1761316210043330000,10.608330078125,-0.27862271666526794,0.2829749882221222,-0.2581593096256256
1761316210062252800,10.627252685546875,-0.24319356679916382,0.24510246515274048,-0.14820681512355804
1761316210081175600,10.646175537109375,-0.19860170781612396,0.24449162185192108,-0.05841226875782013
1761316210100098300,10.665098388671876,-0.13201937079429626,0.35138988494873047,0.010002624243497849
1761316210119020800,10.684020751953126,-0.05444176122546196,0.388651579618454,0.09613208472728729
1761316210137943600,10.702943603515624,0.20700086653232574,0.3110739588737488,0.13644801080226898
1761316210156866300,10.7218662109375,0.5331932902336121,0.0594048947095871,0.14194563031196594
1761316210175788800,10.740788818359375,0.8593857288360596,-0.5648810267448425,0.159660205245018
1761316210194711600,10.759711669921876,0.9644514918327332,-0.7823426127433777,0.2934357523918152
1761316210213634300,10.77863427734375,0.9302440285682678,-0.6882721781730652,0.7986064553260803
1761316210232557000,10.79755712890625,0.805631160736084,-0.746913492679596,1.5842323303222656
1761316210251479800,10.816479736328125,0.7048413753509521,-0.6778877377510071,2.3508455753326416
1761316210270402300,10.83540234375,0.7390488386154175,-0.39078953862190247,2.7124671936035156
1761316210289325000,10.854324951171876,0.9791117906570435,-0.2680092453956604,2.7124671936035156
1761316210308247800,10.873247802734374,1.1160179376602173,-0.3315373361110687,2.5957953929901123
1761316210327170300,10.89217041015625,1.0304229259490967,-0.46164780855178833,2.311140537261963
1761316210346093000,10.911093017578125,0.9192487597465515,-0.3962871730327606,1.9641793966293335
1761316210365015800,10.930015869140625,0.963229775428772,-0.49524441361427307,1.6465387344360352
1761316210383938600,10.9489384765625,0.9931612610816956,-1.0566130876541138,1.206117868423462
1761316210402861300,10.967861328125,0.911918580532074,-1.449387788772583,0.6239041090011597
1761316210421783800,10.98678369140625,0.833730161190033,-1.3131688833236694,0.3080960810184479
1761316210440706600,11.00570654296875,0.8361735343933105,-1.3314943313598633,0.22318831086158752
1761316210459629300,11.02462939453125,0.8905389308929443,-1.399909257888794,0.159660205245018
1761316210478551800,11.0435517578125,0.8972582817077637,-1.4671024084091187,0.041766680777072906
1761316210497474600,11.062474609375,0.72683185338974,-1.399909257888794,-0.0761268362402916
1761316210516397300,11.081397216796875,0.4855472147464752,-1.4432793855667114,-0.3510081171989441
1761316210535320000,11.100320068359375,0.21738526225090027,-1.5165810585021973,-0.6839198470115662
1761316210554242600,11.11924267578125,0.02924431301653385,-1.3241641521453857,-0.8745042085647583
1761316210573165300,11.138165283203126,-0.09597937762737274,-0.9118422269821167,-0.8848885893821716
1761316210592088000,11.157088134765624,-0.2187596708536148,-0.35413870215415955,-0.7566106915473938
1761316210611010800,11.1760107421875,-0.35803285241127014,-0.011453386396169662,-0.6124507188796997
1761316210629933300,11.194933349609375,-0.42400434613227844,0.337340384721756,-0.5330405831336975
1761316210648856000,11.21385595703125,-0.4166741967201233,0.7314132452011108,-0.5580853223800659
1761316210667778800,11.23277880859375,-0.4038463830947876,0.7986064553260803,-0.674757182598114
1761316210686701600,11.25170166015625,-0.4007921516895294,0.30252209305763245,-0.9197068810462952
1761316210705624000,11.2706240234375,-0.3519243896007538,-0.3064926266670227,-1.1383901834487915
1761316210724546800,11.289546875,-0.10330954194068909,-0.5654918551445007,-1.1707651615142822
1761316210743469600,11.308469482421875,0.16301986575126648,-0.5288410186767578,-0.9600228071212769
1761316210762392300,11.327392333984376,0.3029038906097412,-0.323596328496933,-0.5067741274833679
1761316210781314800,11.346314697265624,0.34016555547714233,-0.0713164210319519,0.012446013279259205
1761316210800237600,11.365237548828125,0.45500484108924866,0.13209572434425354,0.2818296551704407
1761316210819160300,11.384160400390625,0.5814502239227295,0.27747735381126404,0.15538427233695984
1761316210838082800,11.403082763671875,0.8019660711288452,0.039857782423496246,-0.027869906276464462
1761316210857005600,11.422005615234376,0.8880955576896667,-0.476308137178421,0.01916533336043358
1761316210875928300,11.44092822265625,0.6846834421157837,-0.5593833923339844,0.32458895444869995
1761316210894851000,11.45985107421875,0.5002075433731079,-0.1525591015815735,0.4870743453502655
1761316210913773600,11.478773681640625,0.12697987258434296,0.023364907130599022,0.1981435865163803
1761316210932696300,11.4976962890625,-0.20837527513504028,0.06123743951320648,-0.42430979013442993
1761316210951619000,11.516619140625,-0.08987089991569519,0.3104631304740906,-0.8268581032752991
1761316210970541600,11.53554150390625,0.3988068997859955,0.4802786707878113,-0.757832407951355
1761316210989464300,11.55446435546875,0.6706339120864868,-0.20753535628318787,-0.3607816696166992
1761316211008387000,11.573386962890625,0.5228089094161987,-0.45798271894454956,-0.19890713691711426
1761316211027309600,11.5923095703125,0.1617981642484665,0.03924693539738655,-0.38338300585746765
1761316211046232300,11.611232421875,-0.004352286923676729,0.30130040645599365,-0.6069530844688416
1761316211065155000,11.630155029296875,0.06345175951719284,0.11560284346342087,-0.4065952003002167
1761316211084077800,11.649077880859375,0.13003410398960114,-0.07314895838499069,-0.08223531395196915
1761316211103000300,11.668000244140625,0.03229855000972748,-0.007788302376866341,-0.0877329409122467
1761316211121923000,11.686923095703126,-0.058717694133520126,-0.0859767496585846,-0.48661619424819946
1761316211140845800,11.705845703125,-0.11796987801790237,-0.22402822971343994,-0.8060893416404724
1761316211159768300,11.724768310546875,-0.14667969942092896,-0.20570281147956848,-0.776157796382904
1761316211178691000,11.743691162109375,-0.21570543944835663,-0.07864658534526825,-0.5043307542800903
1761316211197613800,11.76261376953125,-0.25418880581855774,0.12171131372451782,-0.2434989959001541
1761316211216536600,11.78153662109375,-0.2755684554576874,0.279920756816864,-0.13537901639938354
1761316211235459000,11.800458984375,-0.24869118630886078,0.23593975603580475,-0.17264071106910706
1761316211254381800,11.8193818359375,-0.20959696173667908,-0.012675080448389053,-0.2471640706062317
1761316211273304600,11.8383046875,-0.14790138602256775,-0.062153708189725876,-0.2196759432554245
1761316211292227000,11.85722705078125,-0.08681666851043701,0.09300149232149124,-0.07368344813585281
1761316211311149800,11.87614990234375,-0.09353598952293396,0.16080553829669952,0.0955212414264679
1761316211330072600,11.895072509765624,-0.13324105739593506,0.12904147803783417,0.2262425571680069
1761316211348995300,11.913995361328125,-0.15217731893062592,0.0856713280081749,0.35085538029670715
1761316211367917800,11.932917724609375,-0.14301460981369019,0.028251685202121735,0.5359421372413635
1761316211386840600,11.951840576171875,-0.14973393082618713,-0.06459710001945496,0.500512957572937
1761316211405763300,11.970763427734376,-0.0361163429915905,-0.10979979485273361,0.26961269974708557
1761316211424685800,11.989685791015624,0.17645850777626038,-0.024281177669763565,0.1346154659986496
1761316211443608600,12.008608642578125,0.030466007068753242,0.12720894813537598,0.1480541080236435
1761316211462531300,12.02753125,-0.11858072131872177,0.11377029865980148,0.211582213640213
1761316211481454000,12.0464541015625,-0.20837527513504028,0.09605573117733002,0.3197021782398224
1761316211500376600,12.06537646484375,-0.23891763389110565,0.09666658192873001,0.34902286529541016
1761316211519299300,12.08429931640625,-0.24013933539390564,0.11926792562007904,0.2909923493862152
1761316211538222000,12.10322216796875,-0.1802763044834137,0.12354385852813721,0.15294088423252106
1761316211557144600,12.12214453125,-0.14729054272174835,0.12965233623981476,0.07108735293149948
1761316211576067300,12.1410673828125,-0.15156647562980652,0.15775130689144135,0.1346154659986496
1761316211594990000,12.159989990234376,-0.18577392399311066,0.12354385852813721,0.12911784648895264
1761316211613912600,12.17891259765625,-0.2321983128786087,0.07711946964263916,0.05703786388039589
1761316211632835300,12.19783544921875,-0.22670069336891174,0.07589777559041977,0.02710634656250477
1761316211651758000,12.216758056640625,-0.21081866323947906,0.08383878320455551,0.017332790419459343
1761316211670680600,12.2356806640625,-0.20287764072418213,0.0984991192817688,0.009391776286065578
1761316211689603300,12.254603271484376,-0.18516308069229126,0.11560284346342087,0.0130568603053689
1761316211708526000,12.273526123046874,-0.17538951337337494,0.10888352245092392,0.0032833039294928312
1761316211727448600,12.292448486328125,-0.15645325183868408,0.09910997003316879,0.007559234742075205
1761316211746371300,12.311371337890625,-0.1277434378862381,0.08689302206039429,0.014278554357588291
1761316211765294000,12.330294189453125,-0.11002886295318604,0.0850604772567749,-0.029091600328683853
1761316211784216800,12.349216796875,-0.09597937762737274,0.09361234307289124,-0.04802786558866501
1761316211803139300,12.368139404296874,-0.09475768357515335,0.08994726091623306,-0.035200074315071106
1761316211822062000,12.38706201171875,-0.09353598952293396,0.0850604772567749,-0.0034360159188508987
1761316211840984800,12.40598486328125,-0.09231429547071457,0.08322793990373611,0.04665346071124077
1761316211859907300,12.4249072265625,-0.09475768357515335,0.11499200016260147,0.07047650218009949
1761316211878830000,12.443830078125,-0.08315158635377884,0.11377029865980148,0.06253548711538315
1761316211897752800,12.4627529296875,-0.053830914199352264,0.09116895496845245,0.0680331140756607
1761316211916675300,12.48167529296875,-0.035505495965480804,0.07711946964263916,0.0686439573764801
1761316211935598000,12.50059814453125,-0.023288551717996597,0.06490252166986465,0.06192464008927345
1761316211954520800,12.519520751953126,-0.00862821750342846,0.11377029865980148,0.17920731008052826
1761316211973443300,12.538443359375,0.004810422193259001,0.09422318637371063,0.15355172753334045
1761316211992366000,12.557365966796874,-0.009239064529538155,0.06062658876180649,0.057648710906505585
1761316212011288800,12.576288818359375,-0.015347537584602833,0.00259610079228878,-0.05230379477143288
1761316212030211300,12.59521142578125,0.0035887276753783226,-0.03649812191724777,-0.10666920244693756
1761316212049134000,12.614134033203126,-0.012293301522731781,-0.059710320085287094,-0.043141089379787445
