time,seconds_elapsed,z,y,x
1761402643016876800,0.122876708984375,9.773954391479492,0.06965630501508713,-0.04189852997660637
1761402643026974700,0.132974609375,9.786823272705078,0.0777367353439331,-0.0338929183781147
1761402643037043200,0.143043212890625,9.790938377380371,0.06404489278793335,-0.03853168338537216
1761402643047132700,0.153132568359375,9.784953117370605,0.07466916739940643,-0.0330699123442173
1761402643057208800,0.163208740234375,9.784953117370605,0.07496844232082367,-0.03321954980492592
1761402643067295700,0.173295654296875,9.785326957702637,0.06793547421693802,-0.028805239126086235
1761402643077376800,0.183376708984375,9.79063892364502,0.0727238729596138,-0.043020810931921005
1761402643087446300,0.1934462890625,9.786599159240723,0.06733692437410355,-0.04264671728014946
1761402643097539600,0.20353955078125,9.787496566772461,0.06815993040800095,-0.0347159244120121
1761402643107299600,0.213299560546875,9.78136157989502,0.06726210564374924,-0.031199440360069275
1761402643117383400,0.223383544921875,9.784428596496582,0.0769137293100357,-0.035164836794137955
1761402643127468000,0.233468017578125,9.792658805847168,0.06711246818304062,-0.0243909303098917
1761402643137865200,0.243865234375,9.797821998596191,0.07205050438642502,-0.0252139363437891
1761402643147947000,0.253947021484375,9.79176139831543,0.06965630501508713,-0.03711012750864029
1761402643158023700,0.264023681640625,9.796549797058105,0.07324761152267456,-0.0347159244120121
1761402643168105700,0.274105712890625,9.79295825958252,0.07085340470075607,-0.040701430290937424
1761402643178165000,0.2841650390625,9.786972999572754,0.07085340470075607,-0.04429273307323456
1761402643188246500,0.29424658203125,9.785850524902344,0.06965630501508713,-0.0347159244120121
1761402643198353000,0.304352783203125,9.795427322387695,0.07205050438642502,-0.0252139363437891
1761402643208434200,0.31443408203125,9.79415512084961,0.06965630501508713,-0.04429273307323456
1761402643218515700,0.324515625,9.78712272644043,0.06845920532941818,-0.0371849462389946
1761402643228597000,0.334596923828125,9.80029010772705,0.08050503581762314,-0.04077624902129173
1761402643238678500,0.344678466796875,9.794304847717285,0.07571662962436676,-0.038382045924663544
1761402643248755500,0.35475537109375,9.796699523925781,0.07212532311677933,-0.03479074314236641
1761402643258840600,0.364840576171875,9.7907133102417,0.07324761152267456,-0.03239654004573822
1761402643268921900,0.374921875,9.78951644897461,0.06845920532941818,-0.03239654004573822
1761402643279004000,0.38500390625,9.78831958770752,0.06254851818084717,-0.038382045924663544
1761402643289084400,0.39508447265625,9.777545928955078,0.0744447112083435,-0.043095629662275314
1761402643299166000,0.405166015625,9.786149978637695,0.07100304216146469,-0.04324526712298393
1761402643309252000,0.415252197265625,9.795726776123047,0.07698854804039001,-0.044442370533943176
1761402643319325200,0.4253251953125,9.783830642700195,0.06142623722553253,-0.031274259090423584
1761402643329419800,0.435419677734375,9.796923637390137,0.07579144835472107,-0.04092588648200035
1761402643339491300,0.4454912109375,9.788543701171875,0.07100304216146469,-0.044442370533943176
1761402643349572900,0.45557275390625,9.789741516113281,0.07339724898338318,-0.04324526712298393
1761402643359632100,0.465632080078125,9.789815902709961,0.07220014184713364,-0.03134907782077789
1761402643369735000,0.47573486328125,9.789815902709961,0.07818564772605896,-0.03725976496934891
1761402643379812900,0.485812744140625,9.795501708984375,0.06494271755218506,-0.0371849462389946
1761402643389897700,0.495897705078125,9.803881645202637,0.06733692437410355,-0.0396539643406868
1761402643399978800,0.505978759765625,9.793107986450195,0.06853402405977249,-0.03957914561033249
1761402643410060300,0.516060302734375,9.781136512756348,0.06486789882183075,-0.03711012750864029
1761402643420141600,0.5261416015625,9.78831958770752,0.06853402405977249,-0.04077624902129173
1761402643430222800,0.536222900390625,9.794304847717285,0.08282441645860672,-0.0371849462389946
1761402643440300000,0.546300048828125,9.793107986450195,0.07092822343111038,-0.03479074314236641
1761402643450385400,0.556385498046875,9.80029010772705,0.06733692437410355,-0.031274259090423584
1761402643460466700,0.566466796875,9.790339469909668,0.07317279279232025,-0.03935468941926956
1761402643470547700,0.576547607421875,9.790339469909668,0.07077858597040176,-0.040551792830228806
1761402643480629200,0.586629150390625,9.787945747375488,0.07070376724004745,-0.03217208385467529
1761402643490710300,0.596710205078125,9.787945747375488,0.07788637280464172,-0.03456628695130348
1761402643500791800,0.606791748046875,9.790339469909668,0.07788637280464172,-0.03576338663697243
1761402643510869200,0.616869140625,9.789142608642578,0.07309797406196594,-0.03935468941926956
1761402643520954600,0.62695458984375,9.787945747375488,0.07309797406196594,-0.03336918726563454
1761402643531036000,0.637035888671875,9.80223560333252,0.07556699216365814,-0.038232408463954926
1761402643541117000,0.647116943359375,9.786224365234375,0.08289923518896103,-0.0396539643406868
1761402643551173000,0.657173095703125,9.789815902709961,0.06501753628253937,-0.03494038060307503
1761402643561279700,0.66727978515625,9.796923637390137,0.06621464341878891,-0.04332008585333824
1761402643571335400,0.67733544921875,9.79101276397705,0.06741174310445786,-0.03733458369970322
1761402643581443000,0.687443115234375,9.789815902709961,0.07818564772605896,-0.03247135877609253
1761402643591523300,0.6975234375,9.78023910522461,0.07571662962436676,-0.0396539643406868
1761402643601604600,0.7076044921875,9.783830642700195,0.060229137539863586,-0.03725976496934891
1761402643611686100,0.71768603515625,9.785027503967285,0.0686088427901268,-0.0396539643406868
1761402643621767400,0.727767333984375,9.783531188964844,0.0744447112083435,-0.04189852997660637
1761402643631848700,0.7378486328125,9.782334327697754,0.07085340470075607,-0.043095629662275314
1761402643641926000,0.74792578125,9.7907133102417,0.06973112374544144,-0.03479074314236641
1761402643652011500,0.758011474609375,9.78831958770752,0.07564181089401245,-0.04077624902129173
1761402643662093300,0.76809326171875,9.78951644897461,0.07205050438642502,-0.0371849462389946
1761402643672174000,0.778174072265625,9.779939651489258,0.06845920532941818,-0.0347159244120121
1761402643682256000,0.788255859375,9.794304847717285,0.07092822343111038,-0.03957914561033249
1761402643692336400,0.79833642578125,9.7907133102417,0.07803601026535034,-0.03000234067440033
1761402643702413800,0.808413818359375,9.78248405456543,0.07451952993869781,-0.03239654004573822
1761402643712499500,0.81849951171875,9.800365447998047,0.07339724898338318,-0.04204816743731499
1761402643722580500,0.82858056640625,9.794454574584961,0.07332243025302887,-0.03007715940475464
1761402643732661500,0.83866162109375,9.796849250793457,0.0686088427901268,-0.03725976496934891
1761402643742743300,0.848743408203125,9.778892517089844,0.06853402405977249,-0.033593643456697464
1761402643752824000,0.858823974609375,9.792060852050781,0.0661398246884346,-0.04085106775164604
1761402643762909400,0.868909423828125,9.78487777709961,0.06733692437410355,-0.03007715940475464
1761402643772987100,0.878987060546875,9.787272453308105,0.06853402405977249,-0.038382045924663544
1761402643783068700,0.889068603515625,9.787945747375488,0.07077858597040176,-0.042945992201566696
1761402643793149700,0.899149658203125,9.784354209899902,0.07549217343330383,-0.03696049004793167
1761402643803230500,0.90923046875,9.792734146118164,0.06599018722772598,-0.0322469025850296
1761402643813316600,0.919316650390625,9.785551071166992,0.07309797406196594,-0.03336918726563454
1761402643823393500,0.9293935546875,9.785551071166992,0.07429507374763489,-0.03696049004793167
1761402643833470500,0.939470458984375,9.789142608642578,0.07309797406196594,-0.03935468941926956
1761402643843556000,0.94955615234375,9.796324729919434,0.06958148628473282,-0.0322469025850296
1761402643853637000,0.95963720703125,9.793931007385254,0.07796119153499603,-0.03464110568165779
1761402643863718400,0.969718505859375,9.806276321411133,0.07571662962436676,-0.03725976496934891
1761402643873800000,0.979800048828125,9.779939651489258,0.07564181089401245,-0.038307227194309235
1761402643883889000,0.989888916015625,9.795501708984375,0.06494271755218506,-0.033593643456697464
1761402643893958700,0.999958740234375,9.783531188964844,0.06965630501508713,-0.038307227194309235
1761402643904043300,1.010043212890625,9.796699523925781,0.06733692437410355,-0.04436755180358887
1761402643914085000,1.020085205078125,9.78712272644043,0.07085340470075607,-0.038382045924663544
1761402643924206300,1.030206298828125,9.783531188964844,0.08043020963668823,-0.03711012750864029
1761402643934288100,1.0402880859375,9.78951644897461,0.07324761152267456,-0.038382045924663544
1761402643944369200,1.050369140625,9.787272453308105,0.06374561786651611,-0.04556465148925781
1761402643954450400,1.060450439453125,9.798046112060547,0.07332243025302887,-0.03247135877609253
1761402643964510000,1.070510009765625,9.78368091583252,0.07092822343111038,-0.03000234067440033
1761402643974612700,1.08061279296875,9.790863037109375,0.07092822343111038,-0.03366846218705177
1761402643984694800,1.09069482421875,9.79565143585205,0.0686088427901268,-0.03725976496934891
1761402643994754600,1.100754638671875,9.790863037109375,0.0793079286813736,-0.03366846218705177
1761402644004856800,1.11085693359375,9.790863037109375,0.06733692437410355,-0.031274259090423584
1761402644014914000,1.1209140625,9.78368091583252,0.07092822343111038,-0.038382045924663544
1761402644025020000,1.13102001953125,9.789666175842285,0.06494271755218506,-0.028880057856440544
1761402644035075300,1.141075439453125,9.789666175842285,0.07571662962436676,-0.031274259090423584
1761402644045182000,1.151181884765625,9.790788650512695,0.06494271755218506,-0.044442370533943176
1761402644055263500,1.161263427734375,9.801637649536133,0.06980594247579575,-0.03845686465501785
1761402644065319700,1.171319580078125,9.790863037109375,0.06254851818084717,-0.0396539643406868
1761402644075420400,1.18142041015625,9.792060852050781,0.0661398246884346,-0.031274259090423584
1761402644085482500,1.191482421875,9.780089378356934,0.06733692437410355,-0.03000234067440033
1761402644095588900,1.2015888671875,9.792060852050781,0.0661398246884346,-0.036062661558389664
1761402644105628700,1.211628662109375,9.7907133102417,0.07205050438642502,-0.031199440360069275
1761402644115751000,1.2217509765625,9.7907133102417,0.0768389105796814,-0.038382045924663544
1761402644125832400,1.23183251953125,9.781136512756348,0.06845920532941818,-0.043095629662275314
1761402644135913500,1.24191357421875,9.80029010772705,0.07571662962436676,-0.04077624902129173
1761402644145994800,1.251994873046875,9.799093246459961,0.06853402405977249,-0.04317044839262962
1761402644156077300,1.262077392578125,9.793107986450195,0.06853402405977249,-0.04317044839262962
1761402644166157300,1.2721572265625,9.794304847717285,0.07212532311677933,-0.03000234067440033
1761402644176238600,1.282238525390625,9.78951644897461,0.06733692437410355,-0.0371849462389946
1761402644186320000,1.29231982421875,9.79176139831543,0.07803601026535034,-0.0347159244120121
1761402644196401200,1.302401123046875,9.789366722106934,0.06845920532941818,-0.03950432687997818
1761402644206482700,1.312482666015625,9.798943519592285,0.0744447112083435,-0.03950432687997818
1761402644216576000,1.322575927734375,9.79295825958252,0.06726210564374924,-0.038307227194309235
1761402644226645200,1.332645263671875,9.783456802368164,0.07077858597040176,-0.033518824726343155
1761402644236726300,1.342726318359375,9.786972999572754,0.07205050438642502,-0.038307227194309235
1761402644246807800,1.352807861328125,9.79295825958252,0.0744447112083435,-0.043095629662275314
1761402644256889000,1.36288916015625,9.795352935791016,0.07324761152267456,-0.0347159244120121
1761402644266970600,1.372970703125,9.790040016174316,0.06628946214914322,-0.04100070521235466
1761402644277051600,1.3830517578125,9.782857894897461,0.06150105595588684,-0.039803601801395416
1761402644287133400,1.393133544921875,9.78405475616455,0.07466916739940643,-0.03621229901909828
1761402644297214200,1.403214111328125,9.778143882751465,0.07818564772605896,-0.03733458369970322
1761402644307295700,1.413295654296875,9.790115356445312,0.07227496057748795,-0.027832595631480217
1761402644317377000,1.423376953125,9.797223091125488,0.07115267962217331,-0.039803601801395416
1761402644327458300,1.433458251953125,9.804330825805664,0.06157587468624115,-0.04825812950730324
1761402644337539300,1.443539306640625,9.796026229858398,0.06748656183481216,-0.0338929183781147
1761402644347615500,1.453615478515625,9.788469314575195,0.06853402405977249,-0.04197334870696068
1761402644357702400,1.463702392578125,9.787272453308105,0.06973112374544144,-0.04197334870696068
1761402644367783400,1.473783447265625,9.801637649536133,0.07339724898338318,-0.03007715940475464
1761402644377839000,1.483839111328125,9.796849250793457,0.07451952993869781,-0.036062661558389664
1761402644387946500,1.493946533203125,9.799242973327637,0.07100304216146469,-0.03007715940475464
1761402644398023200,1.504023193359375,9.7860746383667,0.07451952993869781,-0.038382045924663544
1761402644408104400,1.5141044921875,9.777695655822754,0.06973112374544144,-0.04077624902129173
1761402644418187800,1.524187744140625,9.798046112060547,0.07100304216146469,-0.03845686465501785
1761402644428270800,1.534270751953125,9.78831958770752,0.07324761152267456,-0.04077624902129173
1761402644438352100,1.54435205078125,9.795501708984375,0.0769137293100357,-0.035987842828035355
1761402644448433400,1.554433349609375,9.791911125183105,0.07212532311677933,-0.038382045924663544
1761402644458515000,1.564514892578125,9.796699523925781,0.07092822343111038,-0.04317044839262962
1761402644468593000,1.574593017578125,9.801487922668457,0.06973112374544144,-0.04317044839262962
1761402644478678000,1.584677978515625,9.795501708984375,0.06853402405977249,-0.0371849462389946
1761402644488759300,1.59475927734375,9.791911125183105,0.07092822343111038,-0.0371849462389946
1761402644498840600,1.604840576171875,9.782334327697754,0.07085340470075607,-0.0347159244120121
1761402644508907000,1.614906982421875,9.790863037109375,0.08170213550329208,-0.03725976496934891
1761402644519002600,1.625002685546875,9.792060852050781,0.0793079286813736,-0.03725976496934891
1761402644529080300,1.635080322265625,9.7860746383667,0.06733692437410355,-0.03479074314236641
1761402644539166000,1.645166015625,9.787272453308105,0.08170213550329208,-0.033593643456697464
1761402644549246700,1.655246826171875,9.788469314575195,0.06494271755218506,-0.03486556187272072
1761402644559328300,1.665328369140625,9.78248405456543,0.07571662962436676,-0.04436755180358887
1761402644569409000,1.675408935546875,9.781286239624023,0.07092822343111038,-0.035987842828035355
1761402644579484400,1.685484375,9.794454574584961,0.07571662962436676,-0.04085106775164604
1761402644589571800,1.69557177734375,9.796699523925781,0.06973112374544144,-0.04077624902129173
1761402644599619300,1.705619384765625,9.78951644897461,0.0744447112083435,-0.033593643456697464
1761402644609734400,1.715734375,9.78712272644043,0.06726210564374924,-0.0371849462389946
1761402644619815700,1.725815673828125,9.779939651489258,0.07205050438642502,-0.0347159244120121
1761402644629897200,1.735897216796875,9.784728050231934,0.06845920532941818,-0.040701430290937424
1761402644639978500,1.745978515625,9.793107986450195,0.06733692437410355,-0.0371849462389946
1761402644650049300,1.75604931640625,9.793107986450195,0.07092822343111038,-0.04197334870696068
1761402644670222300,1.776222412109375,9.785027503967285,0.06621464341878891,-0.04204816743731499
1761402644680266200,1.786266357421875,9.79101276397705,0.07579144835472107,-0.03486556187272072
1761402644690385200,1.79638525390625,9.788619041442871,0.0686088427901268,-0.04085106775164604
1761402644700466200,1.806466064453125,9.792210578918457,0.07818564772605896,-0.03374328091740608
1761402644710547200,1.816547119140625,9.789815902709961,0.0686088427901268,-0.03254617750644684
1761402644720625000,1.826625,9.79101276397705,0.07698854804039001,-0.03486556187272072
1761402644730685000,1.836684814453125,9.788619041442871,0.07339724898338318,-0.03725976496934891
1761402644740791600,1.84679150390625,9.793407440185547,0.06621464341878891,-0.028954876586794853
1761402644750855700,1.856855712890625,9.788619041442871,0.06501753628253937,-0.0396539643406868
1761402644760954000,1.8669541015625,9.789815902709961,0.07220014184713364,-0.0396539643406868
1761402644771035100,1.87703515625,9.787422180175781,0.0686088427901268,-0.03725976496934891
1761402644781102300,1.887102294921875,9.795801162719727,0.0793827474117279,-0.03853168338537216
1761402644791193900,1.89719384765625,9.795726776123047,0.06262333691120148,-0.03972878307104111
1761402644801256200,1.907256103515625,9.794529914855957,0.06501753628253937,-0.03853168338537216
1761402644811360300,1.9173603515625,9.787346839904785,0.07339724898338318,-0.04324526712298393
1761402644821441500,1.927441650390625,9.795801162719727,0.07459434866905212,-0.03374328091740608
1761402644831524400,1.9375244140625,9.78487777709961,0.07092822343111038,-0.04197334870696068
1761402644841580500,1.94758056640625,9.7860746383667,0.07571662962436676,-0.02768295630812645
1761402644851659500,1.957659423828125,9.79797077178955,0.06262333691120148,-0.04204816743731499
1761402644861767200,1.96776708984375,9.78487777709961,0.06973112374544144,-0.0371849462389946
1761402644871848000,1.977847900390625,9.78368091583252,0.06853402405977249,-0.038382045924663544
1761402644881903900,1.98790380859375,9.793257713317871,0.08289923518896103,-0.0396539643406868
1761402644891985400,1.9979853515625,9.7860746383667,0.06135141849517822,-0.03007715940475464
1761402644902066700,2.008066650390625,9.794454574584961,0.06973112374544144,-0.04085106775164604
1761402644912172800,2.0181728515625,9.795801162719727,0.08297405391931534,-0.03972878307104111
1761402644922250200,2.028250244140625,9.795801162719727,0.07220014184713364,-0.03733458369970322
1761402644932335600,2.038335693359375,9.7814359664917,0.07811082899570465,-0.04085106775164604
1761402644942417200,2.048417236328125,9.790938377380371,0.07339724898338318,-0.04204816743731499
1761402644952503300,2.05850341796875,9.786224365234375,0.07579144835472107,-0.04204816743731499
1761402644962554600,2.0685546875,9.793407440185547,0.08057985454797745,-0.03613748028874397
1761402644972635600,2.0786357421875,9.788619041442871,0.07339724898338318,-0.036062661558389664
1761402644982739200,2.0887392578125,9.77784538269043,0.06733692437410355,-0.03725976496934891
1761402644992798500,2.098798583984375,9.788469314575195,0.07092822343111038,-0.03366846218705177
1761402645002904800,2.10890478515625,9.792060852050781,0.0769137293100357,-0.04556465148925781
1761402645012986000,2.118986083984375,9.787272453308105,0.07811082899570465,-0.038382045924663544
1761402645023085000,2.1290849609375,9.79565143585205,0.07571662962436676,-0.03247135877609253
1761402645033123000,2.139123046875,9.789666175842285,0.06973112374544144,-0.04085106775164604
1761402645043204400,2.149204345703125,9.793257713317871,0.06494271755218506,-0.03725976496934891
1761402645053311500,2.1593115234375,9.793257713317871,0.0769137293100357,-0.03247135877609253
1761402645063392500,2.169392578125,9.788469314575195,0.07451952993869781,-0.038382045924663544
1761402645073429200,2.17942919921875,9.794529914855957,0.07818564772605896,-0.049230773001909256
1761402645083555800,2.189555908203125,9.789741516113281,0.07579144835472107,-0.04324526712298393
1761402645093636400,2.19963623046875,9.787422180175781,0.0769137293100357,-0.031274259090423584
1761402645103718000,2.2097177734375,9.788619041442871,0.07698854804039001,-0.04204816743731499
1761402645113795300,2.21979541015625,9.78023910522461,0.07212532311677933,-0.03845686465501785
1761402645123880400,2.22988037109375,9.7814359664917,0.05663783475756645,-0.03845686465501785
1761402645133961700,2.239961669921875,9.788543701171875,0.06980594247579575,-0.04324526712298393
1761402645144017700,2.250017578125,9.792210578918457,0.07220014184713364,-0.0396539643406868
1761402645154079700,2.260079833984375,9.7907133102417,0.07324761152267456,-0.035987842828035355
1761402645164182300,2.270182373046875,9.790788650512695,0.07085340470075607,-0.026411037892103195
1761402645174283500,2.280283447265625,9.80029010772705,0.06494271755218506,-0.038382045924663544
1761402645184368000,2.2903681640625,9.7907133102417,0.0744447112083435,-0.033593643456697464
1761402645194449400,2.300449462890625,9.78951644897461,0.0661398246884346,-0.04077624902129173
1761402645204530700,2.31053076171875,9.803881645202637,0.07451952993869781,-0.036062661558389664
1761402645214628000,2.320628173828125,9.784728050231934,0.07085340470075607,-0.033593643456697464
1761402645224647700,2.330647705078125,9.78831958770752,0.07205050438642502,-0.031199440360069275
1761402645234749400,2.34074951171875,9.784728050231934,0.0768389105796814,-0.03711012750864029
1761402645244853000,2.35085302734375,9.78831958770752,0.0661398246884346,-0.03957914561033249
1761402645254937300,2.360937255859375,9.794304847717285,0.07092822343111038,-0.038382045924663544
1761402645265040400,2.371040283203125,9.78951644897461,0.0744447112083435,-0.035987842828035355
1761402645275076600,2.38107666015625,9.796699523925781,0.0769137293100357,-0.033593643456697464
1761402645285197800,2.39119775390625,9.78951644897461,0.0744447112083435,-0.038382045924663544
1761402645295262500,2.401262451171875,9.785924911499023,0.07324761152267456,-0.040701430290937424
1761402645305344000,2.411343994140625,9.78951644897461,0.06973112374544144,-0.038382045924663544
1761402645315425000,2.421425048828125,9.778892517089844,0.06853402405977249,-0.047958854585886
1761402645325506300,2.43150634765625,9.791985511779785,0.06973112374544144,-0.04563947021961212
1761402645335568000,2.44156787109375,9.7860746383667,0.06973112374544144,-0.03007715940475464
1761402645345665000,2.4516650390625,9.78487777709961,0.07571662962436676,-0.03479074314236641
1761402645355725000,2.46172509765625,9.792060852050781,0.06853402405977249,-0.03725976496934891
1761402645365832200,2.471832275390625,9.792060852050781,0.06973112374544144,-0.03845686465501785
1761402645375887400,2.481887451171875,9.78248405456543,0.07212532311677933,-0.0371849462389946
1761402645385994800,2.491994873046875,9.79565143585205,0.07212532311677933,-0.03247135877609253
1761402645396075800,2.50207568359375,9.791088104248047,0.07220014184713364,-0.03972878307104111
1761402645406134500,2.512134521484375,9.780388832092285,0.06621464341878891,-0.03613748028874397
1761402645416198100,2.5221982421875,9.787496566772461,0.06741174310445786,-0.042122986167669296
1761402645426293800,2.532293701171875,9.792359352111816,0.06988076120615005,-0.030226796865463257
1761402645436401200,2.542401123046875,9.78637409210205,0.07818564772605896,-0.03613748028874397
1761402645446482400,2.552482421875,9.801861763000488,0.06748656183481216,-0.037409402430057526
1761402645456537300,2.562537353515625,9.78637409210205,0.07100304216146469,-0.03494038060307503
1761402645466633700,2.5726337890625,9.798270225524902,0.07347206771373749,-0.03621229901909828
1761402645476700400,2.582700439453125,9.795801162719727,0.07220014184713364,-0.03134907782077789
1761402645486807600,2.5928076171875,9.799318313598633,0.06389525532722473,-0.042122986167669296
1761402645496888600,2.602888671875,9.787422180175781,0.07220014184713364,-0.03486556187272072
1761402645506969300,2.61296923828125,9.795726776123047,0.06741174310445786,-0.04571428894996643
1761402645517050600,2.623050537109375,9.793407440185547,0.08057985454797745,-0.03494038060307503
1761402645527106600,2.6331064453125,9.79101276397705,0.07339724898338318,-0.04085106775164604
1761402645537176000,2.643176025390625,9.794604301452637,0.07459434866905212,-0.03374328091740608
1761402645547269600,2.65326953125,9.789815902709961,0.06980594247579575,-0.04085106775164604
1761402645557376300,2.663376220703125,9.78248405456543,0.07571662962436676,-0.0371849462389946
1761402645567432200,2.67343212890625,9.787272453308105,0.07451952993869781,-0.035987842828035355
1761402645577539000,2.6835390625,9.78487777709961,0.07092822343111038,-0.031199440360069275
1761402645587620000,2.6936201171875,9.78487777709961,0.07212532311677933,-0.04317044839262962
1761402645597676000,2.703676025390625,9.788469314575195,0.06853402405977249,-0.03247135877609253
1761402645607752000,2.713751953125,9.78368091583252,0.07811082899570465,-0.04197334870696068
1761402645617863700,2.72386376953125,9.78248405456543,0.07092822343111038,-0.04197334870696068
1761402645627946000,2.733946044921875,9.793257713317871,0.07332243025302887,-0.036062661558389664
1761402645638022700,2.744022705078125,9.79176139831543,0.07205050438642502,-0.04429273307323456
1761402645648082200,2.754082275390625,9.788169860839844,0.0744447112083435,-0.043095629662275314
1761402645658189000,2.76418896484375,9.796624183654785,0.07564181089401245,-0.02992752194404602
1761402645668247000,2.7742470703125,9.79183578491211,0.07205050438642502,-0.02753331884741783
1761402645678326500,2.784326416015625,9.796549797058105,0.06845920532941818,-0.03950432687997818
1761402645688432600,2.7944326171875,9.785776138305664,0.07324761152267456,-0.03711012750864029
1761402645698514000,2.804513916015625,9.783381462097168,0.06606500595808029,-0.03950432687997818
1761402645708595500,2.814595458984375,9.79176139831543,0.06965630501508713,-0.03232172131538391
1761402645718651100,2.824651123046875,9.78831958770752,0.06494271755218506,-0.03957914561033249
1761402645728729300,2.834729248046875,9.794304847717285,0.07923310995101929,-0.03000234067440033
1761402645738815200,2.844815185546875,9.794304847717285,0.06973112374544144,-0.03479074314236641
1761402645748916500,2.85491650390625,9.78831958770752,0.06965630501508713,-0.0371849462389946
1761402645758976500,2.8649765625,9.794304847717285,0.07332243025302887,-0.03479074314236641
1761402645769083100,2.875083251953125,9.791911125183105,0.06853402405977249,-0.038382045924663544
1761402645779165000,2.8851650390625,9.802684783935547,0.06374561786651611,-0.04085106775164604
1761402645789220600,2.895220703125,9.7907133102417,0.06853402405977249,-0.03479074314236641
1761402645799309800,2.905309814453125,9.792734146118164,0.06995557993650436,-0.032770637422800064
1761402645809382700,2.915382568359375,9.792734146118164,0.07122749835252762,-0.0363619364798069
1761402645819489800,2.92548974609375,9.785551071166992,0.06756138056516647,-0.03628711774945259
1761402645829571000,2.935571044921875,9.80223560333252,0.07242459803819656,-0.042347442358732224
1761402645839620600,2.94562060546875,9.796250343322754,0.07122749835252762,-0.042347442358732224
1761402645849701000,2.955701171875,9.786747932434082,0.07234977930784225,-0.030376434326171875
1761402645859795000,2.965794921875,9.791461944580078,0.07234977930784225,-0.04354454204440117
1761402645869870800,2.975870849609375,9.784354209899902,0.07833528518676758,-0.03868132084608078
1761402645879974000,2.985973876953125,9.78487777709961,0.07571662962436676,-0.035987842828035355
1761402645890058800,2.996058837890625,9.790863037109375,0.07571662962436676,-0.04317044839262962
1761402645900139800,3.006139892578125,9.790863037109375,0.07092822343111038,-0.03247135877609253
1761402645910221300,3.01622119140625,9.793257713317871,0.06973112374544144,-0.03366846218705177
1761402645920302600,3.026302490234375,9.788469314575195,0.07811082899570465,-0.0371849462389946
1761402645930384400,3.03638427734375,9.802834510803223,0.07579144835472107,-0.03725976496934891
1761402645940461000,3.0464609375,9.781286239624023,0.07803601026535034,-0.04077624902129173
1761402645950546200,3.056546142578125,9.796849250793457,0.07451952993869781,-0.04204816743731499
1761402645960627500,3.06662744140625,9.794529914855957,0.07220014184713364,-0.044442370533943176
1761402645970709000,3.076708984375,9.783830642700195,0.06973112374544144,-0.03247135877609253
1761402645980790300,3.086790283203125,9.783830642700195,0.0793079286813736,-0.03247135877609253
1761402645990871300,3.096871337890625,9.793407440185547,0.06980594247579575,-0.03494038060307503
1761402646000948700,3.10694873046875,9.79101276397705,0.07100304216146469,-0.03845686465501785
1761402646011034000,3.1170341796875,9.794604301452637,0.06501753628253937,-0.03494038060307503
1761402646021115600,3.12711572265625,9.795726776123047,0.07100304216146469,-0.04332008585333824
1761402646031196700,3.13719677734375,9.785027503967285,0.0769137293100357,-0.03725976496934891
1761402646041278000,3.14727783203125,9.78951644897461,0.06494271755218506,-0.04197334870696068
1761402646051359500,3.157359375,9.7907133102417,0.06973112374544144,-0.04077624902129173
1761402646061440500,3.1674404296875,9.78951644897461,0.07092822343111038,-0.04197334870696068
1761402646071518000,3.17751806640625,9.7907133102417,0.07332243025302887,-0.04317044839262962
1761402646081603000,3.18760302734375,9.78951644897461,0.07332243025302887,-0.04556465148925781
1761402646091684000,3.19768408203125,9.794304847717285,0.07811082899570465,-0.04317044839262962
1761402646101765600,3.207765625,9.795501708984375,0.07332243025302887,-0.038382045924663544
1761402646111847000,3.217846923828125,9.78712272644043,0.06726210564374924,-0.03000234067440033
1761402646121928400,3.227928466796875,9.780089378356934,0.07451952993869781,-0.03957914561033249
1761402646132006700,3.238006591796875,9.793257713317871,0.07092822343111038,-0.04085106775164604
1761402646142090800,3.2480908203125,9.793257713317871,0.07332243025302887,-0.026485856622457504
1761402646152172300,3.25817236328125,9.796849250793457,0.07332243025302887,-0.03725976496934891
1761402646162253600,3.268253662109375,9.794454574584961,0.06973112374544144,-0.03247135877609253
1761402646172334800,3.2783349609375,9.788469314575195,0.07451952993869781,-0.04197334870696068
1761402646182417000,3.2884169921875,9.789666175842285,0.07571662962436676,-0.04197334870696068
1761402646192471800,3.298471923828125,9.790863037109375,0.07571662962436676,-0.04077624902129173
1761402646202553600,3.3085537109375,9.793257713317871,0.07332243025302887,-0.031274259090423584
1761402646212634400,3.31863427734375,9.801637649536133,0.07579144835472107,-0.036062661558389664
1761402646222708200,3.328708251953125,9.790863037109375,0.07811082899570465,-0.04197334870696068
1761402646232799500,3.338799560546875,9.7860746383667,0.06494271755218506,-0.03479074314236641
1761402646242887400,3.348887451171875,9.788469314575195,0.06853402405977249,-0.03486556187272072
1761402646252948200,3.3589482421875,9.796849250793457,0.06980594247579575,-0.03366846218705177
1761402646263066600,3.369066650390625,9.78248405456543,0.06733692437410355,-0.035987842828035355
1761402646273147600,3.379147705078125,9.792060852050781,0.06973112374544144,-0.04204816743731499
1761402646283229400,3.3892294921875,9.788469314575195,0.06733692437410355,-0.031274259090423584
1761402646293310200,3.399310302734375,9.788469314575195,0.06973112374544144,-0.04197334870696068
1761402646303411200,3.4094111328125,9.78368091583252,0.07451952993869781,-0.033593643456697464
1761402646313473000,3.41947314453125,9.792060852050781,0.07811082899570465,-0.03725976496934891
1761402646323550700,3.42955078125,9.7860746383667,0.06015431880950928,-0.03957914561033249
1761402646333635800,3.4396357421875,9.787272453308105,0.0661398246884346,-0.03957914561033249
1761402646343716400,3.44971630859375,9.799242973327637,0.07698854804039001,-0.0396539643406868
1761402646353797600,3.459797607421875,9.787272453308105,0.0769137293100357,-0.0371849462389946
1761402646363879200,3.469879150390625,9.79295825958252,0.07205050438642502,-0.040701430290937424
1761402646373960400,3.47996044921875,9.79415512084961,0.0768389105796814,-0.04189852997660637
1761402646384042000,3.4900419921875,9.788169860839844,0.0636707991361618,-0.035913024097681046
1761402646394119000,3.500118896484375,9.781062126159668,0.08035539090633392,-0.03942950814962387
1761402646404204300,3.510204345703125,9.797746658325195,0.07324761152267456,-0.0454898327589035
1761402646414285300,3.520285400390625,9.801338195800781,0.07324761152267456,-0.02760813757777214
1761402646424366800,3.530366943359375,9.795352935791016,0.06965630501508713,-0.03232172131538391
1761402646434448400,3.540448486328125,9.784578323364258,0.07324761152267456,-0.040701430290937424
1761402646444529700,3.55052978515625,9.798943519592285,0.06965630501508713,-0.0371849462389946
1761402646454611500,3.560611572265625,9.79183578491211,0.06845920532941818,-0.02513911761343479
1761402646464692200,3.570692138671875,9.78824520111084,0.07564181089401245,-0.033518824726343155
1761402646474773200,3.580773193359375,9.79063892364502,0.0768389105796814,-0.033518824726343155
1761402646484854800,3.590854736328125,9.783381462097168,0.06726210564374924,-0.04421791434288025
1761402646494935600,3.600935546875,9.79295825958252,0.06845920532941818,-0.040701430290937424
1761402646505017300,3.611017333984375,9.787047386169434,0.06965630501508713,-0.033518824726343155
1761402646515098400,3.621098388671875,9.79415512084961,0.07324761152267456,-0.0454898327589035
1761402646525180200,3.63118017578125,9.79056453704834,0.07085340470075607,-0.03950432687997818
1761402646535261000,3.641260986328125,9.78944206237793,0.07324761152267456,-0.031124621629714966
1761402646545342200,3.65134228515625,9.79176139831543,0.06606500595808029,-0.038307227194309235
1761402646555423700,3.661423828125,9.802535057067871,0.06494271755218506,-0.038382045924663544
1761402646565505000,3.671505126953125,9.785776138305664,0.07324761152267456,-0.045415014028549194
1761402646575586600,3.681586669921875,9.797746658325195,0.07803601026535034,-0.0347159244120121
1761402646585667800,3.691667724609375,9.788169860839844,0.0768389105796814,-0.03950432687997818
1761402646595748600,3.70174853515625,9.79415512084961,0.06726210564374924,-0.03711012750864029
1761402646605830000,3.711829833984375,9.78831958770752,0.07324761152267456,-0.0371849462389946
1761402646615911400,3.721911376953125,9.78600025177002,0.07085340470075607,-0.03000234067440033
1761402646625994000,3.731993896484375,9.794304847717285,0.06973112374544144,-0.033593643456697464
1761402646636074000,3.742073974609375,9.794304847717285,0.06853402405977249,-0.031199440360069275
1761402646646156000,3.752156005859375,9.78831958770752,0.0744447112083435,-0.04197334870696068
1761402646656237000,3.762237060546875,9.78831958770752,0.06733692437410355,-0.0371849462389946
1761402646666318300,3.772318359375,9.78951644897461,0.07803601026535034,-0.038382045924663544
1761402646676399600,3.782399658203125,9.785924911499023,0.0744447112083435,-0.0454898327589035
1761402646686480600,3.792480712890625,9.78712272644043,0.07085340470075607,-0.0371849462389946
1761402646696561700,3.802561767578125,9.777545928955078,0.07085340470075607,-0.047884032130241394
1761402646706643000,3.812642822265625,9.785924911499023,0.06965630501508713,-0.035987842828035355
1761402646716724700,3.822724853515625,9.794304847717285,0.06973112374544144,-0.04197334870696068
1761402646726805200,3.83280517578125,9.795501708984375,0.06853402405977249,-0.038382045924663544
1761402646736886800,3.84288671875,9.794304847717285,0.07092822343111038,-0.03479074314236641
1761402646746968300,3.85296826171875,9.791911125183105,0.0768389105796814,-0.04077624902129173
1761402646757036000,3.8630361328125,9.7907133102417,0.0661398246884346,-0.04077624902129173
1761402646767131000,3.873130859375,9.791911125183105,0.07324761152267456,-0.028805239126086235
1761402646777212400,3.88321240234375,9.797896385192871,0.07571662962436676,-0.03957914561033249
1761402646787293400,3.89329345703125,9.795501708984375,0.0661398246884346,-0.04317044839262962
1761402646797374700,3.903374755859375,9.794304847717285,0.0661398246884346,-0.038382045924663544
1761402646807455700,3.913455810546875,9.784728050231934,0.0744447112083435,-0.04189852997660637
1761402646817537800,3.923537841796875,9.793107986450195,0.0768389105796814,-0.031199440360069275
1761402646827618300,3.933618408203125,9.796699523925781,0.06733692437410355,-0.03000234067440033
1761402646837699800,3.943699951171875,9.7907133102417,0.06733692437410355,-0.038382045924663544
1761402646847780600,3.953780517578125,9.79333209991455,0.07100304216146469,-0.04324526712298393
1761402646857862400,3.9638623046875,9.789815902709961,0.0793827474117279,-0.03845686465501785
1761402646867944200,3.973944091796875,9.794604301452637,0.08297405391931534,-0.03374328091740608
1761402646878007600,3.984007568359375,9.79101276397705,0.06741174310445786,-0.03845686465501785
1761402646888102400,3.994102294921875,9.79101276397705,0.07220014184713364,-0.03374328091740608
1761402646898184200,4.00418408203125,9.796923637390137,0.06980594247579575,-0.03853168338537216
1761402646908268800,4.014268798828125,9.795801162719727,0.0686088427901268,-0.03494038060307503
1761402646918349800,4.024349853515625,9.785027503967285,0.07451952993869781,-0.036062661558389664
1761402646928431400,4.034431396484375,9.7767972946167,0.08170213550329208,-0.03725976496934891
1761402646938512600,4.0445126953125,9.785177230834961,0.07100304216146469,-0.03613748028874397
1761402646948594000,4.054593994140625,9.792284965515137,0.07818564772605896,-0.03972878307104111
1761402646958671600,4.064671630859375,9.779191970825195,0.07698854804039001,-0.0396539643406868
1761402646968756200,4.074756103515625,9.78869342803955,0.06980594247579575,-0.03972878307104111
1761402646978838500,4.084838623046875,9.797147750854492,0.07347206771373749,-0.030226796865463257
1761402646988919300,4.094919189453125,9.783980369567871,0.07459434866905212,-0.03853168338537216
1761402646999000300,4.105000244140625,9.785101890563965,0.07339724898338318,-0.04092588648200035
1761402647009081900,4.115081787109375,9.78757095336914,0.07698854804039001,-0.03613748028874397
1761402647019163100,4.1251630859375,9.797073364257812,0.07347206771373749,-0.03621229901909828
1761402647029240000,4.135239990234375,9.788768768310547,0.06980594247579575,-0.03613748028874397
1761402647039325400,4.145325439453125,9.78757095336914,0.07698854804039001,-0.03494038060307503
1761402647049407200,4.1554072265625,9.792359352111816,0.07339724898338318,-0.03374328091740608
1761402647059488300,4.16548828125,9.794678688049316,0.07347206771373749,-0.04092588648200035
1761402647069569800,4.17556982421875,9.793481826782227,0.07347206771373749,-0.03494038060307503
1761402647079651300,4.1856513671875,9.798270225524902,0.07347206771373749,-0.049305591732263565
1761402647089728300,4.195728271484375,9.789815902709961,0.07100304216146469,-0.03845686465501785
1761402647099813400,4.2058134765625,9.788619041442871,0.08170213550329208,-0.03845686465501785
1761402647109894400,4.215894287109375,9.794604301452637,0.07459434866905212,-0.03853168338537216
1761402647119976200,4.22597607421875,9.783830642700195,0.07212532311677933,-0.03247135877609253
1761402647130032000,4.2360322265625,9.786224365234375,0.07451952993869781,-0.036062661558389664
1761402647140138200,4.24613818359375,9.794529914855957,0.06501753628253937,-0.042122986167669296
1761402647150219800,4.2562197265625,9.785027503967285,0.07332243025302887,-0.028880057856440544
1761402647160297200,4.266297119140625,9.782633781433105,0.07092822343111038,-0.04085106775164604
1761402647170382000,4.276382080078125,9.792359352111816,0.07339724898338318,-0.03254617750644684
1761402647180464000,4.286464111328125,9.786299705505371,0.07220014184713364,-0.03972878307104111
1761402647190545000,4.296544921875,9.795950889587402,0.06628946214914322,-0.0314238965511322
1761402647200626200,4.306626220703125,9.798270225524902,0.06868366152048111,-0.044592007994651794
1761402647210707700,4.316707763671875,9.792359352111816,0.06980594247579575,-0.027832595631480217
1761402647220785000,4.326784912109375,9.799467086791992,0.06509235501289368,-0.03621229901909828
1761402647230870300,4.336870361328125,9.785101890563965,0.07100304216146469,-0.042122986167669296
1761402647240951300,4.346951416015625,9.78757095336914,0.07459434866905212,-0.030151978135108948
1761402647251032600,4.357032470703125,9.800814628601074,0.07115267962217331,-0.02910451404750347
1761402647261114000,4.367114013671875,9.793631553649902,0.06748656183481216,-0.03381809964776039
1761402647271195400,4.3771953125,9.794828414916992,0.07347206771373749,-0.046986207365989685
1761402647281272800,4.38727294921875,9.790040016174316,0.07706336677074432,-0.04100070521235466
1761402647291358000,4.39735791015625,9.790040016174316,0.07706336677074432,-0.03501519933342934
1761402647301438700,4.407438720703125,9.798419952392578,0.06995557993650436,-0.04100070521235466
1761402647311520500,4.4175205078125,9.797223091125488,0.07227496057748795,-0.039803601801395416
1761402647321601800,4.427601806640625,9.78525161743164,0.06988076120615005,-0.039803601801395416
1761402647331682800,4.437682861328125,9.789815902709961,0.06980594247579575,-0.036062661558389664
1761402647341764000,4.44776416015625,9.798120498657227,0.06621464341878891,-0.03853168338537216
1761402647351841500,4.457841552734375,9.783830642700195,0.06973112374544144,-0.03366846218705177
1761402647361927000,4.467927001953125,9.807697296142578,0.071077860891819,-0.042122986167669296
1761402647372008400,4.478008544921875,9.795801162719727,0.07818564772605896,-0.03733458369970322
1761402647382064600,4.488064697265625,9.782633781433105,0.06853402405977249,-0.0396539643406868
1761402647392165000,4.4981650390625,9.785027503967285,0.07811082899570465,-0.04085106775164604
1761402647402252000,4.508251953125,9.787422180175781,0.07220014184713364,-0.03725976496934891
1761402647412308000,4.518307861328125,9.7907133102417,0.0661398246884346,-0.033593643456697464
1761402647422414300,4.528414306640625,9.785924911499023,0.07324761152267456,-0.035987842828035355
1761402647432495900,4.538495849609375,9.7907133102417,0.07092822343111038,-0.0371849462389946
1761402647442560500,4.548560546875,9.78831958770752,0.0661398246884346,-0.04317044839262962
1761402647452658400,4.558658447265625,9.78951644897461,0.06733692437410355,-0.04317044839262962
1761402647462739700,4.56873974609375,9.784728050231934,0.07324761152267456,-0.035913024097681046
1761402647472821000,4.578821044921875,9.785924911499023,0.0744447112083435,-0.04429273307323456
1761402647482898200,4.588898193359375,9.801487922668457,0.0793079286813736,-0.04317044839262962
1761402647492983600,4.598983642578125,9.780014991760254,0.07205050438642502,-0.033518824726343155
1761402647503064600,4.609064697265625,9.782334327697754,0.07085340470075607,-0.03711012750864029
1761402647513121800,4.619121826171875,9.793107986450195,0.06973112374544144,-0.04317044839262962
1761402647523227400,4.629227294921875,9.791911125183105,0.06853402405977249,-0.03957914561033249
1761402647533309000,4.639308837890625,9.78712272644043,0.08043020963668823,-0.03950432687997818
1761402647543386000,4.64938623046875,9.797896385192871,0.0769137293100357,-0.028805239126086235
1761402647553471200,4.65947119140625,9.791911125183105,0.06254851818084717,-0.033593643456697464
1761402647563552500,4.669552490234375,9.799093246459961,0.07212532311677933,-0.0371849462389946
1761402647573634000,4.679634033203125,9.78951644897461,0.06973112374544144,-0.0371849462389946
1761402647583715300,4.68971533203125,9.7907133102417,0.06733692437410355,-0.04197334870696068
1761402647593796400,4.69979638671875,9.784728050231934,0.07085340470075607,-0.038307227194309235
1761402647603873500,4.70987353515625,9.78712272644043,0.0744447112083435,-0.031199440360069275
1761402647613924000,4.719924072265625,9.796699523925781,0.06494271755218506,-0.04197334870696068
1761402647624040200,4.730040283203125,9.78712272644043,0.07205050438642502,-0.0454898327589035
1761402647634121500,4.74012158203125,9.78951644897461,0.07324761152267456,-0.03239654004573822
1761402647644195300,4.7501953125,9.7907133102417,0.06973112374544144,-0.03479074314236641
1761402647654284000,4.760283935546875,9.794454574584961,0.06374561786651611,-0.028880057856440544
1761402647664365300,4.770365234375,9.790863037109375,0.07212532311677933,-0.0396539643406868
1761402647674445000,4.780445068359375,9.790863037109375,0.06494271755218506,-0.04324526712298393
1761402647684528600,4.790528564453125,9.78487777709961,0.0769137293100357,-0.038382045924663544
1761402647694609400,4.800609375,9.790863037109375,0.06494271755218506,-0.036062661558389664
1761402647704690200,4.810690185546875,9.79565143585205,0.07100304216146469,-0.04085106775164604
1761402647714785300,4.820785400390625,9.798046112060547,0.07339724898338318,-0.03845686465501785
1761402647724852700,4.830852783203125,9.7860746383667,0.07332243025302887,-0.035987842828035355
1761402647734934800,4.840934814453125,9.794304847717285,0.06374561786651611,-0.03479074314236641
1761402647745015600,4.851015625,9.783531188964844,0.06486789882183075,-0.035987842828035355
1761402647755097000,4.86109716796875,9.78831958770752,0.07085340470075607,-0.04429273307323456
1761402647765178400,4.871178466796875,9.794304847717285,0.07092822343111038,-0.02760813757777214
1761402647775259600,4.881259765625,9.778742790222168,0.07205050438642502,-0.03711012750864029
1761402647785341000,4.8913408203125,9.791911125183105,0.08162731677293777,-0.038382045924663544
1761402647795422200,4.901422119140625,9.78831958770752,0.07205050438642502,-0.04077624902129173
1761402647805504000,4.91150390625,9.784728050231934,0.07923310995101929,-0.038307227194309235
1761402647815584500,4.92158447265625,9.792060852050781,0.07332243025302887,-0.03725976496934891
1761402647825666000,4.931666015625,9.788469314575195,0.0769137293100357,-0.04197334870696068
1761402647835747300,4.941747314453125,9.788469314575195,0.06374561786651611,-0.03725976496934891
1761402647845828600,4.95182861328125,9.788469314575195,0.07332243025302887,-0.0371849462389946
1761402647855909600,4.96190966796875,9.794380187988281,0.06142623722553253,-0.04803367331624031
1761402647865991200,4.9719912109375,9.777695655822754,0.0744447112083435,-0.04317044839262962
1761402647876072400,4.982072509765625,9.796849250793457,0.0769137293100357,-0.04085106775164604
1761402647886152700,4.992152587890625,9.787272453308105,0.06973112374544144,-0.028880057856440544
1761402647896209700,5.002209716796875,9.78712272644043,0.0768389105796814,-0.031199440360069275
1761402647906316300,5.01231640625,9.78712272644043,0.06965630501508713,-0.038382045924663544
1761402647916397600,5.0223974609375,9.78951644897461,0.06853402405977249,-0.04317044839262962
1761402647926479400,5.032479248046875,9.78951644897461,0.07324761152267456,-0.03479074314236641
1761402647936560000,5.04256005859375,9.785924911499023,0.07085340470075607,-0.0371849462389946
1761402647946641000,5.052640869140625,9.782408714294434,0.0768389105796814,-0.031124621629714966
1761402647956737000,5.062737060546875,9.784728050231934,0.07324761152267456,-0.03711012750864029
1761402647966804000,5.072803955078125,9.78712272644043,0.0744447112083435,-0.03957914561033249
1761402647976885800,5.0828857421875,9.791911125183105,0.07564181089401245,-0.035987842828035355
1761402647986966500,5.092966552734375,9.795501708984375,0.07212532311677933,-0.03479074314236641
1761402647997047800,5.1030478515625,9.794304847717285,0.07451952993869781,-0.03239654004573822
1761402648007129000,5.113129150390625,9.793107986450195,0.07564181089401245,-0.031199440360069275
1761402648017165300,5.123165283203125,9.779939651489258,0.06845920532941818,-0.03711012750864029
1761402648027292000,5.1332919921875,9.783531188964844,0.06606500595808029,-0.03711012750864029
1761402648037373000,5.143373046875,9.7907133102417,0.06853402405977249,-0.033593643456697464
1761402648047454200,5.1534541015625,9.78712272644043,0.07564181089401245,-0.03479074314236641
1761402648057535500,5.163535400390625,9.798120498657227,0.060303956270217896,-0.044517189264297485
1761402648067616500,5.173616455078125,9.792210578918457,0.07459434866905212,-0.0396539643406868
1761402648077698000,5.183697998046875,9.794604301452637,0.07100304216146469,-0.03853168338537216
1761402648087779300,5.193779296875,9.799318313598633,0.06389525532722473,-0.042122986167669296
1761402648097860900,5.20386083984375,9.786224365234375,0.07571662962436676,-0.03486556187272072
1761402648107942700,5.213942626953125,9.77904224395752,0.0769137293100357,-0.03486556187272072
1761402648118019300,5.224019287109375,9.798120498657227,0.07818564772605896,-0.04092588648200035
1761402648128100600,5.2341005859375,9.776647567749023,0.07092822343111038,-0.028880057856440544
1761402648138183200,5.24418310546875,9.78637409210205,0.07100304216146469,-0.03494038060307503
1761402648148273400,5.2542734375,9.794754028320312,0.07347206771373749,-0.032620999962091446
1761402648158323500,5.264323486328125,9.78989028930664,0.06389525532722473,-0.04571428894996643
1761402648168429600,5.2744296875,9.798270225524902,0.06150105595588684,-0.039803601801395416
1761402648178507800,5.2845078125,9.797073364257812,0.07466916739940643,-0.044517189264297485
1761402648188592400,5.29459228515625,9.793481826782227,0.07227496057748795,-0.03613748028874397
1761402648198674200,5.304674072265625,9.789965629577637,0.06741174310445786,-0.03254617750644684
1761402648208754700,5.314754638671875,9.797147750854492,0.07826046645641327,-0.0314238965511322
1761402648218836200,5.324836181640625,9.793107986450195,0.06973112374544144,-0.04077624902129173
1761402648228917200,5.334917236328125,9.78831958770752,0.07205050438642502,-0.033593643456697464
1761402648238994700,5.34499462890625,9.78831958770752,0.0768389105796814,-0.03479074314236641
1761402648249079800,5.355079833984375,9.791911125183105,0.07564181089401245,-0.0371849462389946
1761402648259161300,5.365161376953125,9.791911125183105,0.06254851818084717,-0.03239654004573822
1761402648269242600,5.37524267578125,9.794304847717285,0.07332243025302887,-0.035987842828035355
1761402648279298600,5.385298583984375,9.785924911499023,0.06486789882183075,-0.038382045924663544
1761402648289400000,5.395400146484375,9.799093246459961,0.06973112374544144,-0.03957914561033249
1761402648299486700,5.40548681640625,9.789666175842285,0.07212532311677933,-0.03366846218705177
1761402648309563600,5.415563720703125,9.794454574584961,0.06733692437410355,-0.028880057856440544
1761402648319649000,5.42564892578125,9.774104118347168,0.07803601026535034,-0.03479074314236641
1761402648329705500,5.43570556640625,9.789666175842285,0.06853402405977249,-0.04197334870696068
1761402648339811300,5.445811279296875,9.794454574584961,0.07811082899570465,-0.03366846218705177
1761402648349892600,5.455892578125,9.793182373046875,0.07571662962436676,-0.04563947021961212
1761402648359974400,5.465974365234375,9.794454574584961,0.0769137293100357,-0.03486556187272072
1761402648370051600,5.476051513671875,9.78368091583252,0.07212532311677933,-0.0371849462389946
1761402648380137200,5.48613720703125,9.792210578918457,0.07459434866905212,-0.03494038060307503
1761402648390218000,5.496218017578125,9.799392700195312,0.07220014184713364,-0.03374328091740608
1761402648400274200,5.506274169921875,9.801712036132812,0.07459434866905212,-0.03613748028874397
1761402648410380500,5.516380615234375,9.795726776123047,0.06621464341878891,-0.04332008585333824
1761402648420461600,5.526461669921875,9.801712036132812,0.07459434866905212,-0.03613748028874397
1761402648430543600,5.536543701171875,9.794604301452637,0.07698854804039001,-0.03733458369970322
1761402648440620500,5.54662060546875,9.78023910522461,0.060229137539863586,-0.03725976496934891
1761402648450705400,5.556705322265625,9.789815902709961,0.0686088427901268,-0.036062661558389664
1761402648460787000,5.566786865234375,9.78831958770752,0.07564181089401245,-0.03479074314236641
1761402648470868000,5.576867919921875,9.7907133102417,0.06733692437410355,-0.031199440360069275
1761402648480949200,5.58694921875,9.795501708984375,0.06973112374544144,-0.04197334870696068
1761402648491031000,5.597031005859375,9.7907133102417,0.07564181089401245,-0.031199440360069275
1761402648501108000,5.60710791015625,9.783531188964844,0.07564181089401245,-0.043095629662275314
1761402648511193600,5.617193603515625,9.795427322387695,0.06374561786651611,-0.04915595427155495
1761402648521249800,5.627249755859375,9.796699523925781,0.06494271755218506,-0.035987842828035355
1761402648531337200,5.637337158203125,9.78712272644043,0.06606500595808029,-0.033593643456697464
1761402648541403100,5.647403076171875,9.782334327697754,0.07803601026535034,-0.03950432687997818
1761402648551518700,5.657518798828125,9.776423454284668,0.06965630501508713,-0.02992752194404602
1761402648561596000,5.667595947265625,9.791911125183105,0.06374561786651611,-0.033593643456697464
1761402648571681300,5.677681396484375,9.794304847717285,0.06733692437410355,-0.04556465148925781
1761402648581744000,5.687744140625,9.782334327697754,0.06486789882183075,-0.035913024097681046
1761402648591843600,5.697843505859375,9.78831958770752,0.06726210564374924,-0.035987842828035355
1761402648601926100,5.707926025390625,9.78712272644043,0.07085340470075607,-0.038382045924663544
1761402648612006100,5.718006103515625,9.78951644897461,0.06973112374544144,-0.03957914561033249
1761402648622087400,5.72808740234375,9.78757095336914,0.07100304216146469,-0.03494038060307503
1761402648632165000,5.7381650390625,9.788768768310547,0.06741174310445786,-0.03254617750644684
1761402648642250200,5.748250244140625,9.795876502990723,0.07227496057748795,-0.044517189264297485
1761402648652331300,5.758331298828125,9.785177230834961,0.07100304216146469,-0.03374328091740608
1761402648662412500,5.76841259765625,9.785177230834961,0.07100304216146469,-0.03374328091740608
1761402648672493800,5.778493896484375,9.783980369567871,0.06741174310445786,-0.03134907782077789
1761402648682576000,5.788575927734375,9.78757095336914,0.0686088427901268,-0.03613748028874397
1761402648692652500,5.798652587890625,9.789965629577637,0.07339724898338318,-0.03254617750644684
1761402648702738000,5.808738037109375,9.782334327697754,0.06726210564374924,-0.038307227194309235
1761402648712793600,5.818793701171875,9.7907133102417,0.07085340470075607,-0.03239654004573822
1761402648722883000,5.828883056640625,9.794304847717285,0.06973112374544144,-0.03957914561033249
1761402648732981800,5.838981689453125,9.793107986450195,0.06733692437410355,-0.0371849462389946
1761402648743063000,5.84906298828125,9.78480339050293,0.06965630501508713,-0.02760813757777214
1761402648753144600,5.85914453125,9.78951644897461,0.07564181089401245,-0.04197334870696068
1761402648763222000,5.869221923828125,9.78712272644043,0.07564181089401245,-0.03239654004573822
1761402648773307100,5.87930712890625,9.785924911499023,0.06965630501508713,-0.0371849462389946
1761402648783343000,5.889343017578125,9.788469314575195,0.06733692437410355,-0.03486556187272072
1761402648793469700,5.8994697265625,9.792060852050781,0.06254851818084717,-0.03725976496934891
1761402648803550500,5.909550537109375,9.790863037109375,0.06374561786651611,-0.03366846218705177
1761402648813632300,5.91963232421875,9.798046112060547,0.07339724898338318,-0.03725976496934891
1761402648823709000,5.929708984375,9.79565143585205,0.07332243025302887,-0.03366846218705177
1761402648833794300,5.939794189453125,9.794454574584961,0.0769137293100357,-0.03725976496934891
1761402648843875800,5.949875732421875,9.799168586730957,0.06501753628253937,-0.04204816743731499
1761402648853957000,5.95995703125,9.78487777709961,0.07212532311677933,-0.035987842828035355
1761402648864039000,5.970038818359375,9.779939651489258,0.06965630501508713,-0.0347159244120121
1761402648874119700,5.98011962890625,9.794304847717285,0.07571662962436676,-0.035987842828035355
1761402648884197400,5.990197265625,9.791911125183105,0.07212532311677933,-0.0371849462389946
1761402648894282200,6.0002822265625,9.794304847717285,0.06733692437410355,-0.03957914561033249
1761402648904363000,6.010363037109375,9.793107986450195,0.0661398246884346,-0.04317044839262962
1761402648914445300,6.0204453125,9.78831958770752,0.0661398246884346,-0.038382045924663544
1761402648924525800,6.03052587890625,9.794304847717285,0.06973112374544144,-0.04556465148925781
1761402648934607000,6.040607177734375,9.782334327697754,0.07324761152267456,-0.0347159244120121
1761402648944667100,6.050667236328125,9.78951644897461,0.06374561786651611,-0.04197334870696068
1761402648954770400,6.0607705078125,9.795501708984375,0.07092822343111038,-0.03479074314236641
1761402648964851200,6.070851318359375,9.78951644897461,0.06973112374544144,-0.0371849462389946
1761402648974932000,6.080931884765625,9.783531188964844,0.0744447112083435,-0.03711012750864029
1761402648985014300,6.09101416015625,9.78831958770752,0.06973112374544144,-0.04317044839262962
1761402648995069200,6.101069091796875,9.7907133102417,0.06494271755218506,-0.04197334870696068
1761402649005176300,6.11117626953125,9.785924911499023,0.07085340470075607,-0.0371849462389946
1761402649015257900,6.1212578125,9.78831958770752,0.07205050438642502,-0.0371849462389946
1761402649025316900,6.13131689453125,9.7907133102417,0.0744447112083435,-0.028805239126086235
1761402649035420000,6.141419921875,9.782334327697754,0.0768389105796814,-0.0347159244120121
1761402649045501200,6.151501220703125,9.7907133102417,0.06733692437410355,-0.03957914561033249
1761402649055582700,6.161582763671875,9.791911125183105,0.06254851818084717,-0.038382045924663544
1761402649065663700,6.171663818359375,9.78712272644043,0.07085340470075607,-0.038382045924663544
1761402649075745000,6.1817451171875,9.782334327697754,0.0768389105796814,-0.0347159244120121
1761402649085827000,6.1918271484375,9.7907133102417,0.06853402405977249,-0.04077624902129173
1761402649095907800,6.201907958984375,9.78831958770752,0.07205050438642502,-0.03479074314236641
1761402649105963500,6.211963623046875,9.794454574584961,0.07811082899570465,-0.036062661558389664
1761402649116070400,6.2220703125,9.789666175842285,0.07092822343111038,-0.04077624902129173
1761402649126152000,6.23215185546875,9.787272453308105,0.06853402405977249,-0.035987842828035355
1761402649136232400,6.242232421875,9.798046112060547,0.0686088427901268,-0.04085106775164604
1761402649146314500,6.252314453125,9.793257713317871,0.07212532311677933,-0.03486556187272072
1761402649156395300,6.262395263671875,9.777695655822754,0.07564181089401245,-0.038382045924663544
1761402649166452200,6.2724521484375,9.789666175842285,0.06494271755218506,-0.031274259090423584
1761402649176558000,6.28255810546875,9.789666175842285,0.06494271755218506,-0.0396539643406868
1761402649186639400,6.292639404296875,9.795876502990723,0.07347206771373749,-0.03621229901909828
1761402649196720600,6.302720703125,9.78869342803955,0.07100304216146469,-0.03972878307104111
1761402649206802400,6.312802490234375,9.792359352111816,0.07339724898338318,-0.03254617750644684
1761402649216883200,6.32288330078125,9.783980369567871,0.06621464341878891,-0.03494038060307503
1761402649226964200,6.332964111328125,9.795876502990723,0.07466916739940643,-0.04092588648200035
1761402649237045500,6.34304541015625,9.787496566772461,0.07339724898338318,-0.04092588648200035
1761402649247117000,6.353116943359375,9.781585693359375,0.07698854804039001,-0.03254617750644684
1761402649257208000,6.3632080078125,9.792359352111816,0.07339724898338318,-0.03134907782077789
1761402649267289600,6.37328955078125,9.789067268371582,0.07466916739940643,-0.025513211265206337
1761402649277371000,6.383370849609375,9.797372817993164,0.0735468864440918,-0.044666826725006104
1761402649287432000,6.393431884765625,9.791387557983398,0.07115267962217331,-0.0338929183781147
1761402649297503000,6.4035029296875,9.791312217712402,0.06756138056516647,-0.04825812950730324
1761402649307614500,6.413614501953125,9.794978141784668,0.07953238487243652,-0.037484221160411835
1761402649317695700,6.42369580078125,9.790189743041992,0.08424597233533859,-0.03868132084608078
1761402649327777300,6.43377734375,9.785401344299316,0.07706336677074432,-0.037484221160411835
1761402649337858300,6.4438583984375,9.796175956726074,0.07953238487243652,-0.032695818692445755
1761402649347939600,6.453939697265625,9.781286239624023,0.07451952993869781,-0.03957914561033249
1761402649358016800,6.464016845703125,9.790863037109375,0.07811082899570465,-0.04197334870696068
1761402649368098300,6.474098388671875,9.787272453308105,0.07332243025302887,-0.03247135877609253
1761402649378158800,6.484158935546875,9.794454574584961,0.07092822343111038,-0.03845686465501785
1761402649388239400,6.4942392578125,9.79565143585205,0.07571662962436676,-0.028880057856440544
1761402649398320600,6.504320556640625,9.799242973327637,0.06621464341878891,-0.03366846218705177
1761402649408402700,6.514402587890625,9.78487777709961,0.06494271755218506,-0.031274259090423584
1761402649418483000,6.52448291015625,9.789666175842285,0.06853402405977249,-0.04317044839262962
1761402649428565000,6.53456494140625,9.799318313598633,0.07100304216146469,-0.03972878307104111
1761402649438672000,6.544671875,9.792135238647461,0.06980594247579575,-0.04085106775164604
1761402649448743700,6.55474365234375,9.792210578918457,0.07459434866905212,-0.030151978135108948
1761402649458829800,6.564829833984375,9.789815902709961,0.07220014184713364,-0.036062661558389664
1761402649468915200,6.574915283203125,9.785027503967285,0.07092822343111038,-0.036062661558389664
1761402649478997000,6.5849970703125,9.804181098937988,0.08417115360498428,-0.03254617750644684
1761402649489077800,6.595077880859375,9.799318313598633,0.06741174310445786,-0.04332008585333824
1761402649499159000,6.605158935546875,9.794604301452637,0.07100304216146469,-0.030151978135108948
1761402649509214700,6.615214599609375,9.793407440185547,0.0686088427901268,-0.03853168338537216
1761402649519317500,6.6253173828125,9.790938377380371,0.06501753628253937,-0.04204816743731499
1761402649529402600,6.635402587890625,9.783830642700195,0.07092822343111038,-0.036062661558389664
1761402649539440600,6.645440673828125,9.786224365234375,0.07220014184713364,-0.04085106775164604
1761402649549566000,6.65556591796875,9.786224365234375,0.06980594247579575,-0.031274259090423584
1761402649559611400,6.665611328125,9.789815902709961,0.06262333691120148,-0.026560675352811813
1761402649569728000,6.67572802734375,9.790938377380371,0.06621464341878891,-0.04085106775164604
1761402649579815000,6.68581494140625,9.792135238647461,0.07698854804039001,-0.044442370533943176
1761402649589886000,6.695885986328125,9.78248405456543,0.07212532311677933,-0.035987842828035355
1761402649599971800,6.705971923828125,9.790863037109375,0.07571662962436676,-0.0396539643406868
1761402649610052900,6.716052978515625,9.796849250793457,0.07811082899570465,-0.03366846218705177
1761402649620135000,6.726135009765625,9.792060852050781,0.07332243025302887,-0.04324526712298393
1761402649630215400,6.73621533203125,9.792060852050781,0.06494271755218506,-0.03845686465501785
1761402649640297200,6.746297119140625,9.793257713317871,0.07332243025302887,-0.03007715940475464
1761402649650374400,6.75637451171875,9.79565143585205,0.0661398246884346,-0.02768295630812645
1761402649660459300,6.766459228515625,9.788469314575195,0.07212532311677933,-0.038382045924663544
1761402649670540800,6.776540771484375,9.795876502990723,0.06628946214914322,-0.03501519933342934
1761402649680622000,6.7866220703125,9.791088104248047,0.06509235501289368,-0.03733458369970322
1761402649690703000,6.796703125,9.78757095336914,0.0793827474117279,-0.03853168338537216
1761402649700784600,6.80678466796875,9.782708168029785,0.07698854804039001,-0.04092588648200035
1761402649710866000,6.816865966796875,9.77440357208252,0.07571662962436676,-0.036062661558389664
1761402649720943600,6.826943603515625,9.782782554626465,0.06741174310445786,-0.03733458369970322
1761402649731003400,6.83700341796875,9.791088104248047,0.07339724898338318,-0.03733458369970322
1761402649741109800,6.84710986328125,9.793481826782227,0.06389525532722473,-0.03381809964776039
1761402649751191000,6.85719091796875,9.798120498657227,0.06741174310445786,-0.046911388635635376
1761402649761272300,6.867272216796875,9.795801162719727,0.0686088427901268,-0.03254617750644684
1761402649771353600,6.877353515625,9.787346839904785,0.07459434866905212,-0.04324526712298393
1761402649781431800,6.887431884765625,9.78136157989502,0.06853402405977249,-0.04563947021961212
1761402649791516200,6.89751611328125,9.796998977661133,0.0686088427901268,-0.03254617750644684
1761402649801571800,6.90757177734375,9.783830642700195,0.07332243025302887,-0.0396539643406868
1761402649811679000,6.917678955078125,9.79333209991455,0.06980594247579575,-0.03972878307104111
1761402649821760000,6.927760009765625,9.783830642700195,0.07332243025302887,-0.03247135877609253
1761402649831852000,6.93785205078125,9.792135238647461,0.06142623722553253,-0.03853168338537216
1761402649841918500,6.94791845703125,9.793407440185547,0.07339724898338318,-0.03733458369970322
1761402649852003800,6.95800390625,9.7814359664917,0.07212532311677933,-0.04204816743731499
1761402649862085400,6.96808544921875,9.798120498657227,0.06382043659687042,-0.03972878307104111
1761402649872150000,6.97814990234375,9.788619041442871,0.06741174310445786,-0.03247135877609253
1761402649882248200,6.988248291015625,9.789741516113281,0.06980594247579575,-0.04324526712298393
1761402649892329000,6.998328857421875,9.78023910522461,0.0769137293100357,-0.036062661558389664
1761402649902409700,7.00840966796875,9.793407440185547,0.07459434866905212,-0.03254617750644684
1761402649912487400,7.0184873046875,9.795726776123047,0.07698854804039001,-0.04092588648200035
1761402649922547700,7.028547607421875,9.789815902709961,0.06501753628253937,-0.03613748028874397
1761402649932653800,7.03865380859375,9.787346839904785,0.06980594247579575,-0.04204816743731499
1761402649942735400,7.0487353515625,9.79101276397705,0.06501753628253937,-0.03374328091740608
1761402649952817000,7.05881689453125,9.790938377380371,0.06980594247579575,-0.04085106775164604
1761402649962898000,7.06889794921875,9.788619041442871,0.0793079286813736,-0.03845686465501785
1761402649972975000,7.07897509765625,9.785027503967285,0.07212532311677933,-0.03366846218705177
1761402649983061000,7.08906103515625,9.795801162719727,0.07339724898338318,-0.03374328091740608
1761402649993141200,7.099141357421875,9.78712272644043,0.07564181089401245,-0.03950432687997818
1761402650003223000,7.10922314453125,9.795501708984375,0.06733692437410355,-0.04077624902129173
1761402650013304600,7.1193046875,9.78951644897461,0.08162731677293777,-0.038382045924663544
1761402650023385900,7.1293857421875,9.78712272644043,0.06726210564374924,-0.03239654004573822
1761402650033466600,7.139466552734375,9.794304847717285,0.0793079286813736,-0.04077624902129173
1761402650043524000,7.149524169921875,9.780014991760254,0.06845920532941818,-0.028730420395731926
1761402650053604400,7.159604248046875,9.796699523925781,0.0661398246884346,-0.031199440360069275
1761402650063710700,7.169710693359375,9.791911125183105,0.06494271755218506,-0.03239654004573822
1761402650073781200,7.17978125,9.79176139831543,0.07564181089401245,-0.0347159244120121
1761402650083874000,7.1898740234375,9.79295825958252,0.06486789882183075,-0.03950432687997818
1761402650093954000,7.1999541015625,9.789366722106934,0.0636707991361618,-0.033518824726343155
1761402650104031700,7.21003173828125,9.789366722106934,0.06606500595808029,-0.043095629662275314
1761402650114116600,7.22011669921875,9.788169860839844,0.07085340470075607,-0.03711012750864029
1761402650124172800,7.2301728515625,9.795352935791016,0.07085340470075607,-0.04668693244457245
1761402650134279200,7.240279052734375,9.786972999572754,0.06845920532941818,-0.0347159244120121
1761402650144361000,7.25036083984375,9.789366722106934,0.0744447112083435,-0.04189852997660637
1761402650154442000,7.26044189453125,9.782184600830078,0.06486789882183075,-0.038307227194309235
1761402650164523800,7.270523681640625,9.79415512084961,0.06726210564374924,-0.04668693244457245
1761402650174605000,7.28060498046875,9.786972999572754,0.06845920532941818,-0.0347159244120121
1761402650184665300,7.290665283203125,9.79056453704834,0.06845920532941818,-0.040701430290937424
1761402650194767400,7.300767333984375,9.781062126159668,0.06958148628473282,-0.03703530877828598
1761402650204848600,7.3108486328125,9.79056453704834,0.0636707991361618,-0.038307227194309235
1761402650214922200,7.320922119140625,9.780987739562988,0.06486789882183075,-0.03711012750864029
1761402650225011200,7.33101123046875,9.79295825958252,0.06965630501508713,-0.04189852997660637
1761402650235092500,7.341092529296875,9.78831958770752,0.07205050438642502,-0.033593643456697464
1761402650245173500,7.351173583984375,9.793107986450195,0.07571662962436676,-0.04197334870696068
1761402650255255000,7.361255126953125,9.78951644897461,0.0744447112083435,-0.035987842828035355
1761402650265336000,7.371336181640625,9.790788650512695,0.07564181089401245,-0.026411037892103195
1761402650275417300,7.381417236328125,9.795501708984375,0.06973112374544144,-0.04197334870696068
1761402650285499000,7.391498779296875,9.775226593017578,0.07205050438642502,-0.033518824726343155
1761402650295580700,7.40158056640625,9.793182373046875,0.07324761152267456,-0.024016836658120155
1761402650305662200,7.411662109375,9.795501708984375,0.07451952993869781,-0.03479074314236641
1761402650315742700,7.42174267578125,9.787272453308105,0.0661398246884346,-0.038382045924663544
1761402650325823700,7.43182373046875,9.778892517089844,0.0744447112083435,-0.038382045924663544
1761402650356042800,7.462042724609375,9.794454574584961,0.07332243025302887,-0.03247135877609253
1761402650366149400,7.4721494140625,9.793257713317871,0.06382043659687042,-0.036062661558389664
1761402650376230400,7.48223046875,9.788469314575195,0.06973112374544144,-0.03247135877609253
1761402650386312000,7.49231201171875,9.789666175842285,0.07332243025302887,-0.03845686465501785
1761402650396392700,7.502392822265625,9.787272453308105,0.0769137293100357,-0.03239654004573822
1761402650406474200,7.51247412109375,9.792060852050781,0.07811082899570465,-0.0396539643406868
1761402650416555500,7.522555419921875,9.796849250793457,0.06980594247579575,-0.0396539643406868
1761402650426636500,7.532636474609375,9.79565143585205,0.0686088427901268,-0.03845686465501785
1761402650436718000,7.542718017578125,9.798046112060547,0.0769137293100357,-0.028880057856440544
1761402650446799000,7.552799072265625,9.790863037109375,0.07212532311677933,-0.04085106775164604
1761402650456880400,7.56288037109375,9.780089378356934,0.0744447112083435,-0.035987842828035355
1761402650466961700,7.572961669921875,9.793257713317871,0.06853402405977249,-0.0396539643406868
1761402650477043200,7.583043212890625,9.793407440185547,0.07459434866905212,-0.03374328091740608
1761402650487124500,7.59312451171875,9.789815902709961,0.06741174310445786,-0.03494038060307503
1761402650497205800,7.603205810546875,9.77904224395752,0.0661398246884346,-0.036062661558389664
1761402650507287000,7.613287109375,9.79333209991455,0.06741174310445786,-0.04563947021961212
1761402650517368000,7.6233681640625,9.787422180175781,0.0686088427901268,-0.03725976496934891
1761402650527428900,7.633428955078125,9.79101276397705,0.06741174310445786,-0.03613748028874397
1761402650537530600,7.643530517578125,9.787422180175781,0.0686088427901268,-0.03725976496934891
1761402650547612200,7.653612060546875,9.786224365234375,0.07332243025302887,-0.03366846218705177
1761402650557693400,7.663693359375,9.78951644897461,0.07205050438642502,-0.04197334870696068
1761402650567774700,7.673774658203125,9.793107986450195,0.06853402405977249,-0.04317044839262962
1761402650577830700,7.68383056640625,9.78831958770752,0.06973112374544144,-0.04436755180358887
1761402650587937300,7.693937255859375,9.793107986450195,0.07092822343111038,-0.03000234067440033
1761402650598008000,7.704008056640625,9.785924911499023,0.07085340470075607,-0.03479074314236641
1761402650608095500,7.714095458984375,9.791911125183105,0.0661398246884346,-0.0371849462389946
1761402650618179300,7.724179443359375,9.7907133102417,0.07205050438642502,-0.035987842828035355
1761402650628262400,7.734262451171875,9.795501708984375,0.0769137293100357,-0.04197334870696068
1761402650638344000,7.744343994140625,9.793481826782227,0.07227496057748795,-0.03494038060307503
1761402650648424700,7.7544248046875,9.798270225524902,0.07826046645641327,-0.03860650211572647
1761402650658506000,7.764506103515625,9.795876502990723,0.07706336677074432,-0.03853168338537216
1761402650668587500,7.77458740234375,9.786299705505371,0.06980594247579575,-0.04092588648200035
1761402650678665500,7.78466552734375,9.783980369567871,0.07818564772605896,-0.03254617750644684
1761402650688750600,7.79475048828125,9.791088104248047,0.06389525532722473,-0.03972878307104111
1761402650698831400,7.804831298828125,9.782782554626465,0.06741174310445786,-0.03733458369970322
1761402650708912400,7.814912353515625,9.78869342803955,0.06748656183481216,-0.04571428894996643
1761402650718992100,7.8249921875,9.796699523925781,0.07451952993869781,-0.03479074314236641
1761402650729075000,7.835074951171875,9.781136512756348,0.06486789882183075,-0.04189852997660637
1761402650739152100,7.845152099609375,9.789591789245605,0.07923310995101929,-0.028805239126086235
1761402650749238000,7.855238037109375,9.791911125183105,0.07332243025302887,-0.04317044839262962
1761402650759318800,7.86531884765625,9.784728050231934,0.06845920532941818,-0.03479074314236641
1761402650769399800,7.87539990234375,9.78712272644043,0.06494271755218506,-0.03957914561033249
1761402650779479000,7.88547900390625,9.78831958770752,0.07085340470075607,-0.033593643456697464
1761402650789562600,7.895562744140625,9.7907133102417,0.06973112374544144,-0.0371849462389946
1761402650799640300,7.905640380859375,9.797223091125488,0.07826046645641327,-0.032695818692445755
1761402650809725200,7.91572509765625,9.790040016174316,0.07227496057748795,-0.032620999962091446
1761402650819806700,7.925806640625,9.791237831115723,0.06868366152048111,-0.03621229901909828
1761402650829887700,7.9358876953125,9.793631553649902,0.07227496057748795,-0.039803601801395416
1761402650839969300,7.94596923828125,9.794828414916992,0.06516718119382858,-0.03860650211572647
1761402650850050800,7.95605078125,9.792434692382812,0.07466916739940643,-0.04339490458369255
1761402650860132000,7.966132080078125,9.792434692382812,0.07586626708507538,-0.03501519933342934
1761402650870209000,7.976208984375,9.78525161743164,0.07347206771373749,-0.037409402430057526
1761402650880294700,7.986294677734375,9.78989028930664,0.07459434866905212,-0.03733458369970322
1761402650890376200,7.996376220703125,9.783980369567871,0.07579144835472107,-0.03613748028874397
1761402650900457200,8.006457275390625,9.782782554626465,0.07579144835472107,-0.03134907782077789
1761402650910538200,8.016538330078125,9.783905029296875,0.07100304216146469,-0.03972878307104111
1761402650920619500,8.02661962890625,9.791088104248047,0.06269815564155579,-0.04092588648200035
1761402650930696700,8.03669677734375,9.791088104248047,0.07698854804039001,-0.042122986167669296
1761402650940756700,8.0467568359375,9.78989028930664,0.07339724898338318,-0.03972878307104111
1761402650950863400,8.05686328125,9.780388832092285,0.06980594247579575,-0.03733458369970322
1761402650960945200,8.066945068359376,9.787272453308105,0.06374561786651611,-0.026485856622457504
1761402650971026200,8.077026123046876,9.800439834594727,0.0793079286813736,-0.03486556187272072
1761402650981087700,8.087087646484376,9.787272453308105,0.07092822343111038,-0.035987842828035355
1761402650991188700,8.097188720703125,9.793182373046875,0.07571662962436676,-0.04563947021961212
1761402651001265700,8.107265625,9.79565143585205,0.07451952993869781,-0.02768295630812645
1761402651011351000,8.11735107421875,9.792060852050781,0.07092822343111038,-0.0396539643406868
1761402651021432000,8.12743212890625,9.787272453308105,0.0769137293100357,-0.03239654004573822
1761402651031513300,8.137513427734374,9.792060852050781,0.06374561786651611,-0.03486556187272072
1761402651041595000,8.147594970703125,9.793931007385254,0.07594108581542969,-0.03396773710846901
1761402651051675600,8.157675537109375,9.786747932434082,0.07594108581542969,-0.039878420531749725
1761402651061753600,8.167753662109375,9.791536331176758,0.0735468864440918,-0.03875613957643509
1761402651071839000,8.1778388671875,9.793931007385254,0.07242459803819656,-0.0363619364798069
1761402651081921300,8.18792138671875,9.784354209899902,0.07594108581542969,-0.035090018063783646
1761402651092001500,8.19800146484375,9.787945747375488,0.07713818550109863,-0.037484221160411835
1761402651102082600,8.20808251953125,9.795127868652344,0.06643909960985184,-0.037559039890766144
1761402651112163600,8.21816357421875,9.791536331176758,0.0735468864440918,-0.032770637422800064
1761402651122232600,8.228232666015625,9.778742790222168,0.0636707991361618,-0.035913024097681046
1761402651132326400,8.238326416015624,9.795501708984375,0.07092822343111038,-0.04077624902129173
1761402651142407400,8.248407470703125,9.777545928955078,0.07205050438642502,-0.038307227194309235
1761402651152488700,8.25848876953125,9.802684783935547,0.07092822343111038,-0.038382045924663544
1761402651162570000,8.268570068359375,9.782334327697754,0.07205050438642502,-0.038307227194309235
1761402651172651300,8.2786513671875,9.78951644897461,0.06973112374544144,-0.0371849462389946
1761402651182733000,8.288733154296875,9.78712272644043,0.06845920532941818,-0.03957914561033249
1761402651192788700,8.298788818359375,9.794304847717285,0.07451952993869781,-0.035987842828035355
1761402651202895000,8.30889501953125,9.789666175842285,0.07332243025302887,-0.03957914561033249
1761402651212976400,8.318976318359375,9.792060852050781,0.08050503581762314,-0.03725976496934891
1761402651223057700,8.3290576171875,9.78487777709961,0.07092822343111038,-0.03479074314236641
1761402651233139000,8.339138916015624,9.789666175842285,0.07092822343111038,-0.04197334870696068
1761402651243220200,8.34922021484375,9.790863037109375,0.07811082899570465,-0.028880057856440544
1761402651253297700,8.359297607421874,9.793257713317871,0.07212532311677933,-0.026485856622457504
1761402651263382500,8.369382568359375,9.792060852050781,0.06733692437410355,-0.03007715940475464
1761402651273464000,8.379464111328126,9.800439834594727,0.07459434866905212,-0.031274259090423584
1761402651283545900,8.3895458984375,9.785551071166992,0.06636428087949753,-0.03396773710846901
1761402651293626000,8.399626220703125,9.791536331176758,0.06404489278793335,-0.037559039890766144
1761402651303682600,8.4096826171875,9.805827140808105,0.07841010391712189,-0.039953239262104034
1761402651313789200,8.4197890625,9.796324729919434,0.06643909960985184,-0.03396773710846901
1761402651323866400,8.429866455078125,9.79991626739502,0.07003039866685867,-0.030376434326171875
1761402651333951500,8.439951416015624,9.784354209899902,0.07234977930784225,-0.035090018063783646
1761402651344033300,8.450033203125,9.790339469909668,0.07474398612976074,-0.032770637422800064
1761402651354095600,8.460095703125,9.792658805847168,0.06763619929552078,-0.042347442358732224
1761402651364195800,8.47019580078125,9.78712272644043,0.06965630501508713,-0.0454898327589035
1761402651374276600,8.480276611328126,9.796699523925781,0.07571662962436676,-0.03239654004573822
1761402651384359200,8.490359130859375,9.785924911499023,0.0744447112083435,-0.038307227194309235
1761402651394439200,8.500439208984375,9.783531188964844,0.07803601026535034,-0.04668693244457245
1761402651404520400,8.5105205078125,9.794304847717285,0.06853402405977249,-0.0371849462389946
1761402651414602000,8.52060205078125,9.78712272644043,0.07564181089401245,-0.03950432687997818
1761402651424683000,8.53068310546875,9.78831958770752,0.07085340470075607,-0.03239654004573822
1761402651434764300,8.540764404296874,9.780014991760254,0.07205050438642502,-0.033518824726343155
1761402651444846000,8.55084619140625,9.789666175842285,0.08289923518896103,-0.038382045924663544
1761402651454886100,8.56088623046875,9.793257713317871,0.07571662962436676,-0.028880057856440544
1761402651465008400,8.57100830078125,9.79565143585205,0.06741174310445786,-0.03486556187272072
1761402651475089700,8.581089599609374,9.798046112060547,0.0686088427901268,-0.036062661558389664
1761402651485171700,8.591171630859375,9.789666175842285,0.07092822343111038,-0.03725976496934891
1761402651495252200,8.601252197265625,9.793257713317871,0.06733692437410355,-0.03845686465501785
1761402651505333500,8.61133349609375,9.796849250793457,0.07451952993869781,-0.03247135877609253
1761402651515415300,8.621415283203126,9.798046112060547,0.06980594247579575,-0.036062661558389664
1761402651525471000,8.631470947265624,9.792210578918457,0.07100304216146469,-0.03853168338537216
1761402651535577000,8.6415771484375,9.798120498657227,0.06621464341878891,-0.042122986167669296
1761402651545659000,8.651658935546875,9.792210578918457,0.07220014184713364,-0.03845686465501785
1761402651555740200,8.661740234375,9.789815902709961,0.08170213550329208,-0.03725976496934891
1761402651565822500,8.671822509765626,9.795801162719727,0.07100304216146469,-0.03374328091740608
1761402651575902500,8.68190234375,9.799318313598633,0.0686088427901268,-0.042122986167669296
1761402651585984000,8.69198388671875,9.79101276397705,0.0686088427901268,-0.0396539643406868
1761402651596033800,8.70203369140625,9.775450706481934,0.06853402405977249,-0.0396539643406868
1761402651606146000,8.71214599609375,9.790863037109375,0.06374561786651611,-0.03366846218705177
1761402651616227300,8.722227294921876,9.792060852050781,0.07451952993869781,-0.03486556187272072
1761402651626308900,8.732308837890624,9.790863037109375,0.07092822343111038,-0.03486556187272072
1761402651636349700,8.742349609375,9.792060852050781,0.06973112374544144,-0.04085106775164604
1761402651646443000,8.752443115234374,9.788469314575195,0.06374561786651611,-0.04085106775164604
1761402651656552700,8.762552734375,9.78248405456543,0.0769137293100357,-0.03957914561033249
1761402651666634000,8.772634033203126,9.789666175842285,0.07332243025302887,-0.03247135877609253
1761402651676715000,8.782715087890624,9.787272453308105,0.0769137293100357,-0.03957914561033249
1761402651686767400,8.792767333984376,9.787346839904785,0.06142623722553253,-0.04324526712298393
1761402651696877600,8.802877685546875,9.796998977661133,0.07220014184713364,-0.03613748028874397
1761402651706958800,8.812958740234375,9.788619041442871,0.07451952993869781,-0.028880057856440544
1761402651717040000,8.8230400390625,9.792210578918457,0.07459434866905212,-0.03494038060307503
1761402651727121400,8.833121337890624,9.78255844116211,0.07212532311677933,-0.049230773001909256
1761402651737203000,8.843202880859375,9.793407440185547,0.07459434866905212,-0.03494038060307503
1761402651747283700,8.85328369140625,9.7814359664917,0.06853402405977249,-0.036062661558389664
1761402651757365200,8.863365234375,9.793407440185547,0.0686088427901268,-0.03733458369970322
1761402651767446800,8.87344677734375,9.783531188964844,0.07324761152267456,-0.03950432687997818
1761402651777527800,8.88352783203125,9.793107986450195,0.06733692437410355,-0.03239654004573822
1761402651787609000,8.893609130859375,9.784728050231934,0.06486789882183075,-0.03950432687997818
1761402651797690600,8.903690673828125,9.78831958770752,0.07324761152267456,-0.03957914561033249
1761402651807747800,8.913747802734376,9.78831958770752,0.0744447112083435,-0.03957914561033249
1761402651817852700,8.923852783203126,9.783531188964844,0.06726210564374924,-0.038307227194309235
1761402651827910000,8.933909912109375,9.7907133102417,0.07205050438642502,-0.033593643456697464
1761402651837998000,8.943998046875,9.797896385192871,0.07092822343111038,-0.04197334870696068
1761402651848092700,8.9540927734375,9.7907133102417,0.07212532311677933,-0.04317044839262962
1761402651858175500,8.964175537109375,9.783531188964844,0.07803601026535034,-0.038307227194309235
1761402651868258800,8.9742587890625,9.794304847717285,0.0661398246884346,-0.033593643456697464
1761402651878315300,8.984315185546874,9.78951644897461,0.0744447112083435,-0.03479074314236641
1761402651888417800,8.994417724609375,9.793107986450195,0.07571662962436676,-0.03479074314236641
1761402651898503400,9.00450341796875,9.7907133102417,0.06973112374544144,-0.035987842828035355
1761402651908584200,9.014584228515625,9.78951644897461,0.0744447112083435,-0.04197334870696068
1761402651918677800,9.024677734375,9.793107986450195,0.07564181089401245,-0.03239654004573822
1761402651928721700,9.0347216796875,9.799093246459961,0.08289923518896103,-0.04436755180358887
1761402651938828000,9.044828125,9.793107986450195,0.06733692437410355,-0.03957914561033249
1761402651948909300,9.054909423828125,9.791911125183105,0.07212532311677933,-0.04436755180358887
1761402651958968800,9.06496875,9.784728050231934,0.07324761152267456,-0.04189852997660637
1761402651969072000,9.075072021484376,9.78831958770752,0.07085340470075607,-0.03239654004573822
1761402651979154000,9.08515380859375,9.7907133102417,0.06494271755218506,-0.03239654004573822
1761402651989234700,9.095234619140625,9.781136512756348,0.07324761152267456,-0.03950432687997818
1761402651999315700,9.105315673828125,9.799093246459961,0.07571662962436676,-0.0371849462389946
1761402652009372400,9.115372314453126,9.788543701171875,0.06741174310445786,-0.04563947021961212
1761402652019449000,9.125448974609375,9.794604301452637,0.0686088427901268,-0.03494038060307503
1761402652029535700,9.13553564453125,9.792135238647461,0.07459434866905212,-0.04085106775164604
1761402652039641300,9.145641357421875,9.786224365234375,0.07459434866905212,-0.0396539643406868
1761402652049722000,9.15572216796875,9.783830642700195,0.0793079286813736,-0.036062661558389664
1761402652059803600,9.1658037109375,9.796998977661133,0.06741174310445786,-0.028954876586794853
1761402652069885000,9.175885009765626,9.792210578918457,0.06621464341878891,-0.03494038060307503
1761402652079962000,9.185962158203125,9.789815902709961,0.07818564772605896,-0.0396539643406868
1761402652090047200,9.196047119140625,9.788843154907227,0.06509235501289368,-0.04339490458369255
1761402652100128500,9.20612841796875,9.80560302734375,0.0735468864440918,-0.02910451404750347
1761402652110209800,9.216209716796875,9.798419952392578,0.07706336677074432,-0.03628711774945259
1761402652120291000,9.226291015625,9.788843154907227,0.06748656183481216,-0.039803601801395416
1761402652130372000,9.2363720703125,9.78173542022705,0.06748656183481216,-0.03381809964776039
1761402652140454000,9.246453857421875,9.790115356445312,0.07466916739940643,-0.029029695317149162
1761402652150531000,9.256531005859374,9.787646293640137,0.07227496057748795,-0.03381809964776039
1761402652160616200,9.2666162109375,9.791237831115723,0.07586626708507538,-0.042197804898023605
1761402652170672000,9.276672119140626,9.793257713317871,0.06501753628253937,-0.0396539643406868
1761402652180779800,9.28677978515625,9.788469314575195,0.07332243025302887,-0.038382045924663544
1761402652190834700,9.296834716796875,9.793257713317871,0.06973112374544144,-0.04085106775164604
1761402652200941600,9.306941650390625,9.79797077178955,0.07220014184713364,-0.044442370533943176
1761402652211018800,9.317018798828125,9.7860746383667,0.07451952993869781,-0.04436755180358887
1761402652221078500,9.32707861328125,9.794454574584961,0.07571662962436676,-0.031274259090423584
1761402652231185200,9.33718505859375,9.78487777709961,0.07811082899570465,-0.033593643456697464
1761402652241266400,9.347266357421875,9.781286239624023,0.06973112374544144,-0.035987842828035355
1761402652251348000,9.357347900390625,9.785401344299316,0.08065467327833176,-0.035090018063783646
1761402652261404000,9.36740380859375,9.791387557983398,0.06875848025083542,-0.039878420531749725
1761402652271510500,9.377510498046876,9.787796020507812,0.07474398612976074,-0.04107552394270897
1761402652281587700,9.387587646484375,9.799766540527344,0.07594108581542969,-0.0338929183781147
1761402652291673300,9.39767333984375,9.790189743041992,0.07474398612976074,-0.03868132084608078
1761402652301723100,9.40772314453125,9.794978141784668,0.06995557993650436,-0.0338929183781147
1761402652311810300,9.417810302734376,9.792584419250488,0.07115267962217331,-0.037484221160411835
1761402652321917000,9.4279169921875,9.794978141784668,0.07234977930784225,-0.039878420531749725
1761402652331997700,9.437997802734374,9.800439834594727,0.07579144835472107,-0.036062661558389664
1761402652342075400,9.448075439453126,9.788469314575195,0.06374561786651611,-0.02768295630812645
1761402652352160500,9.458160400390625,9.788469314575195,0.07332243025302887,-0.0371849462389946
1761402652362242000,9.468241943359375,9.790863037109375,0.0661398246884346,-0.02768295630812645
1761402652372322800,9.47832275390625,9.802834510803223,0.07100304216146469,-0.036062661558389664
1761402652382404900,9.48840478515625,9.79565143585205,0.07212532311677933,-0.04085106775164604
1761402652392485600,9.498485595703125,9.796849250793457,0.07451952993869781,-0.03247135877609253
1761402652402563000,9.50856298828125,9.794454574584961,0.07451952993869781,-0.04204816743731499
1761402652412648200,9.518648193359375,9.794304847717285,0.06973112374544144,-0.0371849462389946
1761402652422729500,9.5287294921875,9.783531188964844,0.06965630501508713,-0.038307227194309235
1761402652432785700,9.53878564453125,9.783531188964844,0.06606500595808029,-0.035913024097681046
1761402652442891500,9.5488916015625,9.78712272644043,0.06965630501508713,-0.03957914561033249
1761402652452972800,9.558972900390625,9.78831958770752,0.06853402405977249,-0.0454898327589035
1761402652463032000,9.569031982421874,9.779939651489258,0.07085340470075607,-0.043095629662275314
1761402652473131300,9.57913134765625,9.785924911499023,0.0768389105796814,-0.040701430290937424
1761402652483217700,9.5892177734375,9.785924911499023,0.06726210564374924,-0.035987842828035355
1761402652493298000,9.5992978515625,9.797447204589844,0.07242459803819656,-0.04354454204440117
1761402652503379700,9.609379638671875,9.783157348632812,0.07833528518676758,-0.039878420531749725
1761402652513461000,9.6194609375,9.790339469909668,0.06875848025083542,-0.03396773710846901
1761402652523542000,9.6295419921875,9.787945747375488,0.07115267962217331,-0.042272623628377914
1761402652533619200,9.639619140625,9.780762672424316,0.07115267962217331,-0.039878420531749725
1761402652543704800,9.649704833984375,9.783157348632812,0.07234977930784225,-0.03868132084608078
1761402652553760300,9.65976025390625,9.79871940612793,0.07841010391712189,-0.032770637422800064
1761402652563867100,9.6698671875,9.793931007385254,0.07713818550109863,-0.032770637422800064
1761402652573926400,9.679926513671875,9.78869342803955,0.06741174310445786,-0.03613748028874397
1761402652584030500,9.690030517578125,9.78989028930664,0.07100304216146469,-0.03853168338537216
1761402652594073900,9.700073974609374,9.793557167053223,0.08297405391931534,-0.03374328091740608
1761402652604167000,9.7101669921875,9.800664901733398,0.07347206771373749,-0.037409402430057526
1761402652614247700,9.72024755859375,9.788768768310547,0.07459434866905212,-0.03254617750644684
1761402652624329500,9.73032958984375,9.780388832092285,0.07339724898338318,-0.03972878307104111
1761402652634436600,9.7404365234375,9.792284965515137,0.071077860891819,-0.03494038060307503
1761402652654599000,9.760598876953125,9.787496566772461,0.0793827474117279,-0.042122986167669296
1761402652664680400,9.770680419921876,9.78637409210205,0.07339724898338318,-0.03733458369970322
1761402652674761500,9.780761474609376,9.791088104248047,0.07459434866905212,-0.03972878307104111
1761402652684829200,9.7908291015625,9.78637409210205,0.0793827474117279,-0.03613748028874397
1761402652694921200,9.800921142578124,9.793557167053223,0.07339724898338318,-0.026635494083166122
1761402652705005000,9.811005126953125,9.787496566772461,0.07100304216146469,-0.03972878307104111
1761402652715067400,9.8210673828125,9.78757095336914,0.06980594247579575,-0.03613748028874397
1761402652725178400,9.831178466796874,9.791088104248047,0.07466916739940643,-0.04571428894996643
1761402652735249000,9.841248779296874,9.797223091125488,0.06756138056516647,-0.04100070521235466
1761402652745330000,9.851329833984375,9.790040016174316,0.07826046645641327,-0.03621229901909828
1761402652755411500,9.861411376953125,9.788843154907227,0.06868366152048111,-0.042197804898023605
1761402652765492700,9.87149267578125,9.797223091125488,0.07347206771373749,-0.03621229901909828
1761402652775574000,9.881573974609376,9.799616813659668,0.07706336677074432,-0.037484221160411835
1761402652785655300,9.8916552734375,9.794828414916992,0.08065467327833176,-0.03501519933342934
1761402652795737000,9.901737060546875,9.797223091125488,0.0818517729640007,-0.03381809964776039
1761402652805818000,9.911818115234375,9.787646293640137,0.07466916739940643,-0.03621229901909828
1761402652815899100,9.921899169921875,9.797073364257812,0.07586626708507538,-0.03381809964776039
1761402652826006500,9.932006591796876,9.791088104248047,0.07579144835472107,-0.044517189264297485
1761402652836061400,9.9420615234375,9.78869342803955,0.07579144835472107,-0.03853168338537216
1761402652846142700,9.952142822265625,9.7767972946167,0.07100304216146469,-0.02775777503848076
1761402652856224500,9.962224609375,9.793481826782227,0.06988076120615005,-0.03733458369970322
1761402652866305300,9.97230517578125,9.795876502990723,0.07586626708507538,-0.03621229901909828
1761402652876386800,9.98238671875,9.78757095336914,0.06741174310445786,-0.03494038060307503
1761402652886459600,9.992459716796875,9.783905029296875,0.06501753628253937,-0.03853168338537216
1761402652896550000,10.0025498046875,9.786599159240723,0.06995557993650436,-0.046986207365989685
1761402652906630400,10.01263037109375,9.794978141784668,0.06636428087949753,-0.032695818692445755
1761402652916711700,10.022711669921875,9.786673545837402,0.07826046645641327,-0.02910451404750347
1761402652926793000,10.03279296875,9.786599159240723,0.07706336677074432,-0.0338929183781147
1761402652936874200,10.042874267578124,9.80216121673584,0.07594108581542969,-0.03868132084608078
1761402652946955500,10.05295556640625,9.77941608428955,0.07466916739940643,-0.03860650211572647
1761402652957036800,10.063036865234375,9.787796020507812,0.0627729743719101,-0.032695818692445755
1761402652967118000,10.0731181640625,9.797372817993164,0.07234977930784225,-0.035090018063783646
1761402652977199400,10.083199462890626,9.794304847717285,0.06733692437410355,-0.031199440360069275
1761402652987281000,10.093281005859374,9.796699523925781,0.0661398246884346,-0.033593643456697464
1761402652997362000,10.10336181640625,9.796699523925781,0.07092822343111038,-0.03957914561033249
1761402653017543700,10.123543701171876,9.794304847717285,0.07332243025302887,-0.03479074314236641
1761402653027605800,10.133605712890626,9.778742790222168,0.0744447112083435,-0.038307227194309235
1761402653037687600,10.1436875,9.796699523925781,0.07332243025302887,-0.038382045924663544
1761402653047769000,10.15376904296875,9.794304847717285,0.08043020963668823,-0.03239654004573822
1761402653057849600,10.163849609375,9.776497840881348,0.07564181089401245,-0.035987842828035355
1761402653067908900,10.173908935546875,9.788469314575195,0.07571662962436676,-0.04197334870696068
1761402653078006500,10.184006591796875,9.799242973327637,0.07220014184713364,-0.031274259090423584
1761402653088089000,10.194089111328125,9.798046112060547,0.07212532311677933,-0.03247135877609253
1761402653098141200,10.20414111328125,9.799242973327637,0.06980594247579575,-0.026485856622457504
1761402653108252200,10.214252197265624,9.788469314575195,0.07811082899570465,-0.03957914561033249
1761402653118337000,10.2243369140625,9.794454574584961,0.06741174310445786,-0.0396539643406868
1761402653128418600,10.23441845703125,9.78487777709961,0.0661398246884346,-0.03007715940475464
1761402653138499600,10.24449951171875,9.80216121673584,0.06875848025083542,-0.0363619364798069
1761402653148580900,10.254580810546875,9.794978141784668,0.0735468864440918,-0.039878420531749725
1761402653158662700,10.26466259765625,9.788992881774902,0.07706336677074432,-0.03149871528148651
1761402653168739300,10.2747392578125,9.799766540527344,0.0735468864440918,-0.037484221160411835
1761402653178825700,10.28482568359375,9.781810760498047,0.07466916739940643,-0.032620999962091446
1761402653188866800,10.29486669921875,9.788992881774902,0.06875848025083542,-0.03868132084608078
1761402653198990600,10.304990478515625,9.798569679260254,0.06995557993650436,-0.03868132084608078
1761402653209068800,10.31506884765625,9.786599159240723,0.06397007405757904,-0.04107552394270897
1761402653219124200,10.325124267578126,9.797073364257812,0.07586626708507538,-0.03860650211572647
1761402653229211400,10.33521142578125,9.795876502990723,0.071077860891819,-0.039803601801395416
1761402653239308800,10.345308837890625,9.793481826782227,0.06868366152048111,-0.03733458369970322
1761402653249393700,10.3553935546875,9.794678688049316,0.07826046645641327,-0.04092588648200035
1761402653259475200,10.36547509765625,9.78637409210205,0.07339724898338318,-0.03613748028874397
1761402653269556200,10.37555615234375,9.783980369567871,0.07579144835472107,-0.03972878307104111
1761402653279637800,10.3856376953125,9.787496566772461,0.06621464341878891,-0.042122986167669296
1761402653289718800,10.39571875,9.792284965515137,0.06988076120615005,-0.03733458369970322
1761402653299796200,10.405796142578126,9.794604301452637,0.07818564772605896,-0.03972878307104111
1761402653309881600,10.415881591796875,9.793407440185547,0.06980594247579575,-0.03733458369970322
1761402653319954400,10.425954345703126,9.800589561462402,0.06389525532722473,-0.03134907782077789
1761402653330043600,10.436043701171876,9.793407440185547,0.07220014184713364,-0.03613748028874397
1761402653340145000,10.446144775390625,9.794604301452637,0.0686088427901268,-0.03613748028874397
1761402653350181000,10.45618115234375,9.787422180175781,0.07332243025302887,-0.031274259090423584
1761402653360284200,10.4662841796875,9.785027503967285,0.05544073134660721,-0.036062661558389664
1761402653370329600,10.47632958984375,9.788619041442871,0.07220014184713364,-0.03486556187272072
1761402653380451000,10.486451171875,9.792060852050781,0.07571662962436676,-0.036062661558389664
1761402653390506200,10.49650634765625,9.78248405456543,0.07803601026535034,-0.03239654004573822
1761402653400613000,10.506613037109375,9.790863037109375,0.07092822343111038,-0.03247135877609253
1761402653410694100,10.516694091796875,9.796849250793457,0.06973112374544144,-0.03247135877609253
1761402653420775400,10.526775390625,9.787272453308105,0.06973112374544144,-0.035987842828035355
1761402653430853400,10.536853271484375,9.788469314575195,0.07212532311677933,-0.031274259090423584
1761402653440938000,10.54693798828125,9.78248405456543,0.07212532311677933,-0.0371849462389946
1761402653451019800,10.557019775390625,9.792060852050781,0.07811082899570465,-0.0396539643406868
1761402653461062400,10.5670625,9.795726776123047,0.06501753628253937,-0.04332008585333824
1761402653471182000,10.57718212890625,9.789815902709961,0.06741174310445786,-0.03374328091740608
1761402653481262800,10.587262939453124,9.785027503967285,0.07212532311677933,-0.031274259090423584
1761402653491319000,10.597319091796875,9.787422180175781,0.06980594247579575,-0.03845686465501785
1761402653501425700,10.60742578125,9.802908897399902,0.06868366152048111,-0.03972878307104111
1761402653511506700,10.617506591796875,9.792210578918457,0.08297405391931534,-0.04204816743731499
1761402653521588200,10.627588134765626,9.78136157989502,0.06741174310445786,-0.04803367331624031
1761402653531669200,10.637669189453124,9.794604301452637,0.07220014184713364,-0.03733458369970322
1761402653541750800,10.647750732421875,9.789216995239258,0.07197568565607071,-0.03942950814962387
1761402653551832000,10.65783203125,9.788020133972168,0.0635959804058075,-0.038232408463954926
1761402653561909200,10.6679091796875,9.794005393981934,0.07556699216365814,-0.04421791434288025
1761402653571994000,10.677994140625,9.788095474243164,0.07796119153499603,-0.040626611560583115
1761402653582050800,10.68805078125,9.79288387298584,0.06479308009147644,-0.02753331884741783
1761402653592157200,10.6981572265625,9.79879379272461,0.06606500595808029,-0.03711012750864029
1761402653602217000,10.708217041015626,9.783307075500488,0.07077858597040176,-0.035838205367326736
1761402653612319700,10.71831982421875,9.805976867675781,0.0768389105796814,-0.031124621629714966
1761402653622397200,10.728397216796875,9.80029010772705,0.06374561786651611,-0.038382045924663544
1761402653632459300,10.738459228515625,9.794304847717285,0.06973112374544144,-0.03239654004573822
1761402653642563300,10.748563232421875,9.78831958770752,0.07324761152267456,-0.04077624902129173
1761402653652644400,10.758644287109375,9.799093246459961,0.07451952993869781,-0.03239654004573822
1761402653662703000,10.768703125,9.784728050231934,0.07324761152267456,-0.033593643456697464
1761402653672807200,10.77880712890625,9.78951644897461,0.07092822343111038,-0.03957914561033249
1761402653682884900,10.788884765625,9.777545928955078,0.06965630501508713,-0.035913024097681046
1761402653692969700,10.7989697265625,9.78712272644043,0.0744447112083435,-0.03957914561033249
1761402653703048700,10.809048583984374,9.793781280517578,0.07115267962217331,-0.035090018063783646
1761402653713132300,10.81913232421875,9.794978141784668,0.0735468864440918,-0.03868132084608078
1761402653723206000,10.829205810546876,9.786599159240723,0.06516718119382858,-0.032695818692445755
1761402653733295000,10.839295166015624,9.787796020507812,0.07826046645641327,-0.0338929183781147
1761402653743376000,10.8493759765625,9.799766540527344,0.07713818550109863,-0.032695818692445755
1761402653753453600,10.85945361328125,9.788992881774902,0.07826046645641327,-0.03868132084608078
1761402653763539000,10.8695390625,9.792584419250488,0.07234977930784225,-0.04107552394270897
1761402653773619700,10.87961962890625,9.790189743041992,0.06636428087949753,-0.037484221160411835
1761402653783701800,10.88970166015625,9.787796020507812,0.06756138056516647,-0.03868132084608078
1761402653793782300,10.8997822265625,9.787796020507812,0.07115267962217331,-0.04107552394270897
1761402653803864000,10.909864013671875,9.794978141784668,0.06516718119382858,-0.032695818692445755
1761402653813941000,10.91994091796875,9.798569679260254,0.07474398612976074,-0.037484221160411835
1761402653824026400,10.9300263671875,9.77941608428955,0.06748656183481216,-0.03860650211572647
1761402653834108200,10.940108154296874,9.794978141784668,0.06516718119382858,-0.035090018063783646
1761402653864351000,10.97035107421875,9.78368091583252,0.07571662962436676,-0.04197334870696068
1761402653874432800,10.980432861328126,9.788469314575195,0.07332243025302887,-0.038382045924663544
1761402653884510000,10.990510009765625,9.790863037109375,0.07332243025302887,-0.04085106775164604
1761402653894595300,11.00059521484375,9.78487777709961,0.0769137293100357,-0.03000234067440033
1761402653904676900,11.0106767578125,9.807622909545898,0.07220014184713364,-0.03254617750644684
1761402653914741800,11.02074169921875,9.798046112060547,0.0769137293100357,-0.03845686465501785
1761402653924813800,11.030813720703126,9.788469314575195,0.07212532311677933,-0.038382045924663544
1761402653934920400,11.04092041015625,9.787272453308105,0.07212532311677933,-0.03247135877609253
1761402653944976100,11.05097607421875,9.799542427062988,0.06509235501289368,-0.027832595631480217
1761402653955082800,11.061082763671875,9.786299705505371,0.07339724898338318,-0.03972878307104111
1761402653965163800,11.071163818359375,9.783980369567871,0.07100304216146469,-0.028954876586794853
1761402653975245600,11.08124560546875,9.78869342803955,0.06980594247579575,-0.03972878307104111
1761402653985301500,11.091301513671874,9.78637409210205,0.06621464341878891,-0.03374328091740608
1761402653995408100,11.101408203125,9.793481826782227,0.06868366152048111,-0.03733458369970322
1761402654005489400,11.111489501953125,9.78869342803955,0.07100304216146469,-0.04092588648200035
1761402654015570700,11.12157080078125,9.797073364257812,0.06988076120615005,-0.032620999962091446
1761402654025651700,11.131651611328126,9.796175956726074,0.06875848025083542,-0.039878420531749725
1761402654035733500,11.1417333984375,9.792584419250488,0.06397007405757904,-0.04346972331404686
1761402654045790700,11.151790771484375,9.783007621765137,0.071077860891819,-0.03149871528148651
1761402654055895800,11.161895751953125,9.792584419250488,0.07833528518676758,-0.039878420531749725
1761402654065976600,11.1719765625,9.791387557983398,0.06875848025083542,-0.03628711774945259
1761402654076058400,11.182058349609376,9.787796020507812,0.06995557993650436,-0.0338929183781147
1761402654086115000,11.192114990234375,9.794978141784668,0.06875848025083542,-0.03149871528148651
1761402654096220700,11.202220703125,9.791387557983398,0.06756138056516647,-0.0338929183781147
1761402654106291200,11.212291259765625,9.792359352111816,0.07100304216146469,-0.030226796865463257
1761402654116383000,11.222383056640625,9.799467086791992,0.06628946214914322,-0.04100070521235466
1761402654126464300,11.23246435546875,9.795876502990723,0.07466916739940643,-0.04092588648200035
1761402654136545500,11.242545654296874,9.788768768310547,0.07220014184713364,-0.03494038060307503
1761402654146627000,11.252626953125,9.791088104248047,0.07100304216146469,-0.03613748028874397
1761402654156708000,11.2627080078125,9.783980369567871,0.07579144835472107,-0.03853168338537216
1761402654166789600,11.27278955078125,9.791088104248047,0.071077860891819,-0.03972878307104111
1761402654176870700,11.28287060546875,9.78757095336914,0.0686088427901268,-0.03613748028874397
1761402654186952200,11.2929521484375,9.796998977661133,0.07339724898338318,-0.03733458369970322
1761402654197033200,11.303033203125,9.786224365234375,0.06501753628253937,-0.03366846218705177
1761402654207115000,11.313114990234375,9.787422180175781,0.06621464341878891,-0.03725976496934891
1761402654217171000,11.3231708984375,9.785027503967285,0.06262333691120148,-0.036062661558389664
1761402654227276800,11.33327685546875,9.786224365234375,0.06621464341878891,-0.03725976496934891
1761402654237338400,11.34333837890625,9.788619041442871,0.06980594247579575,-0.03366846218705177
1761402654247439400,11.353439453125,9.800589561462402,0.07698854804039001,-0.02775777503848076
1761402654257495300,11.363495361328125,9.782633781433105,0.07332243025302887,-0.03486556187272072
1761402654267602400,11.3736025390625,9.801637649536133,0.07100304216146469,-0.03725976496934891
1761402654277683700,11.38368359375,9.789666175842285,0.06853402405977249,-0.03486556187272072
1761402654287757300,11.39375732421875,9.787272453308105,0.06973112374544144,-0.035987842828035355
1761402654297846000,11.403845947265625,9.78487777709961,0.06973112374544144,-0.031199440360069275
1761402654307927000,11.413927001953125,9.78487777709961,0.07092822343111038,-0.04436755180358887
1761402654318007000,11.424007080078125,9.787272453308105,0.06853402405977249,-0.028880057856440544
1761402654328085800,11.434085693359375,9.78248405456543,0.07092822343111038,-0.04436755180358887
1761402654338169000,11.444169189453126,9.792060852050781,0.07451952993869781,-0.04085106775164604
1761402654348252200,11.454252197265625,9.792584419250488,0.07833528518676758,-0.04107552394270897
1761402654358333400,11.46433349609375,9.797372817993164,0.06397007405757904,-0.037484221160411835
1761402654368415000,11.4744150390625,9.792584419250488,0.07833528518676758,-0.042272623628377914
1761402654378496500,11.48449658203125,9.798569679260254,0.06875848025083542,-0.03628711774945259
1761402654388573400,11.494573486328125,9.787796020507812,0.07115267962217331,-0.037484221160411835
1761402654398658800,11.504658935546875,9.80687427520752,0.07003039866685867,-0.039953239262104034
1761402654408739800,11.51473974609375,9.796175956726074,0.06157587468624115,-0.0338929183781147
1761402654418796800,11.524796875,9.784204483032227,0.07347206771373749,-0.035090018063783646
1761402654428902100,11.534902099609376,9.796699523925781,0.06494271755218506,-0.033593643456697464
1761402654438958600,11.54495849609375,9.793107986450195,0.07212532311677933,-0.038382045924663544
1761402654449061000,11.55506103515625,9.785924911499023,0.0768389105796814,-0.033593643456697464
1761402654459146200,11.565146240234375,9.796699523925781,0.07571662962436676,-0.04077624902129173
1761402654469227500,11.5752275390625,9.794304847717285,0.07212532311677933,-0.03957914561033249
1761402654479309300,11.585309326171876,9.794304847717285,0.07092822343111038,-0.035987842828035355
1761402654489373400,11.59537353515625,9.78831958770752,0.07324761152267456,-0.043095629662275314
1761402654499472000,11.605471923828125,9.78831958770752,0.07085340470075607,-0.04429273307323456
1761402654509552400,11.615552490234375,9.790863037109375,0.06494271755218506,-0.03486556187272072
1761402654519608000,11.625608154296875,9.78368091583252,0.07212532311677933,-0.035987842828035355
1761402654529715200,11.635715087890626,9.78368091583252,0.07571662962436676,-0.033593643456697464
1761402654539796500,11.64579638671875,9.787272453308105,0.07212532311677933,-0.04436755180358887
1761402654549852400,11.655852294921875,9.79565143585205,0.07212532311677933,-0.03725976496934891
1761402654559934500,11.6659345703125,9.796849250793457,0.06501753628253937,-0.03486556187272072
1761402654570040000,11.6760400390625,9.78248405456543,0.07571662962436676,-0.04317044839262962
1761402654580121000,11.68612109375,9.7860746383667,0.07811082899570465,-0.04317044839262962
1761402654590203400,11.696203369140624,9.785924911499023,0.058957215398550034,-0.031199440360069275
1761402654600284000,11.706283935546875,9.78951644897461,0.07332243025302887,-0.04908113554120064
1761402654610365400,11.716365478515625,9.78712272644043,0.07205050438642502,-0.035987842828035355
1761402654620446500,11.726446533203125,9.7907133102417,0.07205050438642502,-0.03000234067440033
1761402654630527500,11.736527587890626,9.778742790222168,0.07205050438642502,-0.03950432687997818
1761402654640605400,11.74660546875,9.794304847717285,0.07332243025302887,-0.04556465148925781
1761402654650691000,11.756691162109375,9.78719711303711,0.07564181089401245,-0.03000234067440033
1761402654660741600,11.76674169921875,9.78951644897461,0.06374561786651611,-0.033593643456697464
1761402654670853000,11.77685302734375,9.78869342803955,0.06748656183481216,-0.046911388635635376
1761402654680911000,11.7869111328125,9.791088104248047,0.06868366152048111,-0.044517189264297485
1761402654691015200,11.79701513671875,9.78869342803955,0.07220014184713364,-0.03853168338537216
1761402654701072000,11.80707177734375,9.794678688049316,0.06389525532722473,-0.03501519933342934
1761402654711174400,11.81717431640625,9.781511306762695,0.07100304216146469,-0.042122986167669296
1761402654721259300,11.82725927734375,9.787496566772461,0.06621464341878891,-0.03613748028874397
1761402654731340800,11.8373408203125,9.787496566772461,0.06980594247579575,-0.03972878307104111
1761402654741421600,11.847421630859374,9.786299705505371,0.06980594247579575,-0.03853168338537216
1761402654751503400,11.85750341796875,9.79101276397705,0.0686088427901268,-0.03374328091740608
1761402654761584600,11.867584716796875,9.786224365234375,0.06621464341878891,-0.03845686465501785
1761402654771661800,11.877661865234375,9.77784538269043,0.06494271755218506,-0.031274259090423584
1761402654781744400,11.887744384765625,9.786224365234375,0.07332243025302887,-0.03366846218705177
1761402654791828200,11.897828125,9.793407440185547,0.0686088427901268,-0.03494038060307503
1761402654801883600,11.907883544921875,9.789741516113281,0.06741174310445786,-0.04803367331624031
1761402654811990500,11.917990478515625,9.793407440185547,0.07100304216146469,-0.03374328091740608
1761402654822046700,11.928046630859376,9.788619041442871,0.07698854804039001,-0.036062661558389664
1761402654832153600,11.938153564453126,9.79565143585205,0.06973112374544144,-0.03247135877609253
1761402654842230500,11.94823046875,9.78487777709961,0.07332243025302887,-0.038382045924663544
1761402654852315600,11.958315673828125,9.791985511779785,0.07332243025302887,-0.04556465148925781
1761402654862397200,11.968397216796875,9.798046112060547,0.07459434866905212,-0.03845686465501785
1761402654872452900,11.978452880859376,9.788469314575195,0.06973112374544144,-0.04317044839262962
1761402654882560500,11.988560546875,9.781286239624023,0.07092822343111038,-0.04317044839262962
1761402654892640500,11.998640625,9.78487777709961,0.06973112374544144,-0.03000234067440033
1761402654902718700,12.00871875,9.787272453308105,0.06853402405977249,-0.03486556187272072
1761402654912782000,12.018781982421874,9.78368091583252,0.06733692437410355,-0.04317044839262962
1761402654922884900,12.028884765625,9.79565143585205,0.07451952993869781,-0.03486556187272072
1761402654932966100,12.038966064453126,9.800439834594727,0.07220014184713364,-0.02768295630812645
1761402654943025000,12.04902490234375,9.792060852050781,0.07092822343111038,-0.0396539643406868
1761402654953128700,12.059128662109375,9.789666175842285,0.07451952993869781,-0.036062661558389664
1761402654963206000,12.069205810546874,9.794454574584961,0.07332243025302887,-0.036062661558389664
1761402654973291300,12.079291259765625,9.792060852050781,0.07451952993869781,-0.04085106775164604
1761402654983347000,12.089346923828124,9.79565143585205,0.07571662962436676,-0.0396539643406868
1761402654993478100,12.09947802734375,9.78989028930664,0.07818564772605896,-0.03853168338537216
1761402655003535400,12.109535400390625,9.78989028930664,0.071077860891819,-0.04332008585333824
1761402655013616000,12.1196162109375,9.779191970825195,0.06741174310445786,-0.03853168338537216
1761402655023697700,12.12969775390625,9.786299705505371,0.06382043659687042,-0.03733458369970322
1761402655033774300,12.1397744140625,9.787496566772461,0.07339724898338318,-0.03853168338537216
1761402655043860200,12.149860107421874,9.793481826782227,0.07586626708507538,-0.04092588648200035
1761402655053940700,12.159940673828125,9.78757095336914,0.07220014184713364,-0.030151978135108948
1761402655064022000,12.17002197265625,9.797073364257812,0.06748656183481216,-0.03381809964776039
1761402655074103600,12.180103515625,9.791088104248047,0.07579144835472107,-0.03733458369970322
1761402655084185600,12.190185546875,9.800664901733398,0.06269815564155579,-0.039803601801395416
1761402655094263600,12.200263671875,9.785101890563965,0.06741174310445786,-0.03972878307104111
1761402655104348000,12.210347900390625,9.781585693359375,0.07579144835472107,-0.03853168338537216
1761402655114409000,12.220408935546875,9.786299705505371,0.07100304216146469,-0.03853168338537216
1761402655124484600,12.230484619140626,9.792284965515137,0.06868366152048111,-0.04092588648200035
1761402655134591000,12.240591064453126,9.783905029296875,0.06262333691120148,-0.04092588648200035
1761402655144672800,12.2506728515625,9.793481826782227,0.071077860891819,-0.03494038060307503
1761402655154753800,12.26075390625,9.78405475616455,0.06748656183481216,-0.03621229901909828
1761402655164831200,12.270831298828124,9.786449432373047,0.07586626708507538,-0.04100070521235466
1761402655174916600,12.28091650390625,9.799616813659668,0.07474398612976074,-0.04339490458369255
1761402655184972300,12.29097216796875,9.792434692382812,0.07466916739940643,-0.03860650211572647
1761402655195079200,12.3010791015625,9.791237831115723,0.06509235501289368,-0.042197804898023605
1761402655205134800,12.311134765625,9.802011489868164,0.06636428087949753,-0.0338929183781147
1761402655215241700,12.32124169921875,9.792509078979492,0.07706336677074432,-0.030226796865463257
1761402655225322500,12.331322509765625,9.78173542022705,0.06748656183481216,-0.03381809964776039
1761402655235403800,12.34140380859375,9.783830642700195,0.06621464341878891,-0.036062661558389664
1761402655245485300,12.3514853515625,9.789815902709961,0.06501753628253937,-0.030151978135108948
1761402655255582000,12.36158203125,9.785027503967285,0.07092822343111038,-0.03366846218705177
1761402655265647600,12.371647705078125,9.785027503967285,0.07100304216146469,-0.03845686465501785
1761402655275729400,12.3817294921875,9.7814359664917,0.0769137293100357,-0.03845686465501785
1761402655285811500,12.3918115234375,9.786224365234375,0.0769137293100357,-0.03486556187272072
1761402655295892200,12.401892333984375,9.79101276397705,0.07220014184713364,-0.03374328091740608
1761402655305972500,12.411972412109375,9.795726776123047,0.06142623722553253,-0.04092588648200035
1761402655316054500,12.422054443359375,9.803208351135254,0.08072949200868607,-0.037484221160411835
1761402655326110000,12.43210986328125,9.78173542022705,0.07227496057748795,-0.03381809964776039
1761402655336217300,12.44221728515625,9.788918495178223,0.07227496057748795,-0.029029695317149162
1761402655346298400,12.45229833984375,9.792434692382812,0.06748656183481216,-0.037409402430057526
1761402655356380000,12.4623798828125,9.793631553649902,0.06748656183481216,-0.044592007994651794
1761402655366445000,12.472445068359375,9.78405475616455,0.07227496057748795,-0.037409402430057526
1761402655376531700,12.48253173828125,9.794828414916992,0.07945756614208221,-0.04578910768032074
1761402655386623000,12.492623046875,9.796026229858398,0.07227496057748795,-0.03149871528148651
1761402655396704300,12.502704345703124,9.791088104248047,0.07698854804039001,-0.046911388635635376
1761402655406786000,12.5127861328125,9.78637409210205,0.07818564772605896,-0.03134907782077789
1761402655416867300,12.522867431640625,9.792284965515137,0.07466916739940643,-0.04332008585333824
1761402655426948000,12.532947998046875,9.78869342803955,0.06741174310445786,-0.03853168338537216
1761402655437028900,12.54302880859375,9.78757095336914,0.06382043659687042,-0.024241292849183083
1761402655447110400,12.5531103515625,9.78757095336914,0.07220014184713364,-0.03134907782077789
1761402655457191400,12.56319140625,9.797073364257812,0.07586626708507538,-0.04332008585333824
1761402655467273500,12.5732734375,9.788768768310547,0.08057985454797745,-0.03733458369970322
1761402655477329200,12.5833291015625,9.793631553649902,0.06868366152048111,-0.03860650211572647
1761402655487436300,12.593436279296874,9.792434692382812,0.08304887264966965,-0.03381809964776039
1761402655497516800,12.603516845703124,9.791237831115723,0.071077860891819,-0.03621229901909828
1761402655507597800,12.613597900390625,9.793631553649902,0.06988076120615005,-0.03621229901909828
1761402655517665300,12.623665283203126,9.796026229858398,0.06157587468624115,-0.03149871528148651
1761402655527760600,12.6337607421875,9.792434692382812,0.06269815564155579,-0.03621229901909828
1761402655537842400,12.643842529296874,9.782857894897461,0.07586626708507538,-0.042122986167669296
1761402655547923200,12.653923095703124,9.78525161743164,0.06868366152048111,-0.03860650211572647
1761402655558003000,12.6640029296875,9.793257713317871,0.0661398246884346,-0.036062661558389664
1761402655568081400,12.674081298828124,9.787272453308105,0.07451952993869781,-0.038382045924663544
1761402655578141400,12.684141357421876,9.78368091583252,0.07212532311677933,-0.04317044839262962
1761402655588248300,12.694248291015626,9.790863037109375,0.07332243025302887,-0.04085106775164604
1761402655598326000,12.704325927734375,9.787272453308105,0.06853402405977249,-0.03486556187272072
1761402655608411100,12.7144111328125,9.796849250793457,0.0769137293100357,-0.03007715940475464
1761402655618492000,12.724491943359375,9.788469314575195,0.0769137293100357,-0.03366846218705177
1761402655628573700,12.73457373046875,9.793257713317871,0.06733692437410355,-0.0396539643406868
1761402655638655000,12.744655029296876,9.786299705505371,0.07339724898338318,-0.04332008585333824
1761402655648736500,12.754736572265625,9.78989028930664,0.07220014184713364,-0.03733458369970322
1761402655658817300,12.7648173828125,9.791162490844727,0.06150105595588684,-0.019452888518571854
1761402655668894500,12.77489453125,9.785177230834961,0.07459434866905212,-0.03613748028874397
