time,seconds_elapsed,z,y,x
1761402643001769000,0.10776904296875,0.000016653904822305776,-0.0010991577291861176,0.0006661561783403158
1761402643011823000,0.117822998046875,-0.0007161179091781378,-0.000016653904822305776,0.0005329249543137848
1761402643021934000,0.12793408203125,-0.0002165007608709857,0.00003330780964461155,-0.0009825803572311997
1761402643032011000,0.138010986328125,0.0001498851488577202,-0.0005329249543137848,0.0001498851488577202
1761402643042083600,0.14808349609375,0.0001332312385784462,-0.0005995405954308808,0.00008326952229253948
1761402643052173300,0.15817333984375,-0.0005162710440345109,0.0008160413126461208,-0.0007327718194574118
1761402643062249700,0.168249755859375,0.0005329249543137848,0.00023315467115025967,-0.00044965543202124536
1761402643072336000,0.1783359375,0.0002831163874361664,0.00008326952229253948,0.0011324655497446656
1761402643082418000,0.18841796875,-0.000016653904822305776,0.0005995405954308808,-0.0005662327748723328
1761402643092486400,0.198486328125,-0.0006828100886195898,0.00009992343257181346,0.00003330780964461155
1761402643102581200,0.208581298828125,0.0003330780891701579,0,0.0003330780891701579
1761402643112342000,0.218342041015625,-0.00039969373028725386,0,-0.000016653904822305776
1761402643122425900,0.22842578125,-0.0009825803572311997,0.00048296325257979333,0.0005162710440345109
1761402643132799200,0.23879931640625,0.0001498851488577202,-0.0004330015217419714,0
1761402643142905600,0.248905517578125,0.00044965543202124536,0.00003330780964461155,-0.00023315467115025967
1761402643152987000,0.25898681640625,0.0003497319994494319,-0.0002664624771568924,-0.0007327718194574118
1761402643163042800,0.269042724609375,0,-0.0004330015217419714,0.0006661561783403158
1761402643173149700,0.279149658203125,0.00008326952229253948,-0.0003330780891701579,0.0006328483577817678
1761402643183232000,0.28923193359375,-0.00038303982000797987,0.00018319295486435294,0.00038303982000797987
1761402643193308400,0.299308349609375,-0.000016653904822305776,0.0005662327748723328,-0.00011657733557512984
1761402643203369200,0.309369140625,0.0003164241788908839,0.00009992343257181346,0.00018319295486435294
1761402643213474800,0.319474853515625,0.0005495788645930588,-0.0008660030434839427,0.0006495022680610418
1761402643223556000,0.32955615234375,0.0001332312385784462,0.0006495022680610418,-0.0002165007608709857
1761402643233637400,0.339637451171875,-0.0003164241788908839,0.00038303982000797987,0.0002165007608709857
1761402643243718400,0.349718505859375,0.0003497319994494319,0.0006661561783403158,0.000016653904822305776
1761402643253781800,0.35978173828125,0,-0.00008326952229253948,-0.0002165007608709857
1761402643263888600,0.369888671875,-0.0005162710440345109,0.0000666156192892231,0.00048296325257979333
1761402643273937700,0.379937744140625,0.0002165007608709857,0.00038303982000797987,0.00004996171628590673
1761402643284045300,0.39004541015625,0.00009992343257181346,0.00038303982000797987,0.0003330780891701579
1761402643294099700,0.400099609375,-0.00039969373028725386,0.0008660030434839427,0.0007993874605745077
1761402643304207000,0.41020703125,-0.00016653904458507895,0.0008493491332046688,-0.00016653904458507895
1761402643314287900,0.420287841796875,0.0000666156192892231,0.000016653904822305776,0.00019984686514362693
1761402643324343800,0.43034375,-0.0002831163874361664,-0.00019984686514362693,0.00019984686514362693
1761402643334450400,0.440450439453125,-0.00019984686514362693,-0.00004996171628590673,-0.00018319295486435294
1761402643344506600,0.450506591796875,-0.00004996171628590673,0.00011657733557512984,0.0006828100886195898
1761402643354613200,0.46061328125,0.00048296325257979333,0.0001332312385784462,0.0002997702977154404
1761402643364694000,0.470694091796875,0.00003330780964461155,0.0007161179091781378,-0.0005162710440345109
1761402643374775600,0.480775634765625,0.00009992343257181346,0.00018319295486435294,0.00019984686514362693
1761402643384856800,0.49085693359375,-0.00003330780964461155,0.0004996171337552369,-0.00018319295486435294
1761402643394913300,0.500913330078125,0.0008993108640424907,0.00048296325257979333,0.0002997702977154404
1761402643405014500,0.5110146484375,0.0005495788645930588,0.0003497319994494319,-0.0001498851488577202
1761402643415078100,0.521078125,0.0004330015217419714,0.00044965543202124536,-0.0001332312385784462
1761402643425182700,0.5311826171875,0.00016653904458507895,0.00044965543202124536,-0.00011657733557512984
1761402643435238000,0.54123779296875,0.00024980856687761843,0.00023315467115025967,0.00038303982000797987
1761402643445319400,0.5513193359375,0.0004996171337552369,-0.0002165007608709857,0.0005162710440345109
1761402643455427000,0.561427001953125,0.0003164241788908839,-0.0008993108640424907,0.0009659265051595867
1761402643465482200,0.571482177734375,-0.0003164241788908839,0.00008326952229253948,0.0000666156192892231
1761402643475577000,0.5815771484375,0.0006661561783403158,0.00018319295486435294,0.0003330780891701579
1761402643485644500,0.59164453125,0.00011657733557512984,-0.0001332312385784462,0.00023315467115025967
1761402643495752000,0.601751953125,0.0001498851488577202,-0.0002831163874361664,-0.0003164241788908839
1761402643505833000,0.6118330078125,-0.0002664624771568924,0.00039969373028725386,0.00011657733557512984
1761402643515894300,0.621894287109375,-0.00009992343257181346,0.00039969373028725386,-0.0008660030434839427
1761402643525962000,0.6319619140625,0.0006495022680610418,-0.00009992343257181346,-0.00019984686514362693
1761402643536054000,0.642053955078125,-0.00016653904458507895,-0.0001332312385784462,-0.0004330015217419714
1761402643546158300,0.652158447265625,0.0003663859097287059,-0.000016653904822305776,-0.00019984686514362693
1761402643556239000,0.662239013671875,0.00038303982000797987,-0.00008326952229253948,0.0001498851488577202
1761402643566320000,0.672320068359375,-0.00003330780964461155,-0.0003497319994494319,-0.00011657733557512984
1761402643576401700,0.682401611328125,0.0004996171337552369,-0.0008493491332046688,0.00003330780964461155
1761402643586445000,0.692445068359375,0.0006495022680610418,-0.0001332312385784462,-0.0002664624771568924
1761402643596541000,0.702541015625,-0.0004163476114626974,-0.00024980856687761843,0.00019984686514362693
1761402643606646000,0.71264599609375,-0.00023315467115025967,0.0008493491332046688,-0.0002165007608709857
1761402643616726500,0.7227265625,0.0008826569537632167,0,-0.0005329249543137848
1761402643626807800,0.732807861328125,0.00038303982000797987,0.0008160413126461208,0.00044965543202124536
1761402643636906800,0.74290673828125,0.0003330780891701579,0.0002165007608709857,0.00019984686514362693
1761402643646970600,0.752970703125,-0.0003330780891701579,-0.00023315467115025967,0.0003164241788908839
1761402643657026800,0.76302685546875,-0.0001498851488577202,-0.0005329249543137848,-0.0006994639988988638
1761402643667133200,0.77313330078125,-0.00023315467115025967,-0.00044965543202124536,0.000016653904822305776
1761402643677189000,0.783189208984375,-0.00004996171628590673,-0.00004996171628590673,-0.0000666156192892231
1761402643687296500,0.793296630859375,0.00024980856687761843,-0.00046630934230051935,0.0003497319994494319
1761402643697377300,0.803377197265625,0.0002831163874361664,-0.0010325420880690217,0.0003663859097287059
1761402643707434800,0.813434814453125,-0.0003330780891701579,0.0001332312385784462,0.0009492725948803127
1761402643717539300,0.823539306640625,-0.0001498851488577202,0.00019984686514362693,-0.00004996171628590673
1761402643727597800,0.833597900390625,0,0.00003330780964461155,-0.0004996171337552369
1761402643737705700,0.843705810546875,0.0005662327748723328,-0.00004996171628590673,-0.0002165007608709857
1761402643747784000,0.853783935546875,0.00003330780964461155,0.0008993108640424907,-0.00044965543202124536
1761402643757865700,0.86386572265625,-0.0007993874605745077,-0.0002997702977154404,-0.00023315467115025967
1761402643767946800,0.87394677734375,0.0011824272805824876,0.00003330780964461155,-0.0001332312385784462
1761402643778019300,0.884019287109375,0.00024980856687761843,-0.0003663859097287059,0.0006828100886195898
1761402643788083200,0.894083251953125,-0.00046630934230051935,0.000016653904822305776,0.0001498851488577202
1761402643798189300,0.904189208984375,0.00009992343257181346,-0.00003330780964461155,0.0009326186846010387
1761402643808272100,0.914272216796875,0.0007660796400159597,0.0003330780891701579,0.0001332312385784462
1761402643818352600,0.9243525390625,0.00016653904458507895,-0.00003330780964461155,0.00009992343257181346
1761402643828429800,0.934429931640625,0.0006661561783403158,0.0001498851488577202,-0.0007161179091781378
1761402643838490600,0.94449072265625,-0.0002165007608709857,-0.0005329249543137848,0.0003164241788908839
1761402643848596500,0.954596435546875,0.00008326952229253948,-0.0007161179091781378,0.0001498851488577202
1761402643858678300,0.96467822265625,0.00009992343257181346,-0.0002997702977154404,-0.0003663859097287059
1761402643868759000,0.974759033203125,0.0002831163874361664,-0.00011657733557512984,-0.00004996171628590673
1761402643878840800,0.9848408203125,0.00004996171628590673,0.0006328483577817678,-0.00046630934230051935
1761402643888918000,0.99491796875,-0.00008326952229253948,-0.0000666156192892231,0.0003497319994494319
1761402643899003100,1.005003173828125,0.00009992343257181346,-0.00046630934230051935,0.00024980856687761843
1761402643909060400,1.015060302734375,0.0003164241788908839,0.00024980856687761843,-0.0000666156192892231
1761402643919165700,1.025165771484375,-0.0001332312385784462,-0.00004996171628590673,0
1761402643929247000,1.0352470703125,0.0002165007608709857,-0.00018319295486435294,0.0003663859097287059
1761402643939328300,1.045328369140625,-0.00004996171628590673,0.0004996171337552369,0.00011657733557512984
1761402643949409500,1.055409423828125,-0.0005162710440345109,0.0006661561783403158,-0.00011657733557512984
1761402643959487200,1.0654873046875,-0.0004996171337552369,0.0007660796400159597,0.00019984686514362693
1761402643969572000,1.075572021484375,0.00008326952229253948,0.0001498851488577202,0.0001332312385784462
1761402643979654100,1.085654052734375,-0.0005329249543137848,0.0001498851488577202,-0.0001498851488577202
1761402643989736000,1.09573583984375,-0.000016653904822305776,0.0006161945057101548,-0.000016653904822305776
1761402643999816400,1.10581640625,0.0002664624771568924,0.0002165007608709857,-0.000016653904822305776
1761402644009898200,1.115898193359375,0.0001332312385784462,-0.0000666156192892231,0.0006661561783403158
1761402644019974400,1.125974365234375,0.0003497319994494319,-0.00016653904458507895,0.000016653904822305776
1761402644030059800,1.136059814453125,-0.00038303982000797987,0.0002831163874361664,0.000016653904822305776
1761402644040141300,1.146141357421875,-0.0004996171337552369,0.00003330780964461155,0.00004996171628590673
1761402644050222600,1.15622265625,0.0003330780891701579,-0.0006328483577817678,0.0003164241788908839
1761402644060304400,1.166304443359375,0.0005662327748723328,-0.0008826569537632167,-0.0003164241788908839
1761402644070385000,1.176385009765625,-0.00018319295486435294,-0.00018319295486435294,0.0006161945057101548
1761402644080463000,1.186463134765625,-0.0001498851488577202,0,0.0002831163874361664
1761402644090554000,1.19655419921875,0.0002165007608709857,0.0001332312385784462,0.0004330015217419714
1761402644100629000,1.20662890625,-0.00016653904458507895,-0.00011657733557512984,0.00003330780964461155
1761402644110710800,1.216710693359375,0.00018319295486435294,0.00009992343257181346,0.0002997702977154404
1761402644120766500,1.226766357421875,-0.00008326952229253948,0.00019984686514362693,-0.0003663859097287059
1761402644130873600,1.23687353515625,0.00018319295486435294,-0.0006994639988988638,0.00009992343257181346
1761402644140955100,1.246955078125,-0.00018319295486435294,-0.0002165007608709857,0.0005828866851516068
1761402644151031600,1.257031494140625,0.00019984686514362693,-0.0003497319994494319,0.000016653904822305776
1761402644161117000,1.267116943359375,-0.0001498851488577202,0.00011657733557512984,0.0002165007608709857
1761402644171191000,1.27719091796875,0.00048296325257979333,0.0002664624771568924,0
1761402644181280000,1.287280029296875,-0.00023315467115025967,0.0003497319994494319,0.00039969373028725386
1761402644191361800,1.29736181640625,-0.00038303982000797987,0.0002997702977154404,0.0008660030434839427
1761402644201442000,1.307442138671875,-0.00008326952229253948,0.0005162710440345109,0.0003497319994494319
1761402644211519200,1.317519287109375,0.0004163476114626974,0.00039969373028725386,-0.0000666156192892231
1761402644221591800,1.327591796875,-0.00003330780964461155,-0.0002165007608709857,-0.0003330780891701579
1761402644231686400,1.337686279296875,0.0002831163874361664,-0.00046630934230051935,0.00019984686514362693
1761402644241744600,1.34774462890625,0.000016653904822305776,0.0005828866851516068,0
1761402644251848400,1.357848388671875,0.00038303982000797987,0.0005162710440345109,-0.0003164241788908839
1761402644261930500,1.367930419921875,0.0007161179091781378,0.0001498851488577202,0.00023315467115025967
1761402644271981300,1.377981201171875,0.0002165007608709857,0.00039969373028725386,0.00023315467115025967
1761402644282067500,1.3880673828125,0.00008326952229253948,0.00019984686514362693,0.0005662327748723328
1761402644292169700,1.398169677734375,0.00016653904458507895,0.0005329249543137848,0.0005162710440345109
1761402644302255400,1.40825537109375,-0.00019984686514362693,-0.0006994639988988638,-0.00018319295486435294
1761402644312337200,1.418337158203125,0.000016653904822305776,-0.0009326186846010387,0.0010325420880690217
1761402644322382600,1.428382568359375,-0.0004996171337552369,-0.0001332312385784462,-0.00018319295486435294
1761402644332499500,1.43849951171875,-0.0004330015217419714,-0.0000666156192892231,0.00016653904458507895
1761402644342548200,1.44854833984375,-0.0004330015217419714,0.00024980856687761843,0.00004996171628590673
1761402644352661500,1.45866162109375,-0.0000666156192892231,-0.00019984686514362693,0.0007660796400159597
1761402644362742500,1.468742431640625,-0.00048296325257979333,-0.00016653904458507895,0.0006328483577817678
1761402644372798500,1.478798583984375,-0.00004996171628590673,0.0006828100886195898,0.0001498851488577202
1761402644382905900,1.48890576171875,0.0004330015217419714,0.00011657733557512984,-0.0002664624771568924
1761402644392961300,1.498961181640625,0.00044965543202124536,0.0007494257297366858,-0.00016653904458507895
1761402644403063800,1.509063720703125,0.0005495788645930588,0.0001498851488577202,0.0002165007608709857
1761402644413149700,1.519149658203125,0.00046630934230051935,0.0004163476114626974,0.00046630934230051935
1761402644423205600,1.52920556640625,-0.00009992343257181346,0.00016653904458507895,0
1761402644433287000,1.539286865234375,-0.0003330780891701579,-0.00009992343257181346,-0.00009992343257181346
1761402644443372800,1.549372802734375,-0.0002831163874361664,0.0002165007608709857,0.00038303982000797987
1761402644453474800,1.559474853515625,-0.00004996171628590673,0.00003330780964461155,0.000016653904822305776
1761402644463556600,1.569556640625,-0.00008326952229253948,-0.0001332312385784462,0.00024980856687761843
1761402644473651000,1.57965087890625,-0.00023315467115025967,0.0007660796400159597,-0.0002664624771568924
1761402644483700500,1.589700439453125,0,0.0002664624771568924,0.0006495022680610418
1761402644493800000,1.599800048828125,0.00016653904458507895,-0.00046630934230051935,0.00003330780964461155
1761402644503860500,1.609860595703125,0.00038303982000797987,0.00018319295486435294,0.0010158881777897477
1761402644513962000,1.6199619140625,-0.00011657733557512984,-0.0002997702977154404,0.00019984686514362693
1761402644524043500,1.63004345703125,0.0004996171337552369,-0.00039969373028725386,0.0000666156192892231
1761402644534132700,1.6401328125,0.0007660796400159597,-0.0005162710440345109,0.0005828866851516068
1761402644544206000,1.6502060546875,0.0005162710440345109,0.00009992343257181346,0.00019984686514362693
1761402644554287400,1.660287353515625,0.0001498851488577202,-0.00016653904458507895,0.0008493491332046688
1761402644564343300,1.67034326171875,0.00008326952229253948,-0.0005662327748723328,-0.0002664624771568924
1761402644574450700,1.68045068359375,0.0000666156192892231,0.000016653904822305776,0.00016653904458507895
1761402644584531200,1.69053125,0.0008160413126461208,0.0004996171337552369,-0.0004996171337552369
1761402644594612500,1.700612548828125,0.00008326952229253948,-0.0003164241788908839,-0.00009992343257181346
1761402644604689700,1.710689697265625,0.00039969373028725386,-0.00011657733557512984,0.00016653904458507895
1761402644614751700,1.720751708984375,0.0003330780891701579,0.0006661561783403158,0.00016653904458507895
1761402644624857000,1.730857177734375,0.0008660030434839427,-0.0003497319994494319,0.0006328483577817678
1761402644634937600,1.7409375,0.0004996171337552369,0,0.0002997702977154404
1761402644645019000,1.751018798828125,0.00003330780964461155,-0.00019984686514362693,0.00044965543202124536
1761402644655100200,1.76110009765625,-0.0003330780891701579,0.0005828866851516068,-0.00046630934230051935
1761402644665181400,1.771181396484375,-0.00016653904458507895,0.00044965543202124536,-0.00008326952229253948
1761402644675263700,1.781263671875,-0.0001498851488577202,-0.00048296325257979333,-0.0003164241788908839
1761402644685344000,1.791343994140625,-0.00018319295486435294,0.0007327718194574118,0.0003663859097287059
1761402644695425000,1.801425048828125,0.00023315467115025967,0.00003330780964461155,0.0006328483577817678
1761402644705506600,1.811506591796875,0.0007494257297366858,0.000016653904822305776,-0.0003330780891701579
1761402644715587800,1.821587890625,0.0006828100886195898,-0.0004163476114626974,0.0000666156192892231
1761402644725644300,1.831644287109375,0.0003164241788908839,0.00019984686514362693,0.00018319295486435294
1761402644735750400,1.84175048828125,0.0003330780891701579,-0.0005329249543137848,-0.0000666156192892231
1761402644745832200,1.851832275390625,-0.0002165007608709857,0.00039969373028725386,0.0001498851488577202
1761402644755913200,1.861913330078125,0.00048296325257979333,0.00009992343257181346,-0.00008326952229253948
1761402644765994500,1.871994384765625,-0.0003164241788908839,0.0001498851488577202,0.0007993874605745077
1761402644776076500,1.88207666015625,-0.00009992343257181346,-0.0004996171337552369,0.0001498851488577202
1761402644786157000,1.892156982421875,-0.00008326952229253948,-0.00003330780964461155,0.0002664624771568924
1761402644796238800,1.90223876953125,-0.00009992343257181346,-0.0001498851488577202,0.00004996171628590673
1761402644806319600,1.912319580078125,-0.0003164241788908839,-0.0005828866851516068,0.00004996171628590673
1761402644816400600,1.922400634765625,0.0000666156192892231,0.0002664624771568924,-0.00008326952229253948
1761402644826483200,1.932483154296875,-0.0003497319994494319,-0.0000666156192892231,-0.0005495788645930588
1761402644836563500,1.9425634765625,-0.00038303982000797987,0.00016653904458507895,0.0001498851488577202
1761402644846645000,1.95264501953125,0.0000666156192892231,-0.0002165007608709857,-0.0003497319994494319
1761402644856726300,1.962726318359375,0.00023315467115025967,0.000016653904822305776,-0.0005329249543137848
1761402644866781700,1.97278173828125,0.00044965543202124536,0.00044965543202124536,-0.00023315467115025967
1761402644876873000,1.982873046875,0.0007660796400159597,0.0009159647743217647,0.0004330015217419714
1761402644886970000,1.99297021484375,0.00024980856687761843,0.00048296325257979333,-0.0001332312385784462
1761402644897052400,2.003052490234375,0.0005662327748723328,0.0005495788645930588,0.0003164241788908839
1761402644907132400,2.01313232421875,0.0003164241788908839,0.0006661561783403158,0.00046630934230051935
1761402644917195800,2.02319580078125,-0.00038303982000797987,0.0003164241788908839,0.0002664624771568924
1761402644927269600,2.03326953125,0.00009992343257181346,0.0007993874605745077,0.00011657733557512984
1761402644937377000,2.043376953125,0.0002997702977154404,0.00039969373028725386,-0.00004996171628590673
1761402644947458600,2.05345849609375,-0.0003497319994494319,0.00048296325257979333,0.00024980856687761843
1761402644957538800,2.063538818359375,-0.0006828100886195898,0.00009992343257181346,0.00024980856687761843
1761402644967620900,2.073620849609375,-0.0004330015217419714,0.0004330015217419714,-0.0003497319994494319
1761402644977701600,2.08370166015625,-0.00038303982000797987,0.0004163476114626974,-0.0003330780891701579
1761402644987782700,2.09378271484375,-0.0004330015217419714,-0.00011657733557512984,0.0006661561783403158
1761402644997864200,2.1038642578125,0.000016653904822305776,0.00009992343257181346,-0.0003164241788908839
1761402645007946000,2.113946044921875,-0.00003330780964461155,-0.0002165007608709857,0.00003330780964461155
1761402645018023000,2.12402294921875,-0.0003330780891701579,-0.0005995405954308808,-0.0000666156192892231
1761402645028104200,2.134104248046875,0.00023315467115025967,0.0003330780891701579,-0.00008326952229253948
1761402645038185500,2.144185546875,-0.0007161179091781378,0.0000666156192892231,-0.00039969373028725386
1761402645048270600,2.1542705078125,-0.0006661561783403158,-0.0002997702977154404,-0.0004996171337552369
1761402645058351900,2.164351806640625,-0.0004330015217419714,-0.00003330780964461155,-0.0003330780891701579
1761402645068433700,2.17443359375,0.00003330780964461155,0.0007660796400159597,-0.00011657733557512984
1761402645078515200,2.18451513671875,-0.00038303982000797987,0.0001332312385784462,-0.0003497319994494319
1761402645088596200,2.19459619140625,0.0003164241788908839,0.00023315467115025967,-0.00009992343257181346
1761402645098678000,2.204677978515625,-0.00023315467115025967,-0.0000666156192892231,-0.00018319295486435294
1761402645108736800,2.21473681640625,0.0005662327748723328,0.0006495022680610418,-0.00018319295486435294
1761402645118840000,2.224840087890625,-0.0004163476114626974,0.00019984686514362693,-0.00011657733557512984
1761402645128921600,2.234921630859375,-0.000016653904822305776,0.0006661561783403158,0.00018319295486435294
1761402645139002000,2.245002197265625,-0.0001332312385784462,-0.00019984686514362693,-0.00008326952229253948
1761402645149084700,2.255084716796875,0,-0.0005162710440345109,0.0004996171337552369
1761402645159164700,2.26516455078125,-0.0002831163874361664,0.0005995405954308808,0.0004163476114626974
1761402645169242400,2.275242431640625,-0.00019984686514362693,0.0002831163874361664,0.00016653904458507895
1761402645179328300,2.285328369140625,0,-0.0000666156192892231,-0.00008326952229253948
1761402645189409300,2.2954091796875,0.00044965543202124536,-0.000016653904822305776,-0.00023315467115025967
1761402645199491000,2.305490966796875,0.0001498851488577202,0.0006661561783403158,0.0000666156192892231
1761402645209571600,2.315571533203125,0.00038303982000797987,0.0008660030434839427,-0.00023315467115025967
1761402645219652400,2.32565234375,-0.00016653904458507895,0.00019984686514362693,0.0006161945057101548
1761402645229734000,2.33573388671875,-0.00019984686514362693,0.00024980856687761843,0.0002664624771568924
1761402645239811000,2.34581103515625,-0.000016653904822305776,-0.00016653904458507895,-0.0005162710440345109
1761402645249896700,2.355896728515625,-0.00003330780964461155,-0.0005162710440345109,-0.00039969373028725386
1761402645259978000,2.36597802734375,0.00004996171628590673,0.0006495022680610418,0.0002997702977154404
1761402645270059500,2.3760595703125,-0.0000666156192892231,0.0000666156192892231,-0.00046630934230051935
1761402645280140500,2.386140625,-0.0000666156192892231,0.00011657733557512984,-0.0002831163874361664
1761402645290221600,2.3962216796875,-0.00011657733557512984,-0.0006161945057101548,0.0001332312385784462
1761402645300277500,2.406277587890625,0.00016653904458507895,-0.00044965543202124536,-0.0003663859097287059
1761402645310384000,2.416384033203125,-0.0006328483577817678,-0.0000666156192892231,-0.000016653904822305776
1761402645320466700,2.426466796875,-0.00004996171628590673,0.0005495788645930588,-0.00016653904458507895
1761402645330547200,2.436547119140625,-0.0004163476114626974,-0.0013323123566806316,-0.0006161945057101548
1761402645340628200,2.446628173828125,0.0005162710440345109,0.0002664624771568924,0.00003330780964461155
1761402645350710000,2.4567099609375,0.0005495788645930588,-0.00044965543202124536,0.0002165007608709857
1761402645360787000,2.466786865234375,-0.00011657733557512984,-0.00018319295486435294,0.0005162710440345109
1761402645370872000,2.4768720703125,0.00024980856687761843,-0.0001498851488577202,0.0004330015217419714
1761402645380953000,2.486953125,-0.0002664624771568924,0.00023315467115025967,0.0002831163874361664
1761402645391034600,2.49703466796875,-0.000016653904822305776,0.00024980856687761843,0.0001498851488577202
1761402645401116200,2.5071162109375,-0.00019984686514362693,-0.0005162710440345109,0.00024980856687761843
1761402645411197200,2.517197265625,-0.0009326186846010387,0.0001498851488577202,-0.0002664624771568924
1761402645421278500,2.527278564453125,-0.00004996171628590673,-0.00016653904458507895,0
1761402645431356200,2.537356201171875,0.00016653904458507895,0.00038303982000797987,-0.0004996171337552369
1761402645441441000,2.54744091796875,0.0002831163874361664,0.0007827335502952337,-0.0006495022680610418
1761402645451522600,2.5575224609375,0.0002831163874361664,0.0000666156192892231,-0.0004163476114626974
1761402645461603300,2.567603271484375,0.0004330015217419714,0.0000666156192892231,-0.00038303982000797987
1761402645471685000,2.57768505859375,-0.0006994639988988638,0.0005495788645930588,-0.0002831163874361664
1761402645481744600,2.58774462890625,0.00039969373028725386,0.0003164241788908839,0.00019984686514362693
1761402645491822000,2.597822021484375,0.0003164241788908839,-0.0005162710440345109,-0.0009492725948803127
1761402645501929000,2.607928955078125,0.0005995405954308808,0.0001332312385784462,-0.00038303982000797987
1761402645512010000,2.618010009765625,-0.0004163476114626974,0.0008493491332046688,-0.00008326952229253948
1761402645522091300,2.62809130859375,0.0001498851488577202,0.00011657733557512984,-0.0001498851488577202
1761402645532172800,2.6381728515625,-0.00009992343257181346,0.00008326952229253948,-0.0003330780891701579
1761402645542253800,2.64825390625,-0.0003164241788908839,0.0001498851488577202,0.00044965543202124536
1761402645552335400,2.65833544921875,-0.0006161945057101548,-0.0007827335502952337,0.00011657733557512984
1761402645562413000,2.6684130859375,0.0002997702977154404,0.00044965543202124536,-0.00039969373028725386
1761402645572498000,2.678497802734375,-0.00011657733557512984,0.00003330780964461155,0.0006161945057101548
1761402645582580000,2.688580078125,0.0006161945057101548,0.00008326952229253948,0.0006828100886195898
1761402645592660500,2.698660400390625,0.00003330780964461155,0.00046630934230051935,-0.0003663859097287059
1761402645602741800,2.70874169921875,0.0003164241788908839,-0.0002664624771568924,-0.0006495022680610418
1761402645612823000,2.718822998046875,-0.00023315467115025967,-0.0006161945057101548,-0.0007327718194574118
1761402645622900500,2.728900390625,-0.0005995405954308808,-0.00011657733557512984,0.0001332312385784462
1761402645632985900,2.73898583984375,-0.0002165007608709857,0.00018319295486435294,0.00038303982000797987
1761402645643067000,2.74906689453125,0.00039969373028725386,-0.0005162710440345109,-0.0005162710440345109
1761402645653148200,2.759148193359375,-0.00018319295486435294,-0.00046630934230051935,-0.0003497319994494319
1761402645663229400,2.7692294921875,-0.00009992343257181346,0.00044965543202124536,-0.000016653904822305776
1761402645673311000,2.77931103515625,0.0001498851488577202,0.00004996171628590673,-0.00018319295486435294
1761402645683369000,2.789368896484375,-0.0002997702977154404,0.0008326952229253948,0.0006161945057101548
1761402645693473500,2.7994736328125,-0.000016653904822305776,0.00016653904458507895,-0.00011657733557512984
1761402645703533600,2.809533447265625,0.0003330780891701579,0.00003330780964461155,-0.00009992343257181346
1761402645713637000,2.81963720703125,-0.0003330780891701579,-0.00019984686514362693,0.0002165007608709857
1761402645723716900,2.829716796875,0.0004996171337552369,-0.0004330015217419714,-0.0003663859097287059
1761402645733798700,2.839798583984375,-0.0002165007608709857,0.0004996171337552369,-0.0007993874605745077
1761402645743857400,2.849857421875,0.0006661561783403158,-0.0002997702977154404,-0.00009992343257181346
1761402645753957000,2.85995703125,-0.000016653904822305776,-0.0005995405954308808,-0.00008326952229253948
1761402645764042500,2.87004248046875,-0.000016653904822305776,-0.00019984686514362693,0.00009992343257181346
1761402645774123800,2.880123779296875,-0.0002831163874361664,-0.00011657733557512984,-0.0001332312385784462
1761402645784205600,2.89020556640625,-0.0004330015217419714,-0.0003663859097287059,0.00046630934230051935
1761402645794286000,2.9002861328125,-0.000016653904822305776,0.00009992343257181346,-0.0002165007608709857
1761402645804367600,2.91036767578125,-0.00003330780964461155,0.0003497319994494319,-0.0005662327748723328
1761402645814449200,2.92044921875,0.00016653904458507895,0.0002997702977154404,-0.00004996171628590673
1761402645824530000,2.930530029296875,-0.00003330780964461155,0.000016653904822305776,-0.000016653904822305776
1761402645834612000,2.940612060546875,0.00003330780964461155,0.0003497319994494319,-0.00039969373028725386
1761402645844692700,2.950692626953125,0.0006994639988988638,0.0006661561783403158,-0.00003330780964461155
1761402645854774500,2.9607744140625,-0.00003330780964461155,0,-0.00018319295486435294
1761402645864855300,2.970855224609375,0.0007827335502952337,-0.0001332312385784462,0.0001498851488577202
1761402645874911500,2.980911376953125,-0.00023315467115025967,0.0008160413126461208,-0.0001498851488577202
1761402645885019100,2.99101904296875,0.000016653904822305776,0.0006328483577817678,0.0002997702977154404
1761402645895099600,3.001099609375,0.0004330015217419714,0,-0.0002831163874361664
1761402645905180200,3.01118017578125,0.00008326952229253948,0.00003330780964461155,-0.0004996171337552369
1761402645915227100,3.02122705078125,-0.0002997702977154404,-0.0004163476114626974,-0.00024980856687761843
1761402645925343700,3.03134375,-0.00011657733557512984,0.00003330780964461155,-0.0002997702977154404
1761402645935424800,3.0414248046875,0.00039969373028725386,0.00011657733557512984,0.000016653904822305776
1761402645945497900,3.051497802734375,0.0004996171337552369,0.0008993108640424907,-0.0007827335502952337
1761402645955587600,3.061587646484375,-0.00011657733557512984,0.0004330015217419714,-0.00038303982000797987
1761402645965652700,3.07165283203125,0.00009992343257181346,0.00016653904458507895,-0.0003663859097287059
1761402645975750100,3.081750244140625,0.00048296325257979333,0.00009992343257181346,-0.0008493491332046688
1761402645985831400,3.09183154296875,-0.00008326952229253948,-0.000016653904822305776,-0.0002664624771568924
1761402645995912000,3.101911865234375,0,-0.00003330780964461155,0.00009992343257181346
1761402646005989000,3.111989013671875,-0.00008326952229253948,0.0008993108640424907,-0.00024980856687761843
1761402646016040200,3.122040283203125,-0.0007327718194574118,0.0002831163874361664,0.0003497319994494319
1761402646026183000,3.132182861328125,0.00011657733557512984,0.00019984686514362693,0.0003497319994494319
1761402646036238300,3.14223828125,0.0006161945057101548,-0.00009992343257181346,-0.0003330780891701579
1761402646046319400,3.1523193359375,0.00038303982000797987,-0.0005995405954308808,-0.0008993108640424907
1761402646056374500,3.16237451171875,0.00018319295486435294,0.00003330780964461155,-0.0003164241788908839
1761402646066481000,3.17248095703125,-0.00009992343257181346,-0.0001498851488577202,0.0000666156192892231
1761402646076582400,3.18258251953125,0.0007827335502952337,0.0002664624771568924,0.00024980856687761843
1761402646086641200,3.19264111328125,-0.00016653904458507895,-0.00011657733557512984,0.00008326952229253948
1761402646096699400,3.202699462890625,0.00003330780964461155,-0.00024980856687761843,-0.00009992343257181346
1761402646106807000,3.21280712890625,0.0005995405954308808,-0.0006828100886195898,0.0003164241788908839
1761402646116887600,3.222887451171875,-0.00048296325257979333,0.0005329249543137848,0.00019984686514362693
1761402646126930000,3.232929931640625,-0.0005828866851516068,0,-0.00046630934230051935
1761402646137051100,3.243051025390625,-0.00023315467115025967,0.00018319295486435294,0.0005828866851516068
1761402646147132200,3.253132080078125,0.00003330780964461155,0.0005662327748723328,-0.000016653904822305776
1761402646157212700,3.263212646484375,0.00038303982000797987,0.00018319295486435294,-0.0005495788645930588
1761402646167294000,3.2732939453125,0.00044965543202124536,0.00009992343257181346,-0.0005329249543137848
1761402646177375500,3.28337548828125,0.00048296325257979333,-0.0005828866851516068,0.00008326952229253948
1761402646187432000,3.293431884765625,0.0006994639988988638,-0.00009992343257181346,-0.0005162710440345109
1761402646197517000,3.30351708984375,0.00003330780964461155,0.00044965543202124536,-0.00038303982000797987
1761402646207616000,3.313615966796875,-0.0001332312385784462,0.0008160413126461208,0.0002831163874361664
1761402646217675800,3.32367578125,-0.00011657733557512984,0,-0.0007827335502952337
1761402646227756500,3.333756591796875,0.00038303982000797987,-0.0001498851488577202,0.0001332312385784462
1761402646237847300,3.343847412109375,0.0004163476114626974,0.00003330780964461155,0
1761402646247928000,3.353927978515625,-0.0001332312385784462,-0.0006828100886195898,-0.0002831163874361664
1761402646257988900,3.36398876953125,-0.00046630934230051935,-0.00004996171628590673,-0.00003330780964461155
1761402646268102700,3.3741025390625,0.00011657733557512984,0.0002165007608709857,-0.00048296325257979333
1761402646278163200,3.3841630859375,0.0004996171337552369,0.0000666156192892231,-0.0004996171337552369
1761402646288269600,3.39426953125,0.0003663859097287059,0.00019984686514362693,-0.0004163476114626974
1761402646298350800,3.404350830078125,0.0006661561783403158,0.00008326952229253948,-0.0002997702977154404
1761402646308432100,3.41443212890625,-0.00009992343257181346,-0.0003330780891701579,-0.00018319295486435294
1761402646318513200,3.42451318359375,-0.0004330015217419714,0.000016653904822305776,-0.0003164241788908839
1761402646328594400,3.434594482421875,0.0004996171337552369,-0.000016653904822305776,-0.00018319295486435294
1761402646338652700,3.444652587890625,0.0001498851488577202,0.0000666156192892231,0.0000666156192892231
1761402646348761600,3.45476171875,-0.0005162710440345109,-0.0001498851488577202,0.0004163476114626974
1761402646358808600,3.46480859375,0.00023315467115025967,0.00011657733557512984,-0.0007161179091781378
1761402646368919800,3.474919921875,-0.00003330780964461155,0.00004996171628590673,0.0003497319994494319
1761402646379001600,3.485001708984375,0.00004996171628590673,-0.00024980856687761843,0.00008326952229253948
1761402646389102800,3.495102783203125,0.0000666156192892231,0.00019984686514362693,-0.0002997702977154404
1761402646399138300,3.50513818359375,-0.00016653904458507895,0.0006328483577817678,0.0002165007608709857
1761402646409268700,3.515268798828125,0.0000666156192892231,0.0005329249543137848,0.00024980856687761843
1761402646419326200,3.525326171875,0.0004330015217419714,-0.00008326952229253948,-0.0008326952229253948
1761402646429407500,3.535407470703125,-0.00009992343257181346,-0.0002997702977154404,-0.0006994639988988638
1761402646439465000,3.54546484375,-0.0003497319994494319,0.00023315467115025967,-0.00016653904458507895
1761402646449566500,3.55556640625,-0.00004996171628590673,0.00038303982000797987,-0.0005162710440345109
1761402646459631000,3.565631103515625,0.00016653904458507895,0.0007161179091781378,-0.0006495022680610418
1761402646469701000,3.575701171875,0.00004996171628590673,0.0008160413126461208,-0.00044965543202124536
1761402646479809800,3.585809814453125,-0.00016653904458507895,0.00038303982000797987,0.0003164241788908839
1761402646489895200,3.595895263671875,-0.0004996171337552369,0.0003330780891701579,-0.0005662327748723328
1761402646499950800,3.605950927734375,-0.0009659265051595867,-0.00009992343257181346,0.00009992343257181346
1761402646510058000,3.61605810546875,-0.0001332312385784462,-0.0005495788645930588,0.0004996171337552369
1761402646520135200,3.62613525390625,0.0001332312385784462,-0.00039969373028725386,0.0008826569537632167
1761402646530242600,3.63624267578125,-0.0004330015217419714,0.00004996171628590673,0.0006161945057101548
1761402646540306200,3.64630615234375,0.000016653904822305776,-0.00023315467115025967,0.0006994639988988638
1761402646550367200,3.6563671875,-0.00048296325257979333,0.00024980856687761843,0.0007327718194574118
1761402646560464100,3.666464111328125,-0.0008160413126461208,0.00024980856687761843,0.0002165007608709857
1761402646570546200,3.676546142578125,-0.00038303982000797987,0.00004996171628590673,0.00019984686514362693
1761402646580601900,3.686601806640625,0,-0.0007827335502952337,-0.0002831163874361664
1761402646590700300,3.6967001953125,-0.0004330015217419714,-0.00019984686514362693,0.00011657733557512984
1761402646600764700,3.7067646484375,-0.00046630934230051935,-0.0006495022680610418,0.0001498851488577202
1761402646610871000,3.71687109375,-0.00039969373028725386,0.00004996171628590673,0.00023315467115025967
1761402646620952000,3.7269521484375,0.000016653904822305776,-0.0005662327748723328,0.0001498851488577202
1761402646631002000,3.737002197265625,-0.0001498851488577202,-0.00023315467115025967,-0.0002664624771568924
1761402646641110800,3.74711083984375,-0.0005662327748723328,0.000016653904822305776,-0.00016653904458507895
1761402646651197000,3.757197021484375,-0.00004996171628590673,0.00018319295486435294,-0.00018319295486435294
1761402646661298200,3.767298095703125,-0.0001332312385784462,0.0008493491332046688,0.00024980856687761843
1761402646671358500,3.7773583984375,-0.00016653904458507895,-0.00004996171628590673,0.00048296325257979333
1761402646681420500,3.787420654296875,0.0002664624771568924,-0.00009992343257181346,0.0003497319994494319
1761402646691495700,3.79749560546875,-0.0007660796400159597,-0.00024980856687761843,-0.0002997702977154404
1761402646701578800,3.807578857421875,-0.00039969373028725386,-0.0006828100886195898,0.00003330780964461155
1761402646711663600,3.81766357421875,0.0005162710440345109,-0.0003164241788908839,0.00008326952229253948
1761402646721740000,3.827739990234375,-0.00044965543202124536,0.0002997702977154404,-0.0004163476114626974
1761402646731847200,3.83784716796875,0.00023315467115025967,-0.0002997702977154404,0.00011657733557512984
1761402646741902300,3.84790234375,0.0003663859097287059,-0.0002997702977154404,0.00019984686514362693
1761402646752009500,3.858009521484375,0.0001332312385784462,-0.00016653904458507895,0.0005828866851516068
1761402646762090200,3.86809033203125,-0.00039969373028725386,-0.00046630934230051935,0.0005828866851516068
1761402646772129300,3.87812939453125,-0.0007494257297366858,-0.0006328483577817678,-0.000016653904822305776
1761402646782230800,3.888230712890625,-0.00048296325257979333,-0.00038303982000797987,-0.000016653904822305776
1761402646792311600,3.8983115234375,-0.0002664624771568924,-0.0003497319994494319,0.00003330780964461155
1761402646802416000,3.908416015625,-0.00038303982000797987,-0.0002997702977154404,0.0005662327748723328
1761402646812496600,3.91849658203125,0.0000666156192892231,0.0007161179091781378,-0.0005995405954308808
1761402646822565600,3.928565673828125,-0.0004330015217419714,-0.0008826569537632167,0.0002165007608709857
1761402646832659200,3.9386591796875,-0.0003330780891701579,-0.000016653904822305776,-0.00016653904458507895
1761402646842719700,3.9487197265625,0.0004330015217419714,0.0003330780891701579,-0.0003663859097287059
1761402646852821200,3.9588212890625,0.0008326952229253948,0.00044965543202124536,-0.0003497319994494319
1761402646862903000,3.968903076171875,0.0007660796400159597,-0.0002997702977154404,0.0002664624771568924
1761402646872984000,3.978984130859375,0.0002997702977154404,0.0003663859097287059,-0.00004996171628590673
1761402646883061200,3.989061279296875,-0.00009992343257181346,-0.0006161945057101548,-0.0003330780891701579
1761402646893123000,3.999123046875,0.0002664624771568924,-0.00008326952229253948,0.00003330780964461155
1761402646903203000,4.009203125,0.0001332312385784462,-0.0002831163874361664,0.0001498851488577202
1761402646913292800,4.019292724609375,-0.0001332312385784462,0.0002165007608709857,0.0006828100886195898
1761402646923391700,4.029391845703125,-0.0005329249543137848,0.0004330015217419714,-0.0000666156192892231
1761402646933448400,4.039448486328125,0.00044965543202124536,0.0002664624771568924,0.0004330015217419714
1761402646943534000,4.0495341796875,0.00018319295486435294,0.00046630934230051935,0.0006994639988988638
1761402646953634600,4.059634521484375,-0.00019984686514362693,-0.00038303982000797987,0.00016653904458507895
1761402646963711500,4.06971142578125,0.0002664624771568924,0.00019984686514362693,-0.00016653904458507895
1761402646973775600,4.079775634765625,0.0001332312385784462,-0.0002997702977154404,0.000016653904822305776
1761402646983852800,4.089852783203125,0.00003330780964461155,-0.0001498851488577202,-0.0007327718194574118
1761402646993960400,4.09996044921875,0.00011657733557512984,-0.0004996171337552369,-0.0006495022680610418
1761402647004041500,4.11004150390625,-0.00039969373028725386,-0.00016653904458507895,-0.0003330780891701579
1761402647014115000,4.120114990234375,0.00023315467115025967,-0.00044965543202124536,-0.00019984686514362693
1761402647024203500,4.13020361328125,0.0007494257297366858,0.00024980856687761843,0.00019984686514362693
1761402647034281700,4.14028173828125,0.00004996171628590673,0.00004996171628590673,-0.0003497319994494319
1761402647044366000,4.150365966796875,-0.0005162710440345109,-0.000016653904822305776,-0.00038303982000797987
1761402647054447000,4.160447021484375,0.00018319295486435294,0.00044965543202124536,0.0004330015217419714
1761402647064528600,4.170528564453125,-0.0004163476114626974,0.0001332312385784462,0.00024980856687761843
1761402647074610000,4.18060986328125,-0.0000666156192892231,0.0004996171337552369,0.00008326952229253948
1761402647084665900,4.190665771484375,-0.0005162710440345109,0.0006328483577817678,0.0002165007608709857
1761402647094796500,4.200796630859375,-0.00004996171628590673,-0.0002664624771568924,-0.0003164241788908839
1761402647104849400,4.210849365234375,-0.0002997702977154404,-0.00023315467115025967,0.00023315467115025967
1761402647114935600,4.220935546875,0.00011657733557512984,0.00004996171628590673,0.0007327718194574118
1761402647124993500,4.23099365234375,0.0003164241788908839,-0.0004330015217419714,0.00044965543202124536
1761402647135097600,4.24109765625,-0.00003330780964461155,0.00039969373028725386,-0.00008326952229253948
1761402647145179600,4.2511796875,-0.0002664624771568924,0,0.0002165007608709857
1761402647155260000,4.261260009765625,-0.0003497319994494319,0.0000666156192892231,0.0001332312385784462
1761402647165342200,4.27134228515625,-0.0001498851488577202,-0.00003330780964461155,-0.0004996171337552369
1761402647175423500,4.281423583984375,0.00018319295486435294,0.0005995405954308808,0.0004996171337552369
1761402647185504800,4.2915048828125,-0.0003497319994494319,0.00019984686514362693,0.0002831163874361664
1761402647195586300,4.30158642578125,-0.0003330780891701579,0.00023315467115025967,-0.00048296325257979333
1761402647205667600,4.31166748046875,-0.00008326952229253948,0.0006661561783403158,-0.0005495788645930588
1761402647215775700,4.321775634765625,0.0005828866851516068,0.00024980856687761843,0.0002165007608709857
1761402647225830400,4.331830322265625,0.0005995405954308808,-0.00024980856687761843,0.0001332312385784462
1761402647235885300,4.34188525390625,-0.0002165007608709857,-0.0004330015217419714,0.00003330780964461155
1761402647245992700,4.35199267578125,0.00019984686514362693,0.0007327718194574118,-0.00019984686514362693
1761402647256065300,4.362065185546875,0.00008326952229253948,-0.0001498851488577202,-0.0007660796400159597
1761402647266177000,4.372177001953125,0.00009992343257181346,-0.00008326952229253948,-0.00044965543202124536
1761402647276236300,4.382236328125,0,-0.00046630934230051935,-0.0003663859097287059
1761402647286310000,4.392309814453125,-0.00023315467115025967,0.0006994639988988638,-0.00004996171628590673
1761402647296398800,4.40239892578125,0.0005329249543137848,0.0007161179091781378,-0.000016653904822305776
1761402647306479600,4.412479736328125,0.0006495022680610418,-0.0004163476114626974,-0.00003330780964461155
1761402647316561000,4.422560791015625,0.00011657733557512984,0.0006161945057101548,-0.00046630934230051935
1761402647326617600,4.43261767578125,0.0001498851488577202,-0.0007161179091781378,-0.00016653904458507895
1761402647336723200,4.44272314453125,0.00018319295486435294,-0.0007494257297366858,-0.00003330780964461155
1761402647346805200,4.45280517578125,-0.00011657733557512984,0.00038303982000797987,0.0013323123566806316
1761402647356885800,4.4628857421875,-0.0001332312385784462,0.0006161945057101548,0.0003164241788908839
1761402647366968300,4.47296826171875,-0.0006661561783403158,0.000016653904822305776,0.0002664624771568924
1761402647377023500,4.4830234375,-0.0004996171337552369,0.0002831163874361664,-0.0007827335502952337
1761402647387131000,4.493130859375,0.00011657733557512984,-0.0001498851488577202,0.0004996171337552369
1761402647397211100,4.503211181640625,0.0003330780891701579,-0.0008826569537632167,-0.00019984686514362693
1761402647407293400,4.51329345703125,-0.00039969373028725386,-0.00008326952229253948,0.0003164241788908839
1761402647417373700,4.523373779296875,0.0001332312385784462,-0.00039969373028725386,0.0002997702977154404
1761402647427454700,4.533454833984375,-0.0000666156192892231,0.0001332312385784462,-0.0004163476114626974
1761402647437537000,4.543537109375,0.00019984686514362693,-0.00024980856687761843,0.0003663859097287059
1761402647447617500,4.553617431640625,0.00011657733557512984,-0.00003330780964461155,-0.00044965543202124536
1761402647457699300,4.56369921875,0.0003330780891701579,-0.00004996171628590673,-0.00039969373028725386
1761402647467781000,4.573781005859375,0.0002997702977154404,0.00003330780964461155,0.00011657733557512984
1761402647477838800,4.5838388671875,0.0001332312385784462,0.0003330780891701579,-0.0008160413126461208
1761402647487944200,4.593944091796875,-0.0002165007608709857,0.00011657733557512984,-0.00009992343257181346
1761402647498006000,4.604006103515625,-0.0002997702977154404,-0.00009992343257181346,0.0005995405954308808
1761402647508082700,4.614082763671875,-0.00018319295486435294,0.0003164241788908839,0.0001498851488577202
1761402647518156300,4.62415625,-0.00009992343257181346,0.0004163476114626974,0.0002997702977154404
1761402647528267800,4.634267822265625,0.00008326952229253948,-0.00004996171628590673,0.0005162710440345109
1761402647538345700,4.644345703125,-0.0010158881777897477,-0.00023315467115025967,-0.00003330780964461155
1761402647548405500,4.654405517578125,-0.00018319295486435294,0.0007993874605745077,0.00004996171628590673
1761402647558512600,4.6645126953125,-0.0002831163874361664,0.00011657733557512984,0.0003663859097287059
1761402647568593400,4.674593505859375,0.00008326952229253948,0.0003497319994494319,-0.0010491959983482957
1761402647578674700,4.6846748046875,-0.0002165007608709857,-0.0004163476114626974,-0.0007827335502952337
1761402647588755500,4.69475537109375,-0.00048296325257979333,-0.00019984686514362693,0.0002664624771568924
1761402647598833400,4.70483349609375,-0.000016653904822305776,0.00009992343257181346,-0.0007494257297366858
1761402647608918800,4.714918701171875,-0.0010825038189068437,0.0008993108640424907,-0.0001498851488577202
1761402647618979300,4.724979248046875,-0.00044965543202124536,0.00016653904458507895,-0.00009992343257181346
1761402647629081300,4.735081298828125,-0.00008326952229253948,0.00011657733557512984,0.00016653904458507895
1761402647639138300,4.74513818359375,0.0002664624771568924,-0.00044965543202124536,-0.000016653904822305776
1761402647649201700,4.75520166015625,-0.0006495022680610418,-0.00038303982000797987,0.0003497319994494319
1761402647659325000,4.765324951171875,-0.0008660030434839427,-0.0007327718194574118,0.0005662327748723328
1761402647669401600,4.775401611328125,0.00018319295486435294,-0.0003663859097287059,0.0005995405954308808
1761402647679487700,4.78548779296875,0,-0.00008326952229253948,0.00003330780964461155
1761402647689568500,4.795568603515625,-0.00039969373028725386,-0.0009326186846010387,0.00038303982000797987
1761402647699649500,4.8056494140625,-0.0000666156192892231,-0.0008326952229253948,-0.0002997702977154404
1761402647709730800,4.815730712890625,-0.0007327718194574118,-0.00009992343257181346,-0.0005495788645930588
1761402647719787300,4.825787353515625,-0.00023315467115025967,0.00004996171628590673,0.00039969373028725386
1761402647729889800,4.835889892578125,0.0002664624771568924,-0.0003330780891701579,-0.0001332312385784462
1761402647739975000,4.845974853515625,0.0007993874605745077,-0.0005662327748723328,0.00038303982000797987
1761402647750056700,4.856056640625,-0.0002165007608709857,-0.00011657733557512984,0.0003663859097287059
1761402647760138000,4.866137939453125,-0.0002165007608709857,-0.00011657733557512984,0.0006328483577817678
1761402647770219800,4.8762197265625,-0.0001498851488577202,-0.00044965543202124536,0
1761402647780300800,4.88630078125,-0.00019984686514362693,-0.0000666156192892231,0.00011657733557512984
1761402647790381600,4.896381591796875,-0.00023315467115025967,-0.0006661561783403158,-0.0003164241788908839
1761402647800458800,4.906458740234375,-0.00019984686514362693,-0.00038303982000797987,-0.00019984686514362693
1761402647810569200,4.9165693359375,0.0003663859097287059,-0.00019984686514362693,-0.00046630934230051935
1761402647820626200,4.926626220703125,0.00018319295486435294,-0.00038303982000797987,0.0002664624771568924
1761402647830706700,4.936706787109375,-0.0000666156192892231,-0.00008326952229253948,0.00023315467115025967
1761402647840787700,4.94678759765625,0.0002165007608709857,-0.00004996171628590673,0
1761402647850870000,4.9568701171875,-0.00019984686514362693,0.00038303982000797987,0.0002997702977154404
1761402647860944600,4.966944580078125,-0.0005995405954308808,-0.00048296325257979333,-0.00008326952229253948
1761402647871032300,4.9770322265625,0.00038303982000797987,0.0001332312385784462,0.0003497319994494319
1761402647881112800,4.98711279296875,0.0003497319994494319,-0.0004163476114626974,0.0004996171337552369
1761402647891194400,4.9971943359375,0.00019984686514362693,-0.0007660796400159597,0.0004996171337552369
1761402647901275600,5.007275634765625,-0.0004163476114626974,-0.00018319295486435294,0.00019984686514362693
1761402647911357400,5.017357421875,0,-0.00038303982000797987,0.00011657733557512984
1761402647921434600,5.0274345703125,-0.0002997702977154404,-0.00003330780964461155,0.00011657733557512984
1761402647931520000,5.03752001953125,-0.00019984686514362693,-0.0003330780891701579,0.0002831163874361664
1761402647941578200,5.047578125,-0.0000666156192892231,-0.0006161945057101548,-0.0001498851488577202
1761402647951683000,5.05768310546875,-0.00023315467115025967,-0.00004996171628590673,-0.000016653904822305776
1761402647961763000,5.06776318359375,0.00016653904458507895,0.0000666156192892231,0.00023315467115025967
1761402647971821300,5.0778212890625,-0.00016653904458507895,-0.0003497319994494319,0.0002831163874361664
1761402647981894700,5.087894775390625,-0.0001498851488577202,0.00019984686514362693,-0.0002664624771568924
1761402647992002800,5.0980029296875,-0.0007327718194574118,-0.00008326952229253948,-0.0006661561783403158
1761402648002088200,5.108088134765625,-0.00044965543202124536,-0.00046630934230051935,0.00009992343257181346
1761402648012170000,5.118169921875,0.0005662327748723328,-0.0007494257297366858,-0.0003330780891701579
1761402648022250800,5.128250732421875,0.0005162710440345109,0.00019984686514362693,0.0002997702977154404
1761402648032332500,5.13833251953125,-0.00024980856687761843,0.00019984686514362693,-0.0000666156192892231
1761402648042413800,5.148413818359375,-0.000016653904822305776,0.00019984686514362693,0.0007494257297366858
1761402648052491000,5.158490966796875,-0.00011657733557512984,-0.0002664624771568924,-0.0002165007608709857
1761402648062576600,5.16857666015625,0.00023315467115025967,0,0.0003330780891701579
1761402648072658000,5.178657958984375,0.00003330780964461155,0.0000666156192892231,0.0004996171337552369
1761402648082723000,5.18872314453125,0.0002831163874361664,0.00016653904458507895,-0.00008326952229253948
1761402648092820200,5.1988203125,0.0004163476114626974,0,0.0004330015217419714
1761402648102901200,5.2089013671875,0.00038303982000797987,-0.0006661561783403158,0.0004330015217419714
1761402648112983000,5.218983154296875,-0.0000666156192892231,-0.00019984686514362693,0.0004330015217419714
1761402648123059700,5.229059814453125,0,0,0.0006661561783403158
1761402648133145000,5.23914501953125,-0.0002831163874361664,0.00004996171628590673,0.00008326952229253948
1761402648143226400,5.249226318359375,-0.00023315467115025967,0.0010825038189068437,0.0003497319994494319
1761402648153311700,5.259311767578125,-0.00008326952229253948,0.00038303982000797987,-0.00003330780964461155
1761402648163389200,5.26938916015625,0.0001332312385784462,-0.000016653904822305776,0.0002165007608709857
1761402648173471000,5.279470947265625,-0.00039969373028725386,-0.0008493491332046688,0.0008660030434839427
1761402648183548400,5.28954833984375,0.00016653904458507895,0.000016653904822305776,0.0005329249543137848
1761402648193648000,5.299648193359375,-0.0002997702977154404,0.0004996171337552369,0.0006328483577817678
1761402648203714600,5.309714599609375,0.0003164241788908839,-0.000016653904822305776,0.00018319295486435294
1761402648213795800,5.3197958984375,-0.00008326952229253948,0.00038303982000797987,-0.00019984686514362693
1761402648223852500,5.3298525390625,-0.00024980856687761843,-0.0002831163874361664,-0.00019984686514362693
1761402648233958400,5.33995849609375,0.00018319295486435294,-0.00024980856687761843,-0.00048296325257979333
1761402648244035300,5.350035400390625,0.00019984686514362693,0.000016653904822305776,0
1761402648254121000,5.360120849609375,0.000016653904822305776,-0.0003497319994494319,0.0004163476114626974
1761402648264201700,5.37020166015625,-0.00019984686514362693,0.0003330780891701579,-0.0002664624771568924
1761402648274283000,5.380282958984375,-0.0004163476114626974,-0.0003663859097287059,0.00044965543202124536
1761402648284365000,5.390364990234375,0.000016653904822305776,0.0003330780891701579,0.0002997702977154404
1761402648294445600,5.400445556640625,0.0001498851488577202,-0.0003164241788908839,0.00009992343257181346
1761402648304527600,5.410527587890625,0.0004330015217419714,-0.00044965543202124536,0.0003497319994494319
1761402648314609000,5.42060888671875,0.00046630934230051935,0.0002165007608709857,0.0005329249543137848
1761402648324689400,5.430689453125,0,-0.00038303982000797987,0
1761402648334770700,5.440770751953125,0.00024980856687761843,0.0002997702977154404,-0.00003330780964461155
1761402648344852200,5.450852294921875,-0.00018319295486435294,0.00011657733557512984,0.0005495788645930588
1761402648354934000,5.46093408203125,-0.000016653904822305776,0.0005662327748723328,0.00019984686514362693
1761402648365015600,5.471015625,0.00016653904458507895,0.0009492725948803127,0.00039969373028725386
1761402648375097000,5.48109716796875,0.0005162710440345109,0.0006495022680610418,0.0011990811908617616
1761402648385177300,5.49117724609375,-0.0005162710440345109,0.00011657733557512984,-0.00004996171628590673
1761402648395258600,5.501258544921875,-0.00019984686514362693,-0.0002831163874361664,0.0009492725948803127
1761402648405306000,5.51130615234375,-0.00016653904458507895,0.00044965543202124536,0.0003164241788908839
1761402648415421400,5.52142138671875,-0.00009992343257181346,-0.0000666156192892231,-0.00009992343257181346
1761402648425503000,5.5315029296875,-0.00009992343257181346,-0.00011657733557512984,0.00019984686514362693
1761402648435583500,5.54158349609375,-0.0002831163874361664,0.0002165007608709857,0.0002165007608709857
1761402648445665300,5.551665283203125,-0.00016653904458507895,0.0004996171337552369,-0.0005828866851516068
1761402648455746800,5.561746826171875,0.00009992343257181346,-0.0003330780891701579,-0.00038303982000797987
1761402648465802200,5.57180224609375,-0.0005828866851516068,0.0002664624771568924,0.0004330015217419714
1761402648475909600,5.58190966796875,0.00004996171628590673,-0.00038303982000797987,0.0005995405954308808
1761402648485990100,5.591990234375,0.0000666156192892231,0.0009492725948803127,-0.0005495788645930588
1761402648496071700,5.60207177734375,0.00044965543202124536,-0.00019984686514362693,0.00008326952229253948
1761402648506152700,5.612152587890625,-0.0003164241788908839,-0.00038303982000797987,0.0003164241788908839
1761402648516233700,5.622233642578125,-0.00016653904458507895,0.00003330780964461155,-0.0011491194600239396
1761402648536371200,5.64237109375,-0.00046630934230051935,-0.00023315467115025967,0.00046630934230051935
1761402648546477300,5.652477294921875,-0.0005662327748723328,-0.0002165007608709857,-0.00016653904458507895
1761402648556559000,5.66255908203125,-0.00004996171628590673,-0.00016653904458507895,-0.00046630934230051935
1761402648566640400,5.672640380859375,0.00019984686514362693,0.0002831163874361664,-0.0001498851488577202
1761402648576721700,5.6827216796875,0.0008993108640424907,0.0000666156192892231,0.00008326952229253948
1761402648586803200,5.69280322265625,0.0000666156192892231,0.000016653904822305776,0.0005995405954308808
1761402648596884500,5.702884521484375,0.0006661561783403158,0.00023315467115025967,0.0006661561783403158
1761402648606958600,5.71295849609375,0.00044965543202124536,-0.00003330780964461155,0.0008493491332046688
1761402648617046800,5.723046875,0,-0.0000666156192892231,-0.0002664624771568924
1761402648627127800,5.7331279296875,0.00008326952229253948,-0.0007993874605745077,0.0002831163874361664
1761402648637209900,5.7432099609375,0.00024980856687761843,-0.0004163476114626974,-0.00008326952229253948
1761402648647265300,5.753265380859375,-0.0000666156192892231,-0.0003663859097287059,0.0003663859097287059
1761402648657372000,5.763371826171875,0.00009992343257181346,-0.00024980856687761843,0.0008493491332046688
1761402648667454200,5.7734541015625,0.0003663859097287059,-0.0003663859097287059,0.0005162710440345109
1761402648677534500,5.783534423828125,0.00003330780964461155,-0.0004330015217419714,0.0005329249543137848
1761402648687615700,5.79361572265625,-0.00011657733557512984,-0.00044965543202124536,0.0002165007608709857
1761402648697697000,5.803697021484375,-0.0002997702977154404,-0.0006161945057101548,-0.0008660030434839427
1761402648707778300,5.8137783203125,0.0004163476114626974,0.0000666156192892231,0.00011657733557512984
1761402648717859800,5.82385986328125,0.0003663859097287059,-0.0002831163874361664,0.00018319295486435294
1761402648727940600,5.833940673828125,0.0000666156192892231,-0.0009326186846010387,0.0002165007608709857
1761402648738018000,5.84401806640625,-0.00019984686514362693,0.00004996171628590673,0.0008493491332046688
1761402648748099300,5.854099365234375,-0.00044965543202124536,-0.0005162710440345109,0.00011657733557512984
1761402648758180900,5.864180908203125,0.000016653904822305776,-0.0005162710440345109,0.0002165007608709857
1761402648768266000,5.874265869140625,0.0002664624771568924,-0.0003663859097287059,0.0006328483577817678
1761402648778322400,5.884322509765625,0.00009992343257181346,-0.00048296325257979333,0.00009992343257181346
1761402648788428500,5.894428466796875,0.0001498851488577202,0.0001498851488577202,-0.0003663859097287059
1761402648798510000,5.904510009765625,0.0000666156192892231,0.0004996171337552369,-0.00004996171628590673
1761402648808591400,5.91459130859375,-0.0000666156192892231,0.0006994639988988638,-0.00019984686514362693
1761402648818655500,5.924655517578125,0.0005495788645930588,-0.0006828100886195898,0.0001332312385784462
1761402648828753700,5.934753662109375,-0.0005495788645930588,-0.0008326952229253948,-0.00018319295486435294
1761402648838835000,5.9448349609375,-0.0000666156192892231,-0.00048296325257979333,0.00038303982000797987
1761402648848890600,5.954890625,-0.0003330780891701579,0.0007993874605745077,-0.0002664624771568924
1761402648858998000,5.964998046875,0.00003330780964461155,-0.00016653904458507895,0.00011657733557512984
1761402648869078500,5.97507861328125,-0.00016653904458507895,-0.00016653904458507895,-0.0002831163874361664
1761402648879156700,5.98515673828125,0.0002997702977154404,0.00003330780964461155,0.00019984686514362693
1761402648889216300,5.99521630859375,0.00038303982000797987,-0.0002831163874361664,-0.0004996171337552369
1761402648899309000,6.00530908203125,0.0004163476114626974,-0.0002165007608709857,0.00024980856687761843
1761402648909404200,6.015404052734375,-0.00009992343257181346,-0.0006994639988988638,0.0002664624771568924
1761402648919459600,6.02545947265625,-0.00016653904458507895,0.00016653904458507895,0.00008326952229253948
1761402648929567000,6.03556689453125,-0.0001498851488577202,-0.0007494257297366858,0.0002664624771568924
1761402648939622700,6.04562255859375,0.00016653904458507895,-0.00048296325257979333,0.00046630934230051935
1761402648949726000,6.055725830078125,0.0009659265051595867,-0.0004996171337552369,0.0001332312385784462
1761402648959811000,6.06581103515625,0.0002831163874361664,-0.00011657733557512984,-0.0002997702977154404
1761402648969891600,6.0758916015625,-0.00004996171628590673,0.00038303982000797987,0.0001332312385784462
1761402648979973400,6.085973388671875,-0.0001332312385784462,-0.0002664624771568924,0.0002664624771568924
1761402648990055000,6.096054931640625,0.00019984686514362693,-0.0006994639988988638,0.00011657733557512984
1761402649000135200,6.10613525390625,-0.00016653904458507895,0.0006661561783403158,0.00023315467115025967
1761402649010212900,6.116212890625,-0.00011657733557512984,-0.00024980856687761843,0.0005495788645930588
1761402649020298000,6.126298095703125,-0.0003164241788908839,-0.0003164241788908839,0.0005495788645930588
1761402649030380000,6.136380126953125,0.00008326952229253948,-0.0000666156192892231,0.00009992343257181346
1761402649040436200,6.146436279296875,0.00009992343257181346,0.0002165007608709857,0.00046630934230051935
1761402649050542600,6.15654248046875,0.0003330780891701579,-0.00046630934230051935,0.00039969373028725386
1761402649060623000,6.166623046875,-0.00004996171628590673,-0.0002165007608709857,0.0002165007608709857
1761402649070704400,6.176704345703125,-0.00009992343257181346,0.0005662327748723328,-0.00008326952229253948
1761402649080782600,6.186782470703125,-0.0002165007608709857,-0.00046630934230051935,0.00011657733557512984
1761402649090842000,6.196842041015625,-0.0002997702977154404,-0.0005495788645930588,0.0001332312385784462
1761402649100948200,6.2069482421875,-0.00004996171628590673,0.00008326952229253948,-0.0005662327748723328
1761402649111029500,6.217029541015625,-0.00011657733557512984,0.0002997702977154404,0.00016653904458507895
1761402649121111000,6.227111083984375,-0.0002165007608709857,0.00009992343257181346,0.0007660796400159597
1761402649131192000,6.237192138671875,0.00024980856687761843,0.00039969373028725386,0.0001498851488577202
1761402649141269500,6.24726953125,0.0007161179091781378,-0.0003497319994494319,-0.0001332312385784462
1761402649151354600,6.257354736328125,0.0001498851488577202,-0.0005495788645930588,0.0003497319994494319
1761402649161437200,6.267437255859375,0.0002664624771568924,-0.000016653904822305776,0.0004330015217419714
1761402649171517200,6.27751708984375,0.0002831163874361664,-0.0004330015217419714,0.00048296325257979333
1761402649181577700,6.28757763671875,-0.0006161945057101548,-0.0002165007608709857,-0.00024980856687761843
1761402649191680800,6.2976806640625,-0.0005329249543137848,0.0003497319994494319,-0.00024980856687761843
1761402649201737700,6.30773779296875,-0.0005162710440345109,-0.00048296325257979333,-0.00003330780964461155
1761402649211842800,6.3178427734375,0.00011657733557512984,0.00018319295486435294,0.0001498851488577202
1761402649221923600,6.327923583984375,-0.00024980856687761843,-0.0004163476114626974,-0.0004996171337552369
1761402649232005000,6.338005126953125,-0.00009992343257181346,-0.0005329249543137848,-0.00003330780964461155
1761402649242087000,6.3480869140625,0.0000666156192892231,-0.0005162710440345109,0.00038303982000797987
1761402649252167400,6.35816748046875,-0.0005495788645930588,-0.0003164241788908839,-0.00009992343257181346
1761402649262249500,6.36824951171875,-0.0006161945057101548,0.0003497319994494319,-0.00044965543202124536
1761402649272326000,6.378325927734375,-0.00003330780964461155,-0.0004163476114626974,-0.00018319295486435294
1761402649282412000,6.388412109375,0.0005995405954308808,0.0002997702977154404,0.00023315467115025967
1761402649292503800,6.39850390625,-0.0004996171337552369,-0.0006828100886195898,0.0009492725948803127
1761402649302574600,6.40857470703125,0.00004996171628590673,-0.00003330780964461155,0.0005995405954308808
1761402649312656100,6.41865625,-0.0002997702977154404,0.00046630934230051935,-0.0002831163874361664
1761402649322752800,6.428752685546875,0.00004996171628590673,-0.0003663859097287059,0.0003497319994494319
1761402649332814300,6.438814453125,-0.0002997702977154404,-0.00009992343257181346,0.00019984686514362693
1761402649342900200,6.448900146484375,0.0002165007608709857,-0.00044965543202124536,0.00039969373028725386
1761402649352955100,6.458955078125,0.00004996171628590673,-0.00024980856687761843,0.00004996171628590673
1761402649363062000,6.46906201171875,-0.0001498851488577202,-0.0002664624771568924,0.00024980856687761843
1761402649373143000,6.47914306640625,0.00019984686514362693,-0.00044965543202124536,0.0002997702977154404
1761402649383199000,6.489198974609375,0.00008326952229253948,0.0004996171337552369,-0.00003330780964461155
1761402649393280500,6.499280517578125,0.00004996171628590673,0.00004996171628590673,0.0002664624771568924
1761402649403361500,6.509361572265625,0.000016653904822305776,-0.0001332312385784462,0.00023315467115025967
1761402649413444000,6.519444091796875,0.0001498851488577202,-0.00044965543202124536,-0.00016653904458507895
1761402649423523800,6.52952392578125,-0.00016653904458507895,0.000016653904822305776,0.00008326952229253948
1761402649433631200,6.53963134765625,0.0000666156192892231,0.0010991577291861176,-0.00018319295486435294
1761402649443712300,6.549712158203125,-0.0003164241788908839,-0.0005995405954308808,0.00008326952229253948
1761402649453793000,6.55979296875,0.00019984686514362693,0.00046630934230051935,0.0004330015217419714
1761402649463871000,6.56987109375,0.00008326952229253948,0,-0.00011657733557512984
1761402649473955600,6.57995556640625,0.000016653904822305776,-0.0000666156192892231,0
1761402649484037400,6.590037353515625,-0.0007827335502952337,-0.0007827335502952337,0.00008326952229253948
1761402649494119200,6.600119140625,-0.00004996171628590673,0,0.0006994639988988638
1761402649504200400,6.610200439453125,0.00038303982000797987,0.0007827335502952337,-0.0002664624771568924
1761402649514255400,6.62025537109375,-0.00046630934230051935,0.00024980856687761843,-0.00038303982000797987
1761402649524362800,6.63036279296875,0.00024980856687761843,-0.0004996171337552369,0.00046630934230051935
1761402649534444000,6.640444091796875,0.0002664624771568924,-0.0008160413126461208,0
1761402649544524500,6.650524658203125,0.0000666156192892231,-0.0002997702977154404,0.00008326952229253948
1761402649554606600,6.660606689453125,-0.00004996171628590673,0.00009992343257181346,0.0001498851488577202
1761402649564687400,6.670687255859375,-0.0003164241788908839,-0.0003330780891701579,0.00023315467115025967
1761402649574768400,6.680768310546875,-0.00003330780964461155,-0.00023315467115025967,0.00019984686514362693
1761402649584850400,6.690850341796875,-0.0004996171337552369,-0.0001332312385784462,-0.00024980856687761843
1761402649594932000,6.700931884765625,0.00018319295486435294,-0.0005495788645930588,-0.000016653904822305776
1761402649604972800,6.710972900390625,-0.00004996171628590673,-0.0007161179091781378,-0.0005162710440345109
1761402649615094300,6.72109423828125,-0.000016653904822305776,0.00046630934230051935,-0.0003663859097287059
1761402649625175000,6.731175048828125,-0.0003663859097287059,0.0002831163874361664,0.0002165007608709857
1761402649635256600,6.741256591796875,0.0002664624771568924,-0.000016653904822305776,0.00004996171628590673
1761402649645313500,6.7513134765625,0.0004330015217419714,0.0002831163874361664,-0.00024980856687761843
1761402649655407400,6.761407470703125,0.0000666156192892231,-0.0005329249543137848,0.0000666156192892231
1761402649665499600,6.771499755859375,0.00011657733557512984,-0.0005662327748723328,-0.00009992343257181346
1761402649675582700,6.781582763671875,0.00003330780964461155,-0.00023315467115025967,0.0007993874605745077
1761402649685662500,6.791662353515625,-0.0003330780891701579,0.0005995405954308808,0.00039969373028725386
1761402649695743700,6.80174365234375,0.0001332312385784462,0.00023315467115025967,0.0005662327748723328
1761402649705825000,6.811824951171875,-0.0003164241788908839,0.0004163476114626974,-0.0007494257297366858
1761402649715906300,6.82190625,0.0005662327748723328,0,0.00004996171628590673
1761402649725988400,6.83198828125,-0.0002997702977154404,0.00039969373028725386,-0.0005162710440345109
1761402649736058600,6.84205859375,-0.0008160413126461208,0.0003497319994494319,0.00018319295486435294
1761402649746151200,6.852151123046875,0.00003330780964461155,0.0003164241788908839,-0.0005495788645930588
1761402649756232200,6.862232177734375,0.0003663859097287059,0,0.00024980856687761843
1761402649766315300,6.872315185546875,0.0003164241788908839,0.00009992343257181346,-0.0005495788645930588
1761402649776394500,6.88239453125,-0.0002165007608709857,-0.00008326952229253948,-0.0002664624771568924
1761402649786475300,6.892475341796875,0.00023315467115025967,0.00048296325257979333,-0.0007827335502952337
1761402649796557600,6.9025576171875,-0.00018319295486435294,-0.000016653904822305776,0.00009992343257181346
1761402649806638000,6.91263818359375,0.0003663859097287059,0.0002165007608709857,-0.00039969373028725386
1761402649816719000,6.922718994140625,0.00004996171628590673,-0.0005495788645930588,-0.0005162710440345109
1761402649826800600,6.932800537109375,-0.0001332312385784462,-0.0003663859097287059,-0.00011657733557512984
1761402649836881700,6.942881591796875,0.00023315467115025967,-0.00008326952229253948,0.00046630934230051935
1761402649846964000,6.9529638671875,-0.0000666156192892231,-0.00038303982000797987,-0.00023315467115025967
1761402649857045000,6.963044921875,-0.0005828866851516068,-0.0006328483577817678,-0.0004330015217419714
1761402649867100200,6.97310009765625,0.00004996171628590673,-0.0006161945057101548,0.0001498851488577202
1761402649877207800,6.983207763671875,0.00009992343257181346,-0.0004996171337552369,0.0005329249543137848
1761402649887288000,6.9932880859375,0.0004996171337552369,-0.000016653904822305776,0.0006828100886195898
1761402649897369900,7.003369873046875,-0.000016653904822305776,-0.00019984686514362693,-0.00019984686514362693
1761402649907451400,7.013451416015625,-0.0008826569537632167,0.000016653904822305776,-0.00011657733557512984
1761402649917533000,7.023532958984375,0.00011657733557512984,0.0004330015217419714,0.00016653904458507895
1761402649927590700,7.033590576171875,0.00018319295486435294,0.00008326952229253948,-0.0004330015217419714
1761402649937694500,7.043694580078125,0.0001332312385784462,0.0005662327748723328,-0.0006495022680610418
1761402649947776500,7.053776611328125,-0.0004996171337552369,-0.0003663859097287059,0.0002165007608709857
1761402649957858000,7.063858154296875,0.00024980856687761843,0.00046630934230051935,0.00048296325257979333
1761402649967939300,7.073939208984375,0.00003330780964461155,0.0007327718194574118,0.00039969373028725386
1761402649978016300,7.084016357421875,-0.0003164241788908839,0.0002664624771568924,0.0002664624771568924
1761402649988082000,7.09408203125,-0.0003497319994494319,0.000016653904822305776,0.00009992343257181346
1761402649998180400,7.104180419921875,-0.0006661561783403158,-0.00009992343257181346,0.00003330780964461155
1761402650008264000,7.114263916015625,-0.0003164241788908839,0.00009992343257181346,0.00011657733557512984
1761402650018345500,7.124345458984375,-0.00039969373028725386,0.00019984686514362693,0.0004996171337552369
1761402650028426000,7.134426025390625,0.0002831163874361664,-0.00018319295486435294,0.0004163476114626974
1761402650038503700,7.144503662109375,0.0004330015217419714,-0.0006161945057101548,0.0002831163874361664
1761402650048588800,7.1545888671875,0.00016653904458507895,-0.0004996171337552369,-0.00019984686514362693
1761402650058670000,7.164670166015625,-0.00003330780964461155,0.00004996171628590673,0.00008326952229253948
1761402650068752000,7.174751953125,0.0002997702977154404,0.0005329249543137848,0.0002664624771568924
1761402650078832400,7.184832275390625,-0.0003497319994494319,-0.0001498851488577202,-0.00004996171628590673
1761402650088906500,7.194906494140625,0.00016653904458507895,-0.0003330780891701579,0.00008326952229253948
1761402650098991400,7.204991455078125,0.00048296325257979333,0.0002997702977154404,0.0002165007608709857
1761402650109077000,7.215076904296875,0.0008993108640424907,0.00024980856687761843,0
1761402650119157500,7.225157470703125,0.0002997702977154404,-0.00004996171628590673,-0.00046630934230051935
1761402650129239600,7.235239501953125,0.00019984686514362693,0.00008326952229253948,0.0001332312385784462
1761402650139320800,7.24532080078125,-0.0003330780891701579,0.0003663859097287059,0
1761402650149376000,7.2553759765625,-0.0004330015217419714,0.0002165007608709857,-0.0002831163874361664
1761402650159479000,7.26547900390625,0.0003164241788908839,0.0000666156192892231,0.00003330780964461155
1761402650169564000,7.27556396484375,0.000016653904822305776,-0.00004996171628590673,-0.00009992343257181346
1761402650179618000,7.2856181640625,0.00024980856687761843,0.0002664624771568924,0.0002165007608709857
1761402650189726500,7.2957265625,0.0005329249543137848,0.0001498851488577202,0
1761402650199808000,7.30580810546875,0.00011657733557512984,-0.0001498851488577202,0.0000666156192892231
1761402650209889800,7.315889892578125,0.00008326952229253948,0.0001498851488577202,0.0003663859097287059
1761402650219970600,7.325970458984375,-0.0005828866851516068,0.00048296325257979333,0.00016653904458507895
1761402650230048300,7.33604833984375,-0.0001498851488577202,0.00044965543202124536,0.0002664624771568924
1761402650240134000,7.3461337890625,-0.00008326952229253948,-0.00019984686514362693,0.0000666156192892231
1761402650250214700,7.356214599609375,-0.00011657733557512984,0.00011657733557512984,-0.0004330015217419714
1761402650260296200,7.366296142578125,-0.00011657733557512984,0.0003497319994494319,-0.00023315467115025967
1761402650270377700,7.376377685546875,-0.0003164241788908839,0.0004996171337552369,0.0000666156192892231
1761402650280433200,7.38643310546875,-0.0002165007608709857,0.0004996171337552369,0.0001332312385784462
1761402650290536200,7.3965361328125,-0.00048296325257979333,-0.00038303982000797987,-0.00003330780964461155
1761402650300595500,7.406595458984375,0.00004996171628590673,0.0005662327748723328,0.00004996171628590673
1761402650310702600,7.41670263671875,0.0003330780891701579,-0.00016653904458507895,0.0005495788645930588
1761402650320783400,7.426783447265625,-0.0001332312385784462,-0.0001332312385784462,-0.0002997702977154404
1761402650330845700,7.436845703125,0.00004996171628590673,-0.0006661561783403158,-0.000016653904822305776
1761402650351027000,7.45702685546875,-0.0002165007608709857,-0.00011657733557512984,0.0004163476114626974
1761402650361104400,7.4671044921875,-0.0001332312385784462,0.00038303982000797987,0.00003330780964461155
1761402650371190000,7.47718994140625,0.00009992343257181346,0.00011657733557512984,-0.0003164241788908839
1761402650381271600,7.487271484375,-0.00009992343257181346,0.00019984686514362693,0.0002831163874361664
1761402650391353600,7.497353515625,-0.0006828100886195898,0.0001498851488577202,-0.00024980856687761843
1761402650401433600,7.50743359375,0.0002664624771568924,-0.00008326952229253948,-0.0006828100886195898
1761402650411515600,7.517515625,-0.0002165007608709857,0.0004330015217419714,-0.00009992343257181346
1761402650421570300,7.5275703125,-0.0004996171337552369,0.00038303982000797987,0.00016653904458507895
1761402650431678200,7.53767822265625,0.0002664624771568924,0,-0.0004330015217419714
1761402650441759200,7.54775927734375,-0.0006328483577817678,0.0006661561783403158,-0.0003497319994494319
1761402650451840300,7.55784033203125,-0.00016653904458507895,-0.00018319295486435294,0.00046630934230051935
1761402650461895400,7.5678955078125,0.00039969373028725386,0.00004996171628590673,-0.0000666156192892231
1761402650472002300,7.578002197265625,0.00039969373028725386,0.0003330780891701579,-0.0002997702977154404
1761402650482058500,7.58805859375,-0.0001498851488577202,0.0003164241788908839,-0.0004996171337552369
1761402650492164900,7.598164794921875,0.00011657733557512984,-0.0002831163874361664,-0.0002997702977154404
1761402650502246100,7.60824609375,-0.0003330780891701579,-0.0007327718194574118,-0.00023315467115025967
1761402650512327400,7.618327392578125,-0.0007660796400159597,0.0002165007608709857,-0.0002997702977154404
1761402650522409500,7.628409423828125,0.0006661561783403158,0.00011657733557512984,0.00003330780964461155
1761402650532490000,7.638489990234375,0.0001332312385784462,-0.0007827335502952337,0.0001332312385784462
1761402650542571500,7.648571533203125,-0.0003663859097287059,0.00023315467115025967,0.00019984686514362693
1761402650552649000,7.65864892578125,-0.0005162710440345109,-0.00018319295486435294,0.00019984686514362693
1761402650562734300,7.668734375,-0.00018319295486435294,-0.0006328483577817678,-0.00003330780964461155
1761402650572815600,7.678815673828125,-0.00038303982000797987,-0.0000666156192892231,0.00024980856687761843
1761402650582897200,7.688897216796875,0.00004996171628590673,0.0002664624771568924,-0.00046630934230051935
1761402650592978000,7.69897802734375,-0.00004996171628590673,0.0001332312385784462,-0.0000666156192892231
1761402650603059000,7.709058837890625,-0.00016653904458507895,-0.00019984686514362693,0.00038303982000797987
1761402650613137000,7.719136962890625,0.00018319295486435294,0.00004996171628590673,0.0003497319994494319
1761402650623222300,7.72922216796875,0.0007993874605745077,-0.0002165007608709857,0.000016653904822305776
1761402650633303800,7.7393037109375,-0.0001332312385784462,-0.0007993874605745077,-0.0003663859097287059
1761402650643385000,7.749385009765625,-0.0005995405954308808,-0.00023315467115025967,0.0003330780891701579
1761402650653465600,7.759465576171875,0.00008326952229253948,0.00018319295486435294,0.00024980856687761843
1761402650663569400,7.7695693359375,0.00009992343257181346,0.0001498851488577202,0.0002165007608709857
1761402650673628400,7.77962841796875,0.0004163476114626974,-0.00018319295486435294,-0.0001332312385784462
1761402650683686100,7.78968603515625,-0.0005828866851516068,0.00039969373028725386,-0.0005329249543137848
1761402650693791500,7.79979150390625,0.00023315467115025967,0.00008326952229253948,-0.0002664624771568924
1761402650703871700,7.809871826171875,-0.0002165007608709857,0.0005329249543137848,-0.0002165007608709857
1761402650713953000,7.819953125,-0.00018319295486435294,-0.0002831163874361664,-0.0002997702977154404
1761402650724035000,7.83003515625,-0.00018319295486435294,0.0001498851488577202,-0.00016653904458507895
1761402650734092300,7.84009228515625,-0.00038303982000797987,0.00009992343257181346,-0.0003663859097287059
1761402650744195000,7.850195068359375,-0.00009992343257181346,0.00008326952229253948,-0.0008326952229253948
1761402650754278400,7.8602783203125,-0.0005662327748723328,-0.0003330780891701579,0.0005329249543137848
1761402650764360200,7.870360107421875,0.0002997702977154404,0.0005828866851516068,0.0003330780891701579
1761402650774441700,7.880441650390625,0.00004996171628590673,-0.0011824272805824876,0.00024980856687761843
1761402650784522500,7.8905224609375,0.0007161179091781378,0.0003330780891701579,-0.0001332312385784462
1761402650794604000,7.90060400390625,0.0009825803572311997,-0.00048296325257979333,-0.00011657733557512984
1761402650804679400,7.910679443359375,0.00044965543202124536,0.0004330015217419714,0.0003164241788908839
1761402650814792700,7.920792724609375,0.0001498851488577202,-0.0007660796400159597,-0.00019984686514362693
1761402650824848100,7.93084814453125,0.00019984686514362693,0.00003330780964461155,0.00016653904458507895
1761402650834929200,7.94092919921875,-0.00016653904458507895,-0.000016653904822305776,0.0002664624771568924
1761402650844987000,7.95098681640625,0.0001332312385784462,-0.0000666156192892231,-0.0005329249543137848
1761402650855091000,7.961091064453125,-0.000016653904822305776,0.0001332312385784462,0.0002997702977154404
1761402650865172700,7.9711728515625,-0.00018319295486435294,-0.0003497319994494319,-0.0000666156192892231
1761402650875231500,7.9812314453125,-0.0000666156192892231,0.0005162710440345109,-0.0004996171337552369
1761402650885334800,7.991334716796875,0.00039969373028725386,-0.00011657733557512984,0.0000666156192892231
1761402650895415800,8.001415771484375,-0.00003330780964461155,0.0003663859097287059,0.0002165007608709857
1761402650905472000,8.011471923828125,-0.00009992343257181346,0.0004996171337552369,-0.0001498851488577202
1761402650915578400,8.021578369140625,0.00003330780964461155,0.0006994639988988638,-0.00004996171628590673
1761402650925659400,8.031659423828126,-0.0007327718194574118,-0.00009992343257181346,-0.0005329249543137848
1761402650935742200,8.0417421875,-0.00038303982000797987,0.0003330780891701579,-0.0007161179091781378
1761402650945822700,8.05182275390625,0.00024980856687761843,-0.0003164241788908839,0.0004330015217419714
1761402650955903700,8.06190380859375,-0.0005828866851516068,0.0002831163874361664,0.00004996171628590673
1761402650965985000,8.071985107421876,-0.0002664624771568924,0.00046630934230051935,0.00024980856687761843
1761402650976066300,8.08206640625,-0.0005995405954308808,-0.0003330780891701579,-0.00011657733557512984
1761402650986147300,8.092147216796874,-0.0004163476114626974,-0.00011657733557512984,-0.0003330780891701579
1761402650996228900,8.102228759765625,-0.00009992343257181346,-0.0002664624771568924,0.00018319295486435294
1761402651006310700,8.112310546875,0.0002165007608709857,-0.0009159647743217647,-0.00008326952229253948
1761402651016391700,8.1223916015625,0.0002831163874361664,0.0005329249543137848,0.0003164241788908839
1761402651026473200,8.13247314453125,0.0002831163874361664,0.00003330780964461155,-0.0002997702977154404
1761402651036554500,8.142554443359375,-0.0002664624771568924,0.0008326952229253948,-0.00046630934230051935
1761402651046635000,8.152635009765625,-0.0005662327748723328,0.0003663859097287059,0.00023315467115025967
1761402651056716800,8.162716796875,0.0005828866851516068,0.0006328483577817678,0.0008326952229253948
1761402651066765000,8.17276513671875,-0.0006161945057101548,0.00039969373028725386,0.00009992343257181346
1761402651076879600,8.182879638671874,-0.000016653904822305776,-0.00016653904458507895,-0.0004996171337552369
1761402651086987800,8.19298779296875,-0.00011657733557512984,-0.00044965543202124536,-0.00038303982000797987
1761402651097041700,8.203041748046875,-0.0002831163874361664,0.00016653904458507895,-0.00044965543202124536
1761402651107123000,8.213123046875,0.00048296325257979333,-0.00046630934230051935,-0.0006328483577817678
1761402651117198800,8.22319873046875,0.000016653904822305776,0.0000666156192892231,-0.00024980856687761843
1761402651127285500,8.233285400390624,0.0004163476114626974,0,-0.00008326952229253948
1761402651137367300,8.2433671875,0.0008993108640424907,-0.00004996171628590673,0.00039969373028725386
1761402651147448300,8.2534482421875,0.00011657733557512984,0.0001498851488577202,-0.0006994639988988638
1761402651157529600,8.263529541015625,-0.0002997702977154404,0.00023315467115025967,-0.0001332312385784462
1761402651167611100,8.273611083984376,0.0007660796400159597,-0.000016653904822305776,-0.0002165007608709857
1761402651177692700,8.283692626953124,-0.0003164241788908839,-0.00016653904458507895,0.00003330780964461155
1761402651187763200,8.29376318359375,0.00004996171628590673,0.0000666156192892231,-0.00009992343257181346
1761402651197855000,8.30385498046875,0.00039969373028725386,0.0007993874605745077,-0.000016653904822305776
1761402651207935500,8.313935546875,-0.0003330780891701579,0.0001498851488577202,0.00004996171628590673
1761402651218014500,8.324014404296875,0.00016653904458507895,0.0006161945057101548,-0.0001498851488577202
1761402651228094200,8.33409423828125,-0.0001332312385784462,-0.00023315467115025967,-0.0004996171337552369
1761402651238177000,8.344177001953126,-0.0005828866851516068,0.0007660796400159597,0.00018319295486435294
1761402651258342000,8.364341796875,0,-0.00019984686514362693,-0.0009492725948803127
1761402651268424000,8.374423828125,-0.00016653904458507895,-0.0011158116394653916,-0.00011657733557512984
1761402651278505000,8.3845048828125,0.0000666156192892231,-0.0011491194600239396,0.0003663859097287059
1761402651288577800,8.394577880859375,0.00008326952229253948,0.00044965543202124536,-0.0003330780891701579
1761402651298668300,8.404668212890625,-0.0002165007608709857,0.0003663859097287059,-0.00009992343257181346
1761402651308748500,8.41474853515625,-0.000016653904822305776,-0.0006828100886195898,-0.00024980856687761843
1761402651318825200,8.4248251953125,0.0001332312385784462,0.0002831163874361664,-0.0001498851488577202
1761402651328911600,8.43491162109375,-0.0001332312385784462,-0.0002165007608709857,-0.00023315467115025967
1761402651338993200,8.4449931640625,0.0007327718194574118,-0.0004330015217419714,0.0006161945057101548
1761402651349074400,8.455074462890625,-0.00011657733557512984,0.0001498851488577202,0.00019984686514362693
1761402651359155000,8.465155029296875,-0.0005828866851516068,-0.0003164241788908839,0.00016653904458507895
1761402651369236500,8.475236572265626,-0.00023315467115025967,-0.0010991577291861176,-0.00046630934230051935
1761402651379314200,8.485314208984375,-0.0000666156192892231,-0.0002997702977154404,-0.00009992343257181346
1761402651389399300,8.4953994140625,-0.00018319295486435294,-0.0006495022680610418,-0.0001498851488577202
1761402651399480800,8.505480712890625,0.00023315467115025967,-0.0012323890114203095,0.0003164241788908839
1761402651409536000,8.515535888671875,0.00008326952229253948,0.0005329249543137848,0.0001332312385784462
1761402651419643100,8.52564306640625,0.00008326952229253948,0.0003663859097287059,0.0001498851488577202
1761402651429724400,8.535724365234374,0.00011657733557512984,0.00044965543202124536,0.00048296325257979333
1761402651439780000,8.545780029296875,-0.0002165007608709857,0.00039969373028725386,0.0005495788645930588
1761402651449861400,8.555861328125,-0.00003330780964461155,-0.00003330780964461155,0.00004996171628590673
1761402651459967200,8.56596728515625,0.0005162710440345109,-0.00018319295486435294,-0.00046630934230051935
1761402651470049500,8.576049560546876,0.0003330780891701579,-0.00004996171628590673,-0.00016653904458507895
1761402651480130000,8.586130126953124,-0.00009992343257181346,0.0006661561783403158,0.00004996171628590673
1761402651490211800,8.5962119140625,0.00019984686514362693,0.0008826569537632167,0.00018319295486435294
1761402651500292600,8.606292724609375,-0.0001498851488577202,-0.00016653904458507895,-0.0008493491332046688
1761402651510370300,8.616370361328125,-0.0002664624771568924,-0.00023315467115025967,-0.0004330015217419714
1761402651520456000,8.6264560546875,-0.0002997702977154404,0.0003497319994494319,-0.00011657733557512984
1761402651530532400,8.636532470703125,0.00009992343257181346,-0.00009992343257181346,-0.0005495788645930588
1761402651540617700,8.64661767578125,-0.0005495788645930588,0.0007494257297366858,0.00018319295486435294
1761402651550699000,8.656698974609375,-0.0003497319994494319,0.0006495022680610418,-0.00004996171628590673
1761402651560780300,8.6667802734375,0.0001332312385784462,0.00018319295486435294,0.00023315467115025967
1761402651570836500,8.67683642578125,-0.00023315467115025967,0.00011657733557512984,0.000016653904822305776
1761402651580942800,8.68694287109375,-0.0005828866851516068,-0.0001332312385784462,-0.0003497319994494319
1761402651591025000,8.69702490234375,0.00016653904458507895,0.00003330780964461155,0.0005495788645930588
1761402651601105400,8.70710546875,0.00024980856687761843,0.00018319295486435294,0.00004996171628590673
1761402651611187500,8.7171875,0,-0.0006495022680610418,-0.00011657733557512984
1761402651621267700,8.727267822265626,-0.0000666156192892231,-0.0006495022680610418,0.0001498851488577202
1761402651631350000,8.73735009765625,-0.0006328483577817678,-0.0012490428052842617,-0.0006161945057101548
1761402651641426400,8.747426513671876,-0.0002831163874361664,0.000016653904822305776,0.0002831163874361664
1761402651651511600,8.757511474609375,0.0006828100886195898,-0.000016653904822305776,0.0003330780891701579
1761402651661593600,8.767593505859375,-0.0007993874605745077,0.0001498851488577202,-0.0003663859097287059
1761402651671675400,8.77767529296875,0.000016653904822305776,0.0002831163874361664,0.0004996171337552369
1761402651681744400,8.787744384765626,0.00011657733557512984,0.0006495022680610418,-0.0001332312385784462
1761402651691836700,8.797836669921875,0.0000666156192892231,0.0005828866851516068,-0.0003497319994494319
1761402651701914400,8.807914306640624,0.0005495788645930588,0.00016653904458507895,-0.00009992343257181346
1761402651712000000,8.818,-0.000016653904822305776,0.0003164241788908839,0
1761402651722082000,8.82808203125,-0.0000666156192892231,-0.0001332312385784462,0.00003330780964461155
1761402651732162800,8.838162841796875,0.000016653904822305776,0.00008326952229253948,-0.00023315467115025967
1761402651742212600,8.848212646484376,0.00039969373028725386,0.00009992343257181346,-0.0003330780891701579
1761402651752325400,8.858325439453125,-0.0001332312385784462,-0.0002997702977154404,0.00011657733557512984
1761402651762402300,8.86840234375,0.0003497319994494319,-0.0000666156192892231,-0.0000666156192892231
1761402651772464600,8.878464599609375,0.0003497319994494319,-0.00046630934230051935,0.00009992343257181346
1761402651782569200,8.8885693359375,-0.00024980856687761843,0.00008326952229253948,-0.0001498851488577202
1761402651792649700,8.898649658203125,-0.0000666156192892231,0.0007161179091781378,0.0000666156192892231
1761402651802731800,8.908731689453125,-0.0000666156192892231,0.0004996171337552369,-0.0003330780891701579
1761402651812812300,8.918812255859375,0.00023315467115025967,0.00016653904458507895,0.0003497319994494319
1761402651822893600,8.9288935546875,0.0001498851488577202,-0.00011657733557512984,-0.00024980856687761843
1761402651832950500,8.938950439453125,-0.00044965543202124536,-0.00019984686514362693,0.0002831163874361664
1761402651843055900,8.949055908203125,-0.0003164241788908839,0.0002664624771568924,-0.00048296325257979333
1761402651853138400,8.959138427734375,-0.0004163476114626974,0.0006161945057101548,0.00048296325257979333
1761402651863219000,8.969218994140626,0.00008326952229253948,0,-0.0002664624771568924
1761402651873300500,8.979300537109374,0.0002165007608709857,0.00048296325257979333,-0.0003164241788908839
1761402651883399000,8.98939892578125,0.0002165007608709857,0.0004996171337552369,-0.00004996171628590673
1761402651893458400,8.99945849609375,0.0003330780891701579,-0.0010325420880690217,0.0003497319994494319
1761402651903543600,9.00954345703125,0.00016653904458507895,-0.0006161945057101548,-0.00024980856687761843
1761402651913625900,9.0196259765625,0.0007327718194574118,0.00019984686514362693,-0.00039969373028725386
1761402651923706000,9.0297060546875,0.0007327718194574118,0,0.0002165007608709857
1761402651933788400,9.039788330078125,0.0003164241788908839,0.00023315467115025967,0.0002165007608709857
1761402651943869200,9.049869140625,0,-0.00018319295486435294,-0.0000666156192892231
1761402651953919000,9.0599189453125,0.00038303982000797987,0.0002664624771568924,0.0002997702977154404
1761402651964028000,9.07002783203125,-0.00019984686514362693,0.00011657733557512984,0.0003164241788908839
1761402651974113300,9.08011328125,-0.0009326186846010387,0.0013156584464013577,-0.0007494257297366858
1761402651984169000,9.0901689453125,-0.0008660030434839427,0.0005828866851516068,-0.0004163476114626974
1761402651994275800,9.10027587890625,0.0005329249543137848,0.0000666156192892231,0.0004330015217419714
1761402652004357400,9.110357421875,-0.0002831163874361664,-0.0005329249543137848,0.0005828866851516068
1761402652014435300,9.120435302734375,-0.0006994639988988638,0.0010825038189068437,-0.00023315467115025967
1761402652024519200,9.130519287109376,-0.0004996171337552369,-0.0002664624771568924,0.0002997702977154404
1761402652034600200,9.14060009765625,0.0001332312385784462,0.0007993874605745077,0.00009992343257181346
1761402652044682000,9.150681884765625,0.0005329249543137848,-0.00039969373028725386,0.00008326952229253948
1761402652054762800,9.1607626953125,0.0004163476114626974,0.0003164241788908839,0.0005495788645930588
1761402652064844500,9.170844482421876,0.0002165007608709857,-0.0002831163874361664,-0.000016653904822305776
1761402652074900500,9.180900390625,0.00044965543202124536,-0.0004163476114626974,-0.0004996171337552369
1761402652085007000,9.191007080078125,-0.0001332312385784462,0.00044965543202124536,-0.0002664624771568924
1761402652095088400,9.20108837890625,0.00046630934230051935,0.0005828866851516068,-0.0005662327748723328
1761402652105169400,9.21116943359375,0.0003497319994494319,-0.0002997702977154404,-0.0003164241788908839
1761402652115251200,9.221251220703126,0.0002997702977154404,-0.000016653904822305776,0.0001498851488577202
1761402652125291000,9.231291015625,0.0003330780891701579,-0.00044965543202124536,0.0003497319994494319
1761402652135413000,9.2414130859375,-0.0001332312385784462,0.00008326952229253948,-0.00039969373028725386
1761402652145494300,9.251494384765625,-0.0001332312385784462,0.0008326952229253948,0.00004996171628590673
1761402652155576000,9.261576171875,0.0001498851488577202,0.000016653904822305776,-0.0001498851488577202
1761402652165657300,9.2716572265625,-0.00024980856687761843,-0.0011657733703032136,-0.0003497319994494319
1761402652175738000,9.281738037109376,-0.00046630934230051935,0.00018319295486435294,-0.00009992343257181346
1761402652185819600,9.291819580078124,-0.00019984686514362693,0.0004330015217419714,-0.00039969373028725386
1761402652195900400,9.301900390625,-0.0003497319994494319,0.00008326952229253948,0
1761402652205982500,9.311982421875,-0.000016653904822305776,-0.00004996171628590673,-0.00003330780964461155
1761402652216084200,9.322084228515624,-0.00004996171628590673,0.0006328483577817678,0.0005828866851516068
1761402652226144300,9.332144287109376,0.00003330780964461155,0.0002664624771568924,-0.0004163476114626974
1761402652236226000,9.34222607421875,0.0009326186846010387,0.00009992343257181346,0.0003330780891701579
1761402652246306800,9.352306884765625,0.0003663859097287059,0.0006828100886195898,-0.0005828866851516068
1761402652256388000,9.36238818359375,0.0003164241788908839,0.0001498851488577202,-0.0005995405954308808
1761402652266469600,9.3724697265625,0.0001332312385784462,0.00044965543202124536,0.00039969373028725386
1761402652276552000,9.382552001953124,0.00019984686514362693,0.00038303982000797987,0.00038303982000797987
1761402652286632200,9.392632080078124,0.0003497319994494319,0.0003663859097287059,0.00016653904458507895
1761402652296714200,9.40271435546875,-0.0002997702977154404,0.0000666156192892231,-0.00023315467115025967
1761402652306794800,9.412794677734375,0.00019984686514362693,-0.0009825803572311997,0.00018319295486435294
1761402652316877000,9.422876953125,-0.0002831163874361664,-0.00038303982000797987,0.00024980856687761843
1761402652326957600,9.43295751953125,-0.0003164241788908839,-0.0005495788645930588,-0.0003663859097287059
1761402652337038300,9.443038330078124,0.0003164241788908839,-0.0009659265051595867,0.0002831163874361664
1761402652347120600,9.45312060546875,0.00003330780964461155,0.00009992343257181346,0.0001332312385784462
1761402652357201400,9.463201416015625,0.0002831163874361664,-0.00038303982000797987,0.00004996171628590673
1761402652367257000,9.473257080078126,0.00019984686514362693,0.00016653904458507895,-0.00016653904458507895
1761402652377364200,9.4833642578125,0.0002664624771568924,0.00004996171628590673,0.00016653904458507895
1761402652387445000,9.493445068359375,-0.00018319295486435294,-0.0002664624771568924,0.0003330780891701579
1761402652397525800,9.50352587890625,0.00023315467115025967,0.00016653904458507895,-0.00023315467115025967
1761402652407608000,9.513608154296875,0.0007993874605745077,0.00008326952229253948,0.00004996171628590673
1761402652417688800,9.523688720703126,0.0002165007608709857,0.00011657733557512984,0.0003164241788908839
1761402652427770600,9.5337705078125,-0.0001498851488577202,-0.00008326952229253948,-0.0004163476114626974
1761402652437851100,9.54385107421875,-0.00024980856687761843,-0.00003330780964461155,0.00018319295486435294
1761402652447933200,9.55393310546875,0.00011657733557512984,-0.0004330015217419714,-0.00044965543202124536
1761402652458011600,9.56401171875,-0.00011657733557512984,-0.0001332312385784462,0.0002997702977154404
1761402652468091400,9.57409130859375,-0.0010991577291861176,0.0003663859097287059,0.0001332312385784462
1761402652478151000,9.58415087890625,0.0002997702977154404,0,-0.0005828866851516068
1761402652488246000,9.59424609375,-0.0006161945057101548,0.00019984686514362693,-0.00019984686514362693
1761402652498339300,9.60433935546875,-0.00019984686514362693,0.00003330780964461155,-0.0010825038189068437
1761402652508420000,9.614420166015625,-0.000016653904822305776,0.00038303982000797987,0.00004996171628590673
1761402652518502000,9.624501953125,0.0002664624771568924,-0.0001332312385784462,-0.00016653904458507895
1761402652528578800,9.634578857421875,0.0008160413126461208,0.0003330780891701579,-0.0005662327748723328
1761402652538664000,9.644663818359374,-0.0003164241788908839,0.0004996171337552369,0.00004996171628590673
1761402652548746000,9.65474609375,0.00003330780964461155,0.0003330780891701579,0.0009159647743217647
1761402652558826500,9.664826416015625,0.000016653904822305776,-0.0002831163874361664,0.0008826569537632167
1761402652568908300,9.674908203125,0.0003663859097287059,0.00004996171628590673,-0.0003330780891701579
1761402652578989800,9.68498974609375,0.0002831163874361664,-0.00019984686514362693,-0.0009326186846010387
1761402652589046500,9.695046630859375,0.00039969373028725386,-0.0001498851488577202,-0.00009992343257181346
1761402652599126500,9.70512646484375,-0.00004996171628590673,-0.00024980856687761843,-0.00038303982000797987
1761402652609207800,9.715207763671875,0.0002997702977154404,-0.00019984686514362693,-0.0000666156192892231
1761402652619289300,9.725289306640626,0.00003330780964461155,0.0002831163874361664,0.00004996171628590673
1761402652629370400,9.735370361328124,0.0001498851488577202,-0.0002664624771568924,-0.0005495788645930588
1761402652639454500,9.745454345703125,-0.0003330780891701579,0.0005828866851516068,-0.00008326952229253948
1761402652649558000,9.75555810546875,0.0001498851488577202,0.00044965543202124536,-0.00009992343257181346
1761402652659635700,9.7656357421875,0.00009992343257181346,0.0008160413126461208,-0.00009992343257181346
1761402652669720300,9.77572021484375,-0.0001498851488577202,0.0003330780891701579,0.00004996171628590673
1761402652679802600,9.785802734375,-0.0002997702977154404,-0.0001498851488577202,0.0006161945057101548
1761402652689883400,9.79588330078125,-0.00023315467115025967,-0.0005329249543137848,0.0003497319994494319
1761402652699965000,9.80596484375,0.0002831163874361664,-0.00023315467115025967,0
1761402652710046700,9.816046630859375,-0.0000666156192892231,0.00016653904458507895,0.0005329249543137848
1761402652720123400,9.826123291015625,-0.000016653904822305776,0,-0.0003497319994494319
1761402652730208800,9.836208740234374,-0.0004330015217419714,0.00011657733557512984,-0.0004163476114626974
1761402652740289300,9.846289306640625,-0.0004330015217419714,0.00023315467115025967,-0.0001498851488577202
1761402652750345200,9.85634521484375,-0.00018319295486435294,-0.00011657733557512984,0.00024980856687761843
1761402652760452900,9.866452880859375,0.00003330780964461155,-0.00003330780964461155,-0.00046630934230051935
1761402652770533600,9.87653369140625,-0.0001332312385784462,-0.00008326952229253948,-0.0006661561783403158
1761402652780605400,9.88660546875,0.0003164241788908839,-0.0006994639988988638,0.0005162710440345109
1761402652790692000,9.896692138671876,0.00008326952229253948,-0.00008326952229253948,0.0000666156192892231
1761402652800776700,9.906776611328125,-0.0005329249543137848,-0.0003497319994494319,0.00003330780964461155
1761402652810858500,9.9168583984375,0.0002997702977154404,-0.0002831163874361664,0.0003663859097287059
1761402652820940500,9.9269404296875,0.0000666156192892231,-0.0005662327748723328,0.00019984686514362693
1761402652830995200,9.9369951171875,0.0002165007608709857,-0.0005495788645930588,0.0006661561783403158
1761402652841102300,9.947102294921875,-0.00008326952229253948,-0.00024980856687761843,-0.0004163476114626974
1761402652851179500,9.957179443359376,-0.0000666156192892231,0.0002165007608709857,-0.0007827335502952337
1761402652861265700,9.967265625,-0.00048296325257979333,0.0001332312385784462,0.0003663859097287059
1761402652871346200,9.97734619140625,0.0002165007608709857,0.00011657733557512984,0.0001332312385784462
1761402652881428000,9.987427978515624,-0.00009992343257181346,0.00018319295486435294,-0.00008326952229253948
1761402652891508500,9.997508544921875,0.0004163476114626974,0.00039969373028725386,0.0002664624771568924
1761402652901590500,10.007590576171875,-0.00009992343257181346,-0.0002997702977154404,0.0003497319994494319
1761402652911671000,10.017671142578125,-0.00024980856687761843,0.0002997702977154404,0
1761402652921748700,10.027748779296875,0.00009992343257181346,0.0006328483577817678,0.00003330780964461155
1761402652931834000,10.037834228515624,0.00004996171628590673,0.00019984686514362693,-0.00004996171628590673
1761402652941915600,10.04791552734375,-0.0003497319994494319,0.00048296325257979333,0.0007660796400159597
1761402652951997000,10.057996826171875,-0.00023315467115025967,-0.0000666156192892231,0.00008326952229253948
1761402652962078200,10.068078125,0.0006328483577817678,0.0005495788645930588,0.00038303982000797987
1761402652972158500,10.078158447265626,0.0003663859097287059,0.0004996171337552369,0.00046630934230051935
1761402652982236200,10.088236083984375,0.00004996171628590673,-0.00003330780964461155,0.0004330015217419714
1761402652992296400,10.09829638671875,-0.0004330015217419714,0.0003164241788908839,0.0005828866851516068
1761402653002377200,10.108377197265625,-0.000016653904822305776,0.0001332312385784462,0.00003330780964461155
1761402653022544600,10.128544677734375,-0.0002831163874361664,0.00019984686514362693,0.0006828100886195898
1761402653032646700,10.138646728515624,-0.00044965543202124536,-0.00039969373028725386,0.00024980856687761843
1761402653042724400,10.148724365234376,0.00016653904458507895,-0.00016653904458507895,0.00039969373028725386
1761402653052809500,10.1588095703125,-0.00003330780964461155,0.0003497319994494319,-0.00008326952229253948
1761402653062891000,10.16889111328125,0.00019984686514362693,0.0003330780891701579,0.0006328483577817678
1761402653072971800,10.1789716796875,-0.0000666156192892231,-0.00009992343257181346,0.00023315467115025967
1761402653083053600,10.189053466796874,0.0002831163874361664,0.00003330780964461155,0.0007827335502952337
1761402653093134600,10.199134521484375,-0.00019984686514362693,0.00018319295486435294,0.0002165007608709857
1761402653103215000,10.209215087890625,-0.00009992343257181346,-0.0000666156192892231,0.00009992343257181346
1761402653113292500,10.21929248046875,-0.00009992343257181346,0.0006828100886195898,0.00024980856687761843
1761402653123378400,10.22937841796875,-0.0001498851488577202,0.0005329249543137848,-0.00003330780964461155
1761402653133435100,10.23943505859375,-0.00018319295486435294,-0.0006161945057101548,0.0006994639988988638
1761402653143541200,10.249541259765625,-0.0009159647743217647,0.00008326952229253948,0.00048296325257979333
1761402653153622000,10.2596220703125,0.0003164241788908839,-0.0006661561783403158,0.0004996171337552369
1761402653163678000,10.269677978515626,0.0006994639988988638,0.00003330780964461155,0.0005162710440345109
1761402653173781200,10.27978125,0.00008326952229253948,-0.0003330780891701579,0.00046630934230051935
1761402653183865300,10.289865234375,0.00004996171628590673,-0.0008326952229253948,-0.0005995405954308808
1761402653193947600,10.29994775390625,0.0007161179091781378,-0.0005995405954308808,0.00046630934230051935
1761402653204028000,10.31002783203125,-0.0003497319994494319,-0.0006328483577817678,-0.00018319295486435294
1761402653214089000,10.3200888671875,-0.00023315467115025967,-0.0003663859097287059,0.0002997702977154404
1761402653224169200,10.330169189453125,-0.00048296325257979333,-0.0005329249543137848,0.0002831163874361664
1761402653234271500,10.340271484375,-0.0007993874605745077,0.0006994639988988638,-0.0003663859097287059
1761402653244349400,10.350349365234376,0.00016653904458507895,-0.0005495788645930588,-0.00046630934230051935
1761402653254434300,10.360434326171875,0.0003164241788908839,-0.0002165007608709857,0.00024980856687761843
1761402653264515800,10.370515869140625,0.00023315467115025967,-0.00018319295486435294,0.00024980856687761843
1761402653274579700,10.380579833984376,-0.00018319295486435294,-0.0005995405954308808,-0.00011657733557512984
1761402653284679000,10.390678955078124,-0.0003330780891701579,0.00004996171628590673,-0.00011657733557512984
1761402653294759700,10.400759765625,-0.000016653904822305776,0.00011657733557512984,-0.0006495022680610418
1761402653304817400,10.4108173828125,0.0006495022680610418,0.00004996171628590673,-0.0004996171337552369
1761402653314922200,10.420922119140625,0.0003330780891701579,0.0001332312385784462,0.0002831163874361664
1761402653324971300,10.43097119140625,0.0005828866851516068,0.0003663859097287059,0.00018319295486435294
1761402653335084800,10.441084716796874,-0.00004996171628590673,-0.0009992342675104737,0.0002664624771568924
1761402653345165600,10.45116552734375,0.000016653904822305776,-0.00018319295486435294,-0.00011657733557512984
1761402653355247000,10.4612470703125,0.0003164241788908839,-0.0009492725948803127,0
1761402653365328400,10.471328369140625,0.0004330015217419714,-0.0006161945057101548,0.00018319295486435294
1761402653375409400,10.481409423828126,-0.00004996171628590673,-0.0002664624771568924,-0.00003330780964461155
1761402653385491200,10.4914912109375,0.00011657733557512984,-0.0007660796400159597,-0.0003330780891701579
1761402653395572200,10.501572265625,-0.0005828866851516068,0.0002997702977154404,0.00018319295486435294
1761402653405653200,10.5116533203125,0.0005162710440345109,-0.0002664624771568924,-0.0002997702977154404
1761402653415734800,10.52173486328125,-0.00008326952229253948,-0.0005828866851516068,-0.0000666156192892231
1761402653425817000,10.531817138671874,0.00016653904458507895,0.0004163476114626974,0
1761402653435895300,10.541895263671876,0.0002165007608709857,0.0008493491332046688,-0.0002997702977154404
1761402653445979000,10.551978759765625,0.0004163476114626974,0.0002165007608709857,-0.00018319295486435294
1761402653456060200,10.56206005859375,0.00003330780964461155,0.0002997702977154404,0.00019984686514362693
1761402653466141200,10.57214111328125,-0.0001332312385784462,-0.0000666156192892231,0.000016653904822305776
1761402653476194000,10.582194091796875,-0.0002997702977154404,0.00016653904458507895,-0.0004330015217419714
1761402653486303500,10.592303466796874,0.00008326952229253948,0.0008493491332046688,-0.00044965543202124536
1761402653496385000,10.602385009765625,-0.0002165007608709857,-0.00009992343257181346,-0.0000666156192892231
1761402653506466000,10.612466064453125,-0.00011657733557512984,-0.00018319295486435294,0.0003663859097287059
1761402653516547300,10.62254736328125,0.00008326952229253948,0.0003663859097287059,0.00016653904458507895
1761402653526628400,10.63262841796875,0.0004996171337552369,-0.0000666156192892231,0.00019984686514362693
1761402653536710400,10.64271044921875,0.00038303982000797987,0.00003330780964461155,0.000016653904822305776
1761402653546791200,10.652791259765625,0.0004996171337552369,-0.0001498851488577202,0.00044965543202124536
1761402653556872400,10.66287255859375,-0.0006161945057101548,-0.0002664624771568924,0.00038303982000797987
1761402653566937900,10.672937744140626,-0.00016653904458507895,0.00046630934230051935,-0.0002165007608709857
1761402653577035500,10.683035400390626,0.0001498851488577202,-0.0002664624771568924,0.0008326952229253948
1761402653587116800,10.69311669921875,0.00004996171628590673,-0.00023315467115025967,0.0006495022680610418
1761402653597197600,10.703197509765625,0.0005662327748723328,-0.0004996171337552369,0.0004996171337552369
1761402653607278800,10.71327880859375,0.0003497319994494319,0.00003330780964461155,0.00019984686514362693
1761402653617360100,10.723360107421875,0.00011657733557512984,0.0006495022680610418,-0.00044965543202124536
1761402653627441200,10.733441162109376,0.0002831163874361664,0.0002664624771568924,-0.0001332312385784462
1761402653637522700,10.743522705078124,0.00008326952229253948,-0.00023315467115025967,0.0001332312385784462
1761402653647580000,10.753579833984375,-0.0006495022680610418,-0.0004330015217419714,0.0001332312385784462
1761402653657686000,10.76368603515625,0.0005329249543137848,0.0004330015217419714,-0.0001332312385784462
1761402653667766500,10.7737666015625,0.00023315467115025967,-0.0006328483577817678,-0.00009992343257181346
1761402653677822500,10.783822509765624,-0.00038303982000797987,0,0.00018319295486435294
1761402653687929000,10.79392919921875,0.0001332312385784462,0.00016653904458507895,-0.00003330780964461155
1761402653698008600,10.804008544921874,0.00008326952229253948,0.0002165007608709857,0.0005329249543137848
1761402653708087300,10.81408740234375,-0.00011657733557512984,-0.00024980856687761843,-0.0004163476114626974
1761402653718169900,10.824169921875,0.0005495788645930588,0.00019984686514362693,0.0005995405954308808
1761402653728254000,10.83425390625,0.0002664624771568924,0.000016653904822305776,-0.00018319295486435294
1761402653738335500,10.84433544921875,0.0006495022680610418,0.000016653904822305776,-0.00019984686514362693
1761402653748412700,10.85441259765625,0.00024980856687761843,0.0000666156192892231,-0.0006161945057101548
1761402653758498300,10.864498291015625,-0.0002664624771568924,0.0008326952229253948,-0.00018319295486435294
1761402653768578000,10.874578125,-0.0000666156192892231,-0.000016653904822305776,0.0002165007608709857
1761402653778660900,10.884660888671876,-0.0003164241788908839,-0.0003497319994494319,0.0003164241788908839
1761402653788742400,10.894742431640625,0.0007494257297366858,-0.00009992343257181346,0.0001332312385784462
1761402653798823000,10.904822998046875,0.0005495788645930588,-0.00011657733557512984,-0.0002831163874361664
1761402653808878800,10.91487890625,0.0004330015217419714,-0.00003330780964461155,0.00038303982000797987
1761402653818963200,10.924963134765624,-0.00011657733557512984,0.0002997702977154404,0.0005662327748723328
1761402653829066500,10.93506640625,0.0000666156192892231,-0.00044965543202124536,0.0002997702977154404
1761402653839148000,10.94514794921875,-0.00046630934230051935,0.0000666156192892231,0.0005162710440345109
1761402653869392400,10.975392333984376,-0.0002664624771568924,-0.0006328483577817678,0.0005828866851516068
1761402653879469800,10.9854697265625,-0.00023315467115025967,-0.0001332312385784462,-0.00048296325257979333
1761402653889554400,10.995554443359374,0.0003330780891701579,0.00019984686514362693,0.0003497319994494319
1761402653899635700,11.0056357421875,0.00016653904458507895,0.0008993108640424907,0.00048296325257979333
1761402653909716700,11.015716796875,0.0002831163874361664,0.0001332312385784462,-0.000016653904822305776
1761402653919777500,11.025777587890625,0.0006994639988988638,0.0003330780891701579,-0.00023315467115025967
1761402653929879300,11.03587939453125,0.00004996171628590673,-0.00004996171628590673,-0.0006161945057101548
1761402653939957200,11.045957275390625,0.00004996171628590673,0.0003164241788908839,0.0004163476114626974
1761402653950042000,11.0560419921875,0.00008326952229253948,0.0002997702977154404,0.000016653904822305776
1761402653960124000,11.0661240234375,0.0003497319994494319,0.00024980856687761843,-0.0004996171337552369
1761402653970204700,11.07620458984375,-0.0005662327748723328,-0.0010658499086275697,0.00024980856687761843
1761402653980286700,11.08628662109375,-0.00004996171628590673,-0.0001498851488577202,-0.00018319295486435294
1761402653990367200,11.0963671875,-0.00009992343257181346,0,-0.00023315467115025967
1761402654000445000,11.10644482421875,-0.00023315467115025967,-0.00011657733557512984,-0.0003497319994494319
1761402654010530600,11.116530517578125,0.0006328483577817678,-0.0010991577291861176,-0.0005329249543137848
1761402654020611300,11.126611328125,0.00003330780964461155,-0.0004163476114626974,0.0005662327748723328
1761402654030692400,11.1366923828125,0.000016653904822305776,-0.0003497319994494319,0.0002831163874361664
1761402654040773400,11.1467734375,-0.0006994639988988638,-0.0008326952229253948,0.00008326952229253948
1761402654050855000,11.15685498046875,0.00024980856687761843,-0.0006328483577817678,-0.00048296325257979333
1761402654060936400,11.1669365234375,0.00023315467115025967,-0.0006994639988988638,-0.0002997702977154404
1761402654071013600,11.177013671875,-0.0001332312385784462,0.00004996171628590673,-0.0004163476114626974
1761402654081099300,11.187099365234374,0.00016653904458507895,-0.0006161945057101548,-0.0003330780891701579
1761402654091180000,11.197179931640624,-0.00004996171628590673,0.00024980856687761843,0.0004996171337552369
1761402654101261800,11.20726171875,-0.00038303982000797987,-0.00016653904458507895,0.00044965543202124536
1761402654111320600,11.217320556640624,0.0004330015217419714,0.0006161945057101548,-0.0000666156192892231
1761402654121424100,11.227424072265626,-0.00019984686514362693,0.0001332312385784462,0.00008326952229253948
1761402654131501300,11.237501220703125,0.0000666156192892231,-0.0006161945057101548,-0.0003663859097287059
1761402654141587200,11.247587158203125,-0.00019984686514362693,-0.00009992343257181346,-0.00009992343257181346
1761402654151647000,11.25764697265625,-0.00023315467115025967,0.00003330780964461155,-0.000016653904822305776
1761402654161749500,11.26774951171875,0.000016653904822305776,-0.0009326186846010387,-0.0006495022680610418
1761402654171830800,11.277830810546876,0.0003497319994494319,-0.00011657733557512984,0.0004163476114626974
1761402654181871600,11.28787158203125,-0.0003164241788908839,0.00003330780964461155,-0.0004996171337552369
1761402654192002800,11.2980029296875,-0.0008160413126461208,0.0005828866851516068,-0.0003497319994494319
1761402654202048300,11.30804833984375,-0.0004163476114626974,0.00044965543202124536,0.00008326952229253948
1761402654212156000,11.318156005859375,0.0002165007608709857,0.0007660796400159597,-0.0001332312385784462
1761402654222211600,11.328211669921876,0.0003497319994494319,0.00008326952229253948,0
1761402654232318500,11.338318359375,0.0003663859097287059,-0.00004996171628590673,-0.0002831163874361664
1761402654242374000,11.348373779296875,-0.0006661561783403158,-0.000016653904822305776,-0.000016653904822305776
1761402654252481000,11.35848095703125,-0.00008326952229253948,-0.0002997702977154404,0.00038303982000797987
1761402654262557200,11.36855712890625,0.00008326952229253948,0.0006994639988988638,-0.0004996171337552369
1761402654272642600,11.378642578125,-0.00008326952229253948,-0.00019984686514362693,-0.00003330780964461155
1761402654282724600,11.388724609375,-0.00016653904458507895,-0.0004330015217419714,-0.0002664624771568924
1761402654292805000,11.39880517578125,-0.00003330780964461155,0.00023315467115025967,-0.00038303982000797987
1761402654302887000,11.408886962890625,-0.0002664624771568924,0.0002165007608709857,-0.00038303982000797987
1761402654312968700,11.41896875,-0.00044965543202124536,-0.00024980856687761843,-0.00023315467115025967
1761402654323024000,11.42902392578125,0.00003330780964461155,0.000016653904822305776,-0.00003330780964461155
1761402654333131300,11.43913134765625,0.00018319295486435294,-0.000016653904822305776,-0.00018319295486435294
1761402654343212300,11.44921240234375,-0.00019984686514362693,-0.0002664624771568924,-0.00008326952229253948
1761402654353267500,11.459267333984375,0.00008326952229253948,-0.0001332312385784462,-0.0011491194600239396
1761402654363388000,11.469387939453124,0.0005329249543137848,-0.0001332312385784462,0.0003663859097287059
1761402654373455400,11.479455322265625,0.0003164241788908839,0.0007660796400159597,-0.0005162710440345109
1761402654383537700,11.48953759765625,-0.0003663859097287059,-0.00011657733557512984,0.0005828866851516068
1761402654393614000,11.499614013671875,0.000016653904822305776,-0.00009992343257181346,0.00039969373028725386
1761402654403699200,11.50969921875,-0.000016653904822305776,-0.0003330780891701579,-0.00008326952229253948
1761402654413781200,11.51978125,-0.0003164241788908839,-0.0007494257297366858,0.0003497319994494319
1761402654423861800,11.52986181640625,-0.00004996171628590673,0.00011657733557512984,-0.00048296325257979333
1761402654433943800,11.53994384765625,0.00004996171628590673,0.0006828100886195898,-0.0003330780891701579
1761402654444024300,11.5500244140625,-0.00019984686514362693,0.00003330780964461155,-0.0000666156192892231
1761402654454102000,11.56010205078125,-0.00004996171628590673,-0.00023315467115025967,-0.00016653904458507895
1761402654464187400,11.5701875,-0.00008326952229253948,-0.0000666156192892231,-0.0006495022680610418
1761402654474268700,11.5802685546875,-0.00048296325257979333,0.0007494257297366858,0.00039969373028725386
1761402654484350200,11.59035009765625,-0.00023315467115025967,0.0007993874605745077,-0.0003663859097287059
1761402654494416600,11.600416748046875,0.0002997702977154404,0.00019984686514362693,-0.0003497319994494319
1761402654504487000,11.61048681640625,0.00003330780964461155,-0.00019984686514362693,-0.00018319295486435294
1761402654514593300,11.62059326171875,-0.00046630934230051935,-0.0005662327748723328,-0.0003497319994494319
1761402654524671200,11.630671142578125,-0.00019984686514362693,-0.0003330780891701579,-0.00019984686514362693
1761402654534756400,11.64075634765625,-0.0004330015217419714,0.00024980856687761843,-0.0006828100886195898
1761402654544812500,11.6508125,0.00003330780964461155,-0.00024980856687761843,-0.0002165007608709857
1761402654554918000,11.66091796875,0.00016653904458507895,0.0006994639988988638,-0.0001332312385784462
1761402654564999400,11.67099951171875,-0.0003164241788908839,0.0002165007608709857,-0.0001498851488577202
1761402654575080700,11.681080810546876,0.0005162710440345109,0.0004996171337552369,-0.00011657733557512984
1761402654585162500,11.69116259765625,0.0001498851488577202,-0.0002831163874361664,-0.0003497319994494319
1761402654595243300,11.7012431640625,0.00008326952229253948,-0.00009992343257181346,0.00018319295486435294
