time,seconds_elapsed,z,y,x
1761315398855404500,0.217404541015625,2.4023938179016113,-8.872586250305176,-3.9433717727661133
1761315398874326500,0.236326416015625,2.392822742462158,-8.877371788024902,-3.9074792861938477
1761315398893248300,0.255248291015625,2.3976082801818848,-8.882157325744629,-3.8979079723358154
1761315398912170200,0.274170166015625,2.4047868251800537,-8.85344409942627,-3.9074792861938477
1761315398931092000,0.293092041015625,2.400001049041748,-8.870193481445312,-3.933800458908081
1761315398950013700,0.312013671875,2.4095723628997803,-8.865407943725586,-3.91705060005188
1761315398968935700,0.330935791015625,2.416750907897949,-8.85344409942627,-3.9290146827697754
1761315398987857400,0.349857421875,2.376072883605957,-8.8438720703125,-3.94815731048584
1761315399006779400,0.368779296875,2.4095723628997803,-8.877371788024902,-3.9122650623321533
1761315399025701000,0.387701171875,2.423929452896118,-8.879764556884766,-3.88594388961792
1761315399044622800,0.406622802734375,2.423929452896118,-8.872586250305176,-3.9050865173339844
1761315399063544800,0.425544921875,2.400001049041748,-8.865407943725586,-3.933800458908081
1761315399082466600,0.444466552734375,2.383251428604126,-8.894122123718262,-3.8979079723358154
1761315399101388500,0.463388427734375,2.416750907897949,-8.93240737915039,-3.8285162448883057
1761315399120310300,0.482310302734375,2.416750907897949,-8.879764556884766,-3.845266103744507
1761315399139232000,0.50123193359375,2.383251428604126,-8.858229637145996,-3.88594388961792
1761315399158154000,0.520154052734375,2.3856441974639893,-8.870193481445312,-3.8739798069000244
1761315399177075700,0.53907568359375,2.3976082801818848,-8.889336585998535,-3.84765887260437
1761315399195997700,0.557997802734375,2.414358139038086,-8.903693199157715,-3.8572301864624023
1761315399214919400,0.57691943359375,2.3880369663238525,-8.898907661437988,-3.8835511207580566
1761315399233841200,0.595841064453125,2.3808584213256836,-8.884550094604492,-3.900300979614258
1761315399252763100,0.61476318359375,2.3856441974639893,-8.865407943725586,-3.895515203475952
1761315399271684900,0.633684814453125,2.400001049041748,-8.848658561706543,-3.8979079723358154
1761315399290606800,0.65260693359375,2.3952155113220215,-8.83669376373291,-3.9385859966278076
1761315399309528600,0.671528564453125,2.3952155113220215,-8.82233715057373,-3.964907169342041
1761315399328450300,0.6904501953125,2.376072883605957,-8.827122688293457,-3.950550079345703
1761315399347372300,0.709372314453125,2.383251428604126,-8.824729919433594,-3.9601213932037354
1761315399366294000,0.7282939453125,2.4023938179016113,-8.83669376373291,-3.9529430866241455
1761315399385216000,0.747216064453125,2.4095723628997803,-8.86062240600586,-3.94097900390625
1761315399404137700,0.7661376953125,2.3976082801818848,-8.858229637145996,-3.9218363761901855
1761315399423059500,0.7850595703125,2.407179594039917,-8.874979019165039,-3.9218363761901855
1761315399441981400,0.8039814453125,2.4095723628997803,-8.83669376373291,-3.895515203475952
1761315399460903200,0.822903076171875,2.407179594039917,-8.865407943725586,-3.91705060005188
1761315399479825200,0.8418251953125,2.4287149906158447,-8.891729354858398,-3.8572301864624023
1761315399498747000,0.860746826171875,2.414358139038086,-8.908478736877441,-3.869194269180298
1761315399517668600,0.879668701171875,2.3880369663238525,-8.901300430297852,-3.8835511207580566
1761315399536590600,0.898590576171875,2.3808584213256836,-8.855836868286133,-3.91705060005188
1761315399555512300,0.91751220703125,2.3808584213256836,-8.86780071258545,-3.9122650623321533
1761315399574434300,0.936434326171875,2.3784656524658203,-8.872586250305176,-3.864408493041992
1761315399593356000,0.95535595703125,2.3856441974639893,-8.877371788024902,-3.88594388961792
1761315399612277800,0.97427783203125,2.3976082801818848,-8.889336585998535,-3.9146578311920166
1761315399631199700,0.99319970703125,2.3976082801818848,-8.884550094604492,-3.8979079723358154
1761315399650121500,1.01212158203125,2.376072883605957,-8.879764556884766,-3.88594388961792
1761315399669043500,1.03104345703125,2.4047868251800537,-8.86780071258545,-3.8835511207580566
1761315399687965200,1.049965087890625,2.400001049041748,-8.83669376373291,-3.950550079345703
1761315399706887200,1.06888720703125,2.3736801147460938,-8.83669376373291,-3.9314076900482178
1761315399725809000,1.087808837890625,2.3952155113220215,-8.827122688293457,-3.9122650623321533
1761315399744730600,1.106730712890625,2.4119651317596436,-8.889336585998535,-3.864408493041992
1761315399763652600,1.125652587890625,2.431107759475708,-8.898907661437988,-3.8500516414642334
1761315399782574300,1.14457421875,2.3880369663238525,-8.889336585998535,-3.8907296657562256
1761315399801496000,1.16349609375,2.390429735183716,-8.882157325744629,-3.8883368968963623
1761315399820418000,1.18241796875,2.4047868251800537,-8.910871505737305,-3.8572301864624023
1761315399839339800,1.20133984375,2.3952155113220215,-8.86780071258545,-3.845266103744507
1761315399858261800,1.22026171875,2.4047868251800537,-8.891729354858398,-3.869194269180298
1761315399877183500,1.23918359375,2.3712873458862305,-8.877371788024902,-3.8835511207580566
1761315399896105200,1.258105224609375,2.368894338607788,-8.886942863464355,-3.895515203475952
1761315399915027200,1.277027099609375,2.3856441974639893,-8.910871505737305,-3.88594388961792
1761315399933949000,1.295948974609375,2.383251428604126,-8.879764556884766,-3.864408493041992
1761315399952871000,1.314870849609375,2.390429735183716,-8.877371788024902,-3.90987229347229
1761315399971792600,1.333792724609375,2.3784656524658203,-8.839086532592773,-3.94815731048584
1761315399990714600,1.352714599609375,2.392822742462158,-8.863015174865723,-3.926621913909912
1761315400009636400,1.37163623046875,2.3952155113220215,-8.851051330566406,-3.9290146827697754
1761315400028558000,1.39055810546875,2.4191436767578125,-8.85344409942627,-3.950550079345703
1761315400047480000,1.40947998046875,2.4047868251800537,-8.841479301452637,-3.9672999382019043
1761315400066401800,1.42840185546875,2.3952155113220215,-8.831908226013184,-3.9625144004821777
1761315400085323500,1.447323486328125,2.4023938179016113,-8.86062240600586,-3.9529430866241455
1761315400104245500,1.46624560546875,2.3976082801818848,-8.891729354858398,-3.90987229347229
1761315400123167200,1.485167236328125,2.3712873458862305,-8.858229637145996,-3.893122434616089
1761315400142089200,1.504089111328125,2.383251428604126,-8.848658561706543,-3.9050865173339844
1761315400161011000,1.523010986328125,2.3736801147460938,-8.877371788024902,-3.9194436073303223
1761315400179932700,1.5419326171875,2.383251428604126,-8.908478736877441,-3.88594388961792
1761315400198854700,1.560854736328125,2.392822742462158,-8.891729354858398,-3.8596229553222656
1761315400217776400,1.5797763671875,2.3736801147460938,-8.889336585998535,-3.8739798069000244
1761315400236698400,1.598698486328125,2.3545374870300293,-8.858229637145996,-3.871587038040161
1761315400255620000,1.6176201171875,2.3712873458862305,-8.855836868286133,-3.895515203475952
1761315400274541800,1.636541748046875,2.431107759475708,-8.915657043457031,-3.830909013748169
1761315400293463800,1.6554638671875,2.4191436767578125,-8.898907661437988,-3.845266103744507
1761315400312385500,1.674385498046875,2.4335005283355713,-8.925228118896484,-3.809373617172241
1761315400331307500,1.6933076171875,2.3712873458862305,-8.949156761169434,-3.814159393310547
1761315400350229200,1.712229248046875,2.3808584213256836,-8.908478736877441,-3.8668015003204346
1761315400369151000,1.73115087890625,2.366501569747925,-8.896514892578125,-3.8668015003204346
1761315400388073000,1.750072998046875,2.3569302558898926,-8.884550094604492,-3.8500516414642334
1761315400406994700,1.76899462890625,2.3569302558898926,-8.898907661437988,-3.8524444103240967
1761315400425916700,1.787916748046875,2.3330020904541016,-8.886942863464355,-3.871587038040161
1761315400444838400,1.80683837890625,2.3545374870300293,-8.870193481445312,-3.8883368968963623
1761315400463760100,1.825760009765625,2.3617160320281982,-8.86780071258545,-3.9122650623321533
1761315400482682000,1.84468212890625,2.390429735183716,-8.896514892578125,-3.8763725757598877
1761315400501603800,1.863603759765625,2.3808584213256836,-8.872586250305176,-3.8811583518981934
1761315400520525800,1.88252587890625,2.383251428604126,-8.889336585998535,-3.895515203475952
1761315400539447600,1.901447509765625,2.376072883605957,-8.879764556884766,-3.900300979614258
1761315400558369300,1.920369384765625,2.3856441974639893,-8.898907661437988,-3.8979079723358154
1761315400577291300,1.939291259765625,2.3880369663238525,-8.865407943725586,-3.895515203475952
1761315400596213000,1.958212890625,2.3880369663238525,-8.85344409942627,-3.88594388961792
1761315400615135000,1.977135009765625,2.3712873458862305,-8.863015174865723,-3.9074792861938477
1761315400634056700,1.996056640625,2.3784656524658203,-8.877371788024902,-3.924229145050049
1761315400652978400,2.014978515625,2.3784656524658203,-8.874979019165039,-3.8979079723358154
1761315400671900400,2.033900390625,2.383251428604126,-8.855836868286133,-3.900300979614258
1761315400690822100,2.052822265625,2.3497519493103027,-8.85344409942627,-3.9290146827697754
1761315400709743900,2.071743896484375,2.366501569747925,-8.874979019165039,-3.9146578311920166
1761315400728665900,2.090665771484375,2.368894338607788,-8.927620887756348,-3.900300979614258
1761315400747587600,2.109587646484375,2.352144718170166,-8.93958568572998,-3.840480327606201
1761315400766509600,2.128509521484375,2.359323024749756,-8.94676399230957,-3.806980848312378
1761315400785431300,2.147431396484375,2.3330020904541016,-8.920442581176758,-3.830909013748169
1761315400804353000,2.16635302734375,2.359323024749756,-8.898907661437988,-3.845266103744507
1761315400823275000,2.18527490234375,2.344966173171997,-8.903693199157715,-3.838087558746338
1761315400842196700,2.20419677734375,2.359323024749756,-8.937192916870117,-3.830909013748169
1761315400861118700,2.22311865234375,2.3641088008880615,-8.94676399230957,-3.799802303314209
1761315400880040400,2.24204052734375,2.3545374870300293,-8.93240737915039,-3.81655216217041
1761315400898962200,2.260962158203125,2.3497519493103027,-8.93240737915039,-3.8428730964660645
1761315400917884200,2.27988427734375,2.3617160320281982,-8.949156761169434,-3.84765887260437
1761315400936806000,2.298805908203125,2.3736801147460938,-8.944371223449707,-3.840480327606201
1761315400955728000,2.317727783203125,2.366501569747925,-8.920442581176758,-3.840480327606201
1761315400974649600,2.336649658203125,2.335394859313965,-8.884550094604492,-3.87876558303833
1761315400993571300,2.3555712890625,2.321038007736206,-8.894122123718262,-3.8907296657562256
1761315401012493300,2.374493408203125,2.335394859313965,-8.874979019165039,-3.8907296657562256
1761315401031415000,2.3934150390625,2.3473589420318604,-8.920442581176758,-3.85483717918396
1761315401050336800,2.412336669921875,2.3473589420318604,-8.908478736877441,-3.871587038040161
1761315401069258800,2.4312587890625,2.3545374870300293,-8.877371788024902,-3.8907296657562256
1761315401088180500,2.450180419921875,2.321038007736206,-8.896514892578125,-3.8883368968963623
1761315401107102500,2.4691025390625,2.328216314315796,-8.898907661437988,-3.8572301864624023
1761315401126024200,2.488024169921875,2.313859462738037,-8.910871505737305,-3.8572301864624023
1761315401144946200,2.5069462890625,2.3473589420318604,-8.874979019165039,-3.8763725757598877
1761315401163868000,2.525867919921875,2.3497519493103027,-8.894122123718262,-3.9050865173339844
1761315401182789600,2.54478955078125,2.328216314315796,-8.920442581176758,-3.87876558303833
1761315401201711600,2.563711669921875,2.311466693878174,-8.915657043457031,-3.871587038040161
1761315401220633300,2.58263330078125,2.313859462738037,-8.93240737915039,-3.8572301864624023
1761315401239555000,2.60155517578125,2.3306093215942383,-8.937192916870117,-3.81655216217041
1761315401258477000,2.62047705078125,2.3401806354522705,-8.937192916870117,-3.838087558746338
1761315401277398800,2.639398681640625,2.328216314315796,-8.922835350036621,-3.830909013748169
1761315401296320800,2.65832080078125,2.311466693878174,-8.910871505737305,-3.830909013748169
1761315401315242500,2.677242431640625,2.306680917739868,-8.930013656616211,-3.814159393310547
1761315401334164200,2.696164306640625,2.3162522315979004,-8.925228118896484,-3.8189449310302734
1761315401353086200,2.715086181640625,2.3018953800201416,-8.93958568572998,-3.81655216217041
1761315401372008000,2.734008056640625,2.3258235454559326,-8.93958568572998,-3.8045880794525146
1761315401390930000,2.752929931640625,2.352144718170166,-8.980263710021973,-3.7710886001586914
1761315401409851600,2.7718515625,2.342573404312134,-8.975478172302246,-3.7782669067382812
1761315401428773400,2.7907734375,2.321038007736206,-8.958727836608887,-3.7950167655944824
1761315401447695400,2.8096953125,2.3186452388763428,-8.951549530029297,-3.8213376998901367
1761315401466617000,2.8286171875,2.328216314315796,-8.922835350036621,-3.81655216217041
1761315401485538800,2.847538818359375,2.352144718170166,-8.918049812316895,-3.840480327606201
1761315401504460800,2.866460693359375,2.342573404312134,-8.896514892578125,-3.8811583518981934
1761315401523382500,2.885382568359375,2.3545374870300293,-8.874979019165039,-3.902693748474121
1761315401542304500,2.904304443359375,2.344966173171997,-8.846264839172363,-3.924229145050049
1761315401561226200,2.923226318359375,2.3497519493103027,-8.865407943725586,-3.90987229347229
1761315401580148000,2.94214794921875,2.3497519493103027,-8.839086532592773,-3.9601213932037354
1761315401599070000,2.961070068359375,2.335394859313965,-8.8438720703125,-3.9744784832000732
1761315401617991700,2.97999169921875,2.3545374870300293,-8.86780071258545,-3.94815731048584
1761315401636913700,2.99891357421875,2.368894338607788,-8.874979019165039,-3.9314076900482178
1761315401655835400,3.01783544921875,2.3736801147460938,-8.882157325744629,-3.902693748474121
1761315401674757000,3.036757080078125,2.3497519493103027,-8.86062240600586,-3.9433717727661133
1761315401693679000,3.05567919921875,2.3306093215942383,-8.839086532592773,-3.9457645416259766
1761315401712600800,3.074600830078125,2.313859462738037,-8.874979019165039,-3.8907296657562256
1761315401731522800,3.093522705078125,2.335394859313965,-8.922835350036621,-3.895515203475952
1761315401750444500,3.112444580078125,2.3018953800201416,-8.910871505737305,-3.8596229553222656
1761315401769366300,3.1313662109375,2.3162522315979004,-8.922835350036621,-3.8356947898864746
1761315401788288300,3.150288330078125,2.2851455211639404,-8.944371223449707,-3.8045880794525146
1761315401807210000,3.1692099609375,2.297109842300415,-8.951549530029297,-3.809373617172241
1761315401826132000,3.188132080078125,2.266003131866455,-8.93958568572998,-3.8213376998901367
1761315401845053700,3.2070537109375,2.280359983444214,-8.980263710021973,-3.7974095344543457
1761315401863975400,3.225975341796875,2.258824586868286,-8.95394229888916,-3.81655216217041
1761315401882897400,3.2448974609375,2.266003131866455,-8.891729354858398,-3.82373046875
1761315401901819100,3.263819091796875,2.311466693878174,-8.870193481445312,-3.8739798069000244
1761315401920741000,3.2827412109375,2.3569302558898926,-8.855836868286133,-3.893122434616089
1761315401939662800,3.301662841796875,2.3784656524658203,-8.851051330566406,-3.933800458908081
1761315401958584600,3.32058447265625,2.383251428604126,-8.886942863464355,-3.9361932277679443
1761315401977506600,3.339506591796875,2.416750907897949,-8.884550094604492,-3.91705060005188
1761315401996428300,3.35842822265625,2.4287149906158447,-8.925228118896484,-3.9146578311920166
1761315402015350000,3.37735009765625,2.421536445617676,-8.93958568572998,-3.862015724182129
1761315402034272000,3.39627197265625,2.4119651317596436,-8.930013656616211,-3.82373046875
1761315402053193700,3.41519384765625,2.390429735183716,-8.918049812316895,-3.864408493041992
1761315402072115700,3.43411572265625,2.366501569747925,-8.884550094604492,-3.9074792861938477
1761315402091037400,3.453037353515625,2.335394859313965,-8.886942863464355,-3.864408493041992
1761315402109959200,3.471959228515625,2.3234307765960693,-8.882157325744629,-3.830909013748169
1761315402128881200,3.490881103515625,2.311466693878174,-8.915657043457031,-3.840480327606201
1761315402147803000,3.509802978515625,2.335394859313965,-8.886942863464355,-3.8356947898864746
1761315402166724900,3.528724853515625,2.3497519493103027,-8.908478736877441,-3.8333017826080322
1761315402185646600,3.547646484375,2.342573404312134,-8.925228118896484,-3.8213376998901367
1761315402204568300,3.566568359375,2.342573404312134,-8.882157325744629,-3.862015724182129
1761315402223490300,3.585490234375,2.344966173171997,-8.851051330566406,-3.895515203475952
1761315402242412000,3.604412109375,2.3497519493103027,-8.83669376373291,-3.957728624343872
1761315402261333800,3.623333740234375,2.3808584213256836,-8.8438720703125,-3.9625144004821777
1761315402280255700,3.642255859375,2.3976082801818848,-8.848658561706543,-3.933800458908081
1761315402299177500,3.661177490234375,2.392822742462158,-8.834300994873047,-3.9361932277679443
1761315402318099500,3.680099365234375,2.3808584213256836,-8.793622970581055,-3.9744784832000732
1761315402337021200,3.699021240234375,2.321038007736206,-8.798408508300781,-4.01037073135376
1761315402355943000,3.71794287109375,2.287538528442383,-8.8438720703125,-4.027120590209961
1761315402374865000,3.736864990234375,2.3162522315979004,-8.872586250305176,-3.933800458908081
1761315402393786600,3.75578662109375,2.3186452388763428,-8.937192916870117,-3.862015724182129
1761315402412708600,3.77470849609375,2.3330020904541016,-8.992227554321289,-3.7782669067382812
1761315402431630300,3.79363037109375,2.3306093215942383,-8.963513374328613,-3.761517286300659
1761315402450552000,3.812552001953125,2.366501569747925,-8.882157325744629,-3.814159393310547
1761315402469474000,3.83147412109375,2.337787628173828,-8.927620887756348,-3.9361932277679443
1761315402488395800,3.850395751953125,2.289931297302246,-8.93240737915039,-3.902693748474121
1761315402507317500,3.8693173828125,2.3162522315979004,-8.95394229888916,-3.814159393310547
1761315402526239500,3.888239501953125,2.344966173171997,-8.980263710021973,-3.792623996734619
1761315402545161200,3.9071611328125,2.321038007736206,-8.963513374328613,-3.82373046875
1761315402564083200,3.926083251953125,2.297109842300415,-8.901300430297852,-3.90987229347229
1761315402583005000,3.9450048828125,2.3090739250183105,-8.889336585998535,-3.9433717727661133
1761315402601927000,3.963927001953125,2.328216314315796,-8.848658561706543,-3.9672999382019043
1761315402620848600,3.9828486328125,2.321038007736206,-8.85344409942627,-3.9672999382019043
1761315402639770400,4.001770263671875,2.3162522315979004,-8.874979019165039,-3.9218363761901855
1761315402658692400,4.0206923828125,2.3330020904541016,-8.858229637145996,-3.9361932277679443
1761315402677614000,4.039614013671875,2.311466693878174,-8.870193481445312,-3.94097900390625
1761315402696535800,4.058535888671875,2.2947168350219727,-8.86780071258545,-3.9433717727661133
1761315402715457800,4.077457763671875,2.297109842300415,-8.865407943725586,-3.8883368968963623
1761315402734379500,4.096379638671875,2.2707886695861816,-8.915657043457031,-3.88594388961792
1761315402753301500,4.115301513671875,2.282752752304077,-8.93240737915039,-3.838087558746338
1761315402772223200,4.13422314453125,2.2636101245880127,-8.922835350036621,-3.8333017826080322
1761315402791145000,4.15314501953125,2.249253273010254,-8.910871505737305,-3.8285162448883057
1761315402810067000,4.17206689453125,2.218146562576294,-8.901300430297852,-3.862015724182129
1761315402828988700,4.19098876953125,2.201396942138672,-8.915657043457031,-3.869194269180298
1761315402847910700,4.20991064453125,2.242074728012085,-8.874979019165039,-3.871587038040161
1761315402866832400,4.228832275390625,2.266003131866455,-8.874979019165039,-3.8596229553222656
1761315402885754000,4.247754150390625,2.2995026111602783,-8.906085968017578,-3.8668015003204346
1761315402904676000,4.266676025390625,2.3234307765960693,-8.922835350036621,-3.8835511207580566
1761315402923597800,4.285597900390625,2.328216314315796,-8.956335067749023,-3.8811583518981934
1761315402942519600,4.30451953125,2.328216314315796,-8.956335067749023,-3.82373046875
1761315402961441500,4.323441650390625,2.3473589420318604,-8.980263710021973,-3.78544545173645
1761315402980363300,4.34236328125,2.3712873458862305,-8.989834785461426,-3.7734813690185547
1761315402999285200,4.36128515625,2.328216314315796,-8.973084449768066,-3.7950167655944824
1761315403018207000,4.38020703125,2.335394859313965,-8.925228118896484,-3.7734813690185547
1761315403037128700,4.399128662109375,2.313859462738037,-8.915657043457031,-3.7806596755981445
1761315403056050700,4.41805078125,2.3162522315979004,-8.901300430297852,-3.85483717918396
1761315403074972400,4.436972412109375,2.3018953800201416,-8.877371788024902,-3.8811583518981934
1761315403093894400,4.455894287109375,2.321038007736206,-8.865407943725586,-3.9146578311920166
1761315403112816000,4.474816162109375,2.3545374870300293,-8.874979019165039,-3.926621913909912
1761315403131737900,4.49373779296875,2.368894338607788,-8.877371788024902,-3.9457645416259766
1761315403150659800,4.512659912109375,2.3641088008880615,-8.884550094604492,-3.9672999382019043
1761315403169581600,4.53158154296875,2.368894338607788,-8.886942863464355,-3.91705060005188
1761315403188503300,4.55050341796875,2.352144718170166,-8.93958568572998,-3.8979079723358154
1761315403207425300,4.56942529296875,2.342573404312134,-8.910871505737305,-3.933800458908081
1761315403226347000,4.588346923828125,2.328216314315796,-8.884550094604492,-3.9218363761901855
1761315403245269000,4.60726904296875,2.280359983444214,-8.927620887756348,-3.8979079723358154
1761315403264190700,4.626190673828125,2.2755744457244873,-8.96112060546875,-3.862015724182129
1761315403283112400,4.645112548828125,2.266003131866455,-8.925228118896484,-3.8285162448883057
1761315403302034400,4.664034423828125,2.273181438446045,-8.910871505737305,-3.88594388961792
1761315403320956200,4.6829560546875,2.251646041870117,-8.889336585998535,-3.9050865173339844
1761315403339878100,4.701878173828125,2.234896421432495,-8.848658561706543,-3.9529430866241455
1761315403358800000,4.7207998046875,2.2396819591522217,-8.8438720703125,-3.950550079345703
1761315403377721600,4.7397216796875,2.258824586868286,-8.855836868286133,-3.9672999382019043
1761315403396643600,4.7586435546875,2.2851455211639404,-8.865407943725586,-3.964907169342041
1761315403415565300,4.7775654296875,2.3018953800201416,-8.865407943725586,-3.957728624343872
1761315403434487000,4.796487060546875,2.289931297302246,-8.82951545715332,-3.972085475921631
1761315403453409000,4.815408935546875,2.287538528442383,-8.831908226013184,-3.996013879776001
1761315403472330800,4.834330810546875,2.2995026111602783,-8.855836868286133,-3.996013879776001
1761315403491252700,4.853252685546875,2.297109842300415,-8.86780071258545,-3.9146578311920166
1761315403510174500,4.872174560546875,2.3401806354522705,-8.908478736877441,-3.862015724182129
1761315403529096400,4.891096435546875,2.3473589420318604,-8.918049812316895,-3.85483717918396
1761315403548018200,4.91001806640625,2.337787628173828,-8.93958568572998,-3.8572301864624023
1761315403566940000,4.92893994140625,2.3186452388763428,-8.934800148010254,-3.840480327606201
1761315403585862000,4.94786181640625,2.328216314315796,-8.93240737915039,-3.845266103744507
1761315403604783600,4.96678369140625,2.321038007736206,-8.910871505737305,-3.838087558746338
1761315403623705300,4.985705322265625,2.3258235454559326,-8.898907661437988,-3.8213376998901367
1761315403642627300,5.00462744140625,2.3330020904541016,-8.901300430297852,-3.84765887260437
1761315403661549000,5.023549072265625,2.344966173171997,-8.889336585998535,-3.84765887260437
1761315403680470800,5.042470703125,2.3258235454559326,-8.877371788024902,-3.8572301864624023
1761315403699392800,5.061392822265625,2.342573404312134,-8.901300430297852,-3.8428730964660645
1761315403718314500,5.080314453125,2.344966173171997,-8.913264274597168,-3.84765887260437
1761315403737236500,5.099236572265625,2.337787628173828,-8.901300430297852,-3.8596229553222656
1761315403756158200,5.118158203125,2.321038007736206,-8.910871505737305,-3.88594388961792
1761315403775080200,5.137080078125,2.304288148880005,-8.882157325744629,-3.8763725757598877
1761315403794002000,5.156001953125,2.311466693878174,-8.889336585998535,-3.8500516414642334
1761315403812923600,5.174923583984375,2.3258235454559326,-8.915657043457031,-3.8285162448883057
1761315403831845600,5.193845703125,2.342573404312134,-8.930013656616211,-3.8213376998901367
1761315403850767400,5.212767333984375,2.3306093215942383,-8.915657043457031,-3.838087558746338
1761315403869689000,5.231689208984375,2.3258235454559326,-8.927620887756348,-3.85483717918396
1761315403888611000,5.250611083984375,2.3186452388763428,-8.956335067749023,-3.8333017826080322
1761315403907532800,5.26953271484375,2.3018953800201416,-8.97787094116211,-3.8117663860321045
1761315403926454500,5.28845458984375,2.3186452388763428,-9.001798629760742,-3.8117663860321045
1761315403945376500,5.30737646484375,2.304288148880005,-8.982656478881836,-3.792623996734619
1761315403964298200,5.32629833984375,2.311466693878174,-9.001798629760742,-3.751945972442627
1761315403983220200,5.34522021484375,2.304288148880005,-8.930013656616211,-3.78544545173645
1761315404002142000,5.364141845703125,2.3018953800201416,-8.884550094604492,-3.85483717918396
1761315404021063700,5.383063720703125,2.2851455211639404,-8.834300994873047,-3.900300979614258
1761315404039985700,5.401985595703125,2.280359983444214,-8.865407943725586,-3.895515203475952
1761315404058907400,5.420907470703125,2.289931297302246,-8.903693199157715,-3.862015724182129
1761315404077829400,5.439829345703125,2.3162522315979004,-8.94676399230957,-3.845266103744507
1761315404096751000,5.458751220703125,2.3162522315979004,-8.937192916870117,-3.84765887260437
1761315404115672800,5.4776728515625,2.2779672145843506,-8.918049812316895,-3.902693748474121
1761315404134594800,5.4965947265625,2.2683959007263184,-8.944371223449707,-3.88594388961792
1761315404153516500,5.5155166015625,2.2851455211639404,-8.93240737915039,-3.8428730964660645
1761315404172438500,5.5344384765625,2.2707886695861816,-8.956335067749023,-3.830909013748169
1761315404191360300,5.5533603515625,2.256431818008423,-8.95394229888916,-3.81655216217041
1761315404210282000,5.572281982421875,2.227717876434326,-8.958727836608887,-3.8117663860321045
1761315404229204000,5.591203857421875,2.2157537937164307,-8.951549530029297,-3.809373617172241
1761315404248125700,5.610125732421875,2.2133610248565674,-8.934800148010254,-3.8261234760284424
1761315404267047400,5.62904736328125,2.1918256282806396,-8.93958568572998,-3.84765887260437
1761315404285969400,5.647969482421875,2.187039852142334,-8.93958568572998,-3.8285162448883057
1761315404304891100,5.66689111328125,2.1822543144226074,-8.970691680908203,-3.7950167655944824
1761315404323812900,5.685812744140625,2.1990039348602295,-8.965906143188477,-3.7734813690185547
1761315404342734800,5.70473486328125,2.201396942138672,-9.011369705200195,-3.8117663860321045
1761315404361656600,5.723656494140625,2.194218397140503,-8.970691680908203,-3.81655216217041
1761315404380578600,5.74257861328125,2.1846470832824707,-8.997013092041016,-3.845266103744507
1761315404399500300,5.761500244140625,2.1822543144226074,-8.970691680908203,-3.799802303314209
1761315404418422000,5.780422119140625,2.1990039348602295,-8.987442016601562,-3.7663028240203857
1761315404437344000,5.799343994140625,2.194218397140503,-9.016156196594238,-3.7878382205963135
1761315404456265700,5.818265625,2.1750757694244385,-9.011369705200195,-3.775874137878418
1761315404475187700,5.837187744140625,2.1774685382843018,-9.023334503173828,-3.7184464931488037
1761315404494109400,5.856109375,2.1655044555664062,-9.032905578613281,-3.7016966342926025
1761315404513031200,5.87503125,2.1750757694244385,-9.008976936340332,-3.720839262008667
1761315404531953200,5.893953125,2.203789710998535,-9.011369705200195,-3.7734813690185547
1761315404550875000,5.912875,2.1918256282806396,-8.987442016601562,-3.7423746585845947
1761315404569796900,5.931796875,2.187039852142334,-8.989834785461426,-3.7328033447265625
1761315404588718600,5.950718505859375,2.1846470832824707,-9.018548965454102,-3.706482172012329
1761315404607640300,5.969640380859375,2.172683000564575,-8.999405860900879,-3.735196113586426
1761315404626562300,5.988562255859375,2.1583259105682373,-8.997013092041016,-3.7806596755981445
1761315404645484000,6.007484130859375,2.1678972244262695,-8.982656478881836,-3.783052682876587
1761315404664405800,6.02640576171875,2.234896421432495,-8.994620323181152,-3.7160534858703613
1761315404683327700,6.04532763671875,2.256431818008423,-9.001798629760742,-3.7256247997283936
1761315404702249500,6.06424951171875,2.2157537937164307,-8.93958568572998,-3.7734813690185547
1761315404721171200,6.083171142578125,2.227717876434326,-8.927620887756348,-3.8356947898864746
1761315404740093200,6.10209326171875,2.2301106452941895,-8.930013656616211,-3.8428730964660645
1761315404759015000,6.121014892578125,2.2755744457244873,-8.963513374328613,-3.783052682876587
1761315404777937000,6.13993701171875,2.2707886695861816,-8.97787094116211,-3.7567315101623535
1761315404796858600,6.158858642578125,2.249253273010254,-8.992227554321289,-3.768695592880249
1761315404815780400,6.1777802734375,2.2325034141540527,-8.96829891204834,-3.7974095344543457
1761315404834702300,6.196702392578125,2.2229323387145996,-8.941978454589844,-3.7782669067382812
1761315404853624000,6.2156240234375,2.2085752487182617,-8.951549530029297,-3.7782669067382812
1761315404872546000,6.234546142578125,2.2301106452941895,-8.982656478881836,-3.759124279022217
1761315404891467800,6.2534677734375,2.2157537937164307,-8.994620323181152,-3.744767427444458
1761315404910389500,6.272389404296875,2.1894326210021973,-9.018548965454102,-3.761517286300659
1761315404929311500,6.2913115234375,2.170290231704712,-9.011369705200195,-3.7328033447265625
1761315404948233200,6.310233154296875,2.170290231704712,-9.016156196594238,-3.730410575866699
1761315404967155200,6.3291552734375,2.1774685382843018,-9.028120040893555,-3.706482172012329
1761315404986077000,6.348076904296875,2.1846470832824707,-9.030512809753418,-3.7232320308685303
1761315405004998700,6.36699853515625,2.179861545562744,-9.016156196594238,-3.7328033447265625
1761315405023920600,6.385920654296875,2.1774685382843018,-8.987442016601562,-3.7423746585845947
1761315405042842400,6.40484228515625,2.1822543144226074,-8.95394229888916,-3.7782669067382812
1761315405061764000,6.42376416015625,2.203789710998535,-8.93958568572998,-3.7734813690185547
1761315405080686000,6.44268603515625,2.210968017578125,-8.956335067749023,-3.7710886001586914
1761315405099607800,6.46160791015625,2.225325107574463,-8.970691680908203,-3.814159393310547
1761315405118529500,6.480529541015625,2.218146562576294,-8.980263710021973,-3.8189449310302734
1761315405137451500,6.499451416015625,2.2325034141540527,-8.980263710021973,-3.7950167655944824
1761315405156373200,6.518373291015625,2.2372891902923584,-8.97787094116211,-3.768695592880249
1761315405175295200,6.537295166015625,2.2540390491485596,-8.982656478881836,-3.751945972442627
1761315405194217000,6.556217041015625,2.2540390491485596,-8.970691680908203,-3.7639100551605225
1761315405213138700,6.575138671875,2.2468605041503906,-8.96829891204834,-3.761517286300659
1761315405232060700,6.594060791015625,2.242074728012085,-8.975478172302246,-3.7567315101623535
1761315405250982400,6.612982421875,2.2229323387145996,-8.989834785461426,-3.7471601963043213
1761315405269904400,6.631904296875,2.2229323387145996,-8.973084449768066,-3.7328033447265625
1761315405288826000,6.650826171875,2.2325034141540527,-8.958727836608887,-3.7639100551605225
1761315405307747800,6.669747802734375,2.210968017578125,-8.95394229888916,-3.775874137878418
1761315405326669800,6.688669921875,2.1918256282806396,-8.970691680908203,-3.7950167655944824
1761315405345591600,6.707591552734375,2.1822543144226074,-8.975478172302246,-3.761517286300659
1761315405364513300,6.72651318359375,2.2205393314361572,-8.997013092041016,-3.735196113586426
1761315405383435300,6.745435302734375,2.2061824798583984,-9.004191398620605,-3.728017568588257
1761315405402357000,6.76435693359375,2.218146562576294,-8.989834785461426,-3.7328033447265625
1761315405421279000,6.783279052734375,2.194218397140503,-9.004191398620605,-3.7495529651641846
1761315405440200700,6.80220068359375,2.187039852142334,-8.994620323181152,-3.730410575866699
1761315405459122400,6.821122314453125,2.172683000564575,-8.987442016601562,-3.7471601963043213
1761315405478044400,6.84004443359375,2.170290231704712,-9.016156196594238,-3.7567315101623535
1761315405496966100,6.858966064453125,2.1678972244262695,-9.016156196594238,-3.7567315101623535
1761315405515887900,6.877887939453125,2.1583259105682373,-9.013762474060059,-3.704089403152466
1761315405534809900,6.896809814453125,2.1774685382843018,-9.004191398620605,-3.7112679481506348
1761315405553731600,6.915731689453125,2.2061824798583984,-8.970691680908203,-3.7663028240203857
1761315405572653600,6.934653564453125,2.1822543144226074,-8.975478172302246,-3.8045880794525146
1761315405591575300,6.9535751953125,2.203789710998535,-8.975478172302246,-3.783052682876587
1761315405610497300,6.972497314453125,2.2157537937164307,-9.013762474060059,-3.7495529651641846
1761315405629419000,6.9914189453125,2.2061824798583984,-9.044869422912598,-3.737588882446289
1761315405648340700,7.0103408203125,2.2085752487182617,-9.044869422912598,-3.7543387413024902
1761315405667262700,7.0292626953125,2.1846470832824707,-9.030512809753418,-3.761517286300659
1761315405686184400,7.048184326171875,2.1655044555664062,-8.999405860900879,-3.728017568588257
1761315405705106200,7.067106201171875,2.1822543144226074,-8.997013092041016,-3.704089403152466
1761315405724028200,7.086028076171875,2.179861545562744,-8.9850492477417,-3.7423746585845947
1761315405742950000,7.104949951171875,2.1607189178466797,-8.9850492477417,-3.7543387413024902
1761315405761871600,7.12387158203125,2.1846470832824707,-8.97787094116211,-3.7782669067382812
1761315405780793600,7.142793701171875,2.179861545562744,-8.970691680908203,-3.799802303314209
1761315405799715300,7.16171533203125,2.1918256282806396,-8.963513374328613,-3.8021950721740723
1761315405818637300,7.18063720703125,2.203789710998535,-8.987442016601562,-3.8021950721740723
1761315405837559000,7.19955908203125,2.2061824798583984,-8.96112060546875,-3.8261234760284424
1761315405856480800,7.218480712890625,2.203789710998535,-8.941978454589844,-3.7878382205963135
1761315405875402800,7.23740283203125,2.2061824798583984,-8.970691680908203,-3.809373617172241
1761315405894324500,7.256324462890625,2.2157537937164307,-8.975478172302246,-3.8189449310302734
1761315405913246500,7.27524658203125,2.2061824798583984,-8.999405860900879,-3.78544545173645
1761315405932168200,7.294168212890625,2.1990039348602295,-9.023334503173828,-3.7495529651641846
1761315405951090000,7.31308984375,2.1750757694244385,-9.023334503173828,-3.7016966342926025
1761315405970012000,7.332011962890625,2.1678972244262695,-9.006584167480469,-3.7399818897247314
1761315405988933600,7.35093359375,2.139183521270752,-9.035298347473145,-3.737588882446289
1761315406007855600,7.369855712890625,2.1511476039886475,-9.001798629760742,-3.730410575866699
1761315406026777300,7.38877734375,2.1511476039886475,-9.023334503173828,-3.6873397827148438
1761315406045699000,7.407698974609375,2.1774685382843018,-8.989834785461426,-3.706482172012329
1761315406064621000,7.42662109375,2.1511476039886475,-8.973084449768066,-3.7543387413024902
1761315406083542800,7.445542724609375,2.1583259105682373,-8.973084449768066,-3.7806596755981445
1761315406102464500,7.464464599609375,2.2133610248565674,-8.963513374328613,-3.7782669067382812
1761315406121386500,7.483386474609375,2.2133610248565674,-8.975478172302246,-3.792623996734619
1761315406140308200,7.50230810546875,2.2133610248565674,-8.992227554321289,-3.8285162448883057
1761315406159230000,7.52122998046875,2.201396942138672,-8.95394229888916,-3.8668015003204346
1761315406178152000,7.54015185546875,2.203789710998535,-8.951549530029297,-3.845266103744507
1761315406197073700,7.55907373046875,2.210968017578125,-8.992227554321289,-3.799802303314209
1761315406215995600,7.57799560546875,2.196611166000366,-8.987442016601562,-3.7256247997283936
1761315406234917400,7.59691748046875,2.2157537937164307,-9.004191398620605,-3.728017568588257
1761315406253839400,7.61583935546875,2.1750757694244385,-8.973084449768066,-3.7256247997283936
1761315406272761000,7.634760986328125,2.2061824798583984,-8.973084449768066,-3.7639100551605225
1761315406291682800,7.653682861328125,2.1774685382843018,-8.989834785461426,-3.768695592880249
1761315406310604800,7.672604736328125,2.234896421432495,-8.96112060546875,-3.730410575866699
1761315406329526500,7.691526611328125,2.1750757694244385,-8.96112060546875,-3.6993038654327393
1761315406348448300,7.7104482421875,2.1583259105682373,-9.049654960632324,-3.704089403152466
1761315406367370200,7.729370361328125,2.1535403728485107,-9.09272575378418,-3.665804386138916
1761315406386292000,7.7482919921875,2.172683000564575,-9.090332984924316,-3.6059837341308594
1761315406405213700,7.767213623046875,2.1583259105682373,-9.06401252746582,-3.656233072280884
1761315406424135700,7.7861357421875,2.1535403728485107,-9.059226989746094,-3.7184464931488037
1761315406443057400,7.805057373046875,2.1439690589904785,-9.004191398620605,-3.735196113586426
1761315406461979400,7.8239794921875,2.115255117416382,-9.018548965454102,-3.7423746585845947
1761315406480901000,7.842901123046875,2.100898265838623,-9.004191398620605,-3.7399818897247314
1761315406499823000,7.861822998046875,2.1655044555664062,-9.008976936340332,-3.761517286300659
1761315406518744800,7.880744873046875,2.1750757694244385,-8.997013092041016,-3.7160534858703613
1761315406537666600,7.89966650390625,2.2157537937164307,-8.997013092041016,-3.7160534858703613
1761315406556588500,7.918588623046875,2.2301106452941895,-8.956335067749023,-3.7256247997283936
1761315406575510300,7.93751025390625,2.2301106452941895,-8.925228118896484,-3.7878382205963135
1761315406594432000,7.956431884765625,2.256431818008423,-8.922835350036621,-3.814159393310547
1761315406613354000,7.97535400390625,2.280359983444214,-8.96112060546875,-3.744767427444458
1761315406632275700,7.994275634765625,2.3018953800201416,-9.006584167480469,-3.706482172012329
1761315406651197700,8.01319775390625,2.280359983444214,-9.059226989746094,-3.713660717010498
1761315406670119400,8.032119384765625,2.256431818008423,-9.06401252746582,-3.696911096572876
1761315406689041200,8.051041259765626,2.2061824798583984,-9.023334503173828,-3.7016966342926025
1761315406707963100,8.069963134765626,2.196611166000366,-8.987442016601562,-3.730410575866699
1761315406726884900,8.088884765625,2.1894326210021973,-8.963513374328613,-3.7232320308685303
1761315406745806800,8.107806884765624,2.170290231704712,-8.987442016601562,-3.6993038654327393
1761315406764728600,8.126728515625,2.179861545562744,-8.989834785461426,-3.7184464931488037
1761315406783650300,8.145650390625,2.1511476039886475,-8.989834785461426,-3.7423746585845947
1761315406802572300,8.164572265625,2.132004976272583,-8.994620323181152,-3.7423746585845947
1761315406821494000,8.183493896484375,2.163111686706543,-8.994620323181152,-3.720839262008667
1761315406840415700,8.202415771484375,2.1822543144226074,-9.028120040893555,-3.6993038654327393
1761315406859337700,8.221337646484375,2.2061824798583984,-9.044869422912598,-3.7184464931488037
1761315406878259500,8.240259521484376,2.172683000564575,-9.018548965454102,-3.735196113586426
1761315406897181400,8.259181396484376,2.124826431274414,-8.992227554321289,-3.775874137878418
1761315406916103200,8.278103271484374,2.1296122074127197,-9.008976936340332,-3.783052682876587
1761315406935025000,8.29702490234375,2.1511476039886475,-9.001798629760742,-3.7495529651641846
1761315406953947000,8.31594677734375,2.1511476039886475,-9.011369705200195,-3.7328033447265625
1761315406972868600,8.33486865234375,2.1343977451324463,-9.018548965454102,-3.7734813690185547
1761315406991790600,8.35379052734375,2.091326951980591,-9.023334503173828,-3.7663028240203857
1761315407010712300,8.37271240234375,2.093719720840454,-9.001798629760742,-3.744767427444458
1761315407029634000,8.391634033203125,2.115255117416382,-9.023334503173828,-3.759124279022217
1761315407048556000,8.41055615234375,2.115255117416382,-9.035298347473145,-3.7471601963043213
1761315407067477800,8.429477783203126,2.1200408935546875,-9.023334503173828,-3.7112679481506348
1761315407086399500,8.4483994140625,2.117648124694824,-9.013762474060059,-3.730410575866699
1761315407105321500,8.467321533203124,2.1200408935546875,-8.96112060546875,-3.7806596755981445
1761315407124243200,8.4862431640625,2.146361827850342,-8.949156761169434,-3.84765887260437
1761315407143165200,8.505165283203125,2.163111686706543,-8.951549530029297,-3.81655216217041
1761315407162087000,8.5240869140625,2.1990039348602295,-8.987442016601562,-3.7878382205963135
1761315407181009000,8.5430087890625,2.1822543144226074,-9.004191398620605,-3.7806596755981445
1761315407199930600,8.5619306640625,2.1990039348602295,-8.963513374328613,-3.792623996734619
1761315407218852400,8.580852294921876,2.170290231704712,-8.963513374328613,-3.792623996734619
1761315407237774300,8.5997744140625,2.1774685382843018,-8.970691680908203,-3.783052682876587
1761315407256696000,8.618696044921874,2.201396942138672,-8.97787094116211,-3.744767427444458
1761315407275617800,8.63761767578125,2.201396942138672,-9.004191398620605,-3.7184464931488037
1761315407294539800,8.656539794921875,2.1822543144226074,-9.001798629760742,-3.7423746585845947
1761315407313461500,8.67546142578125,2.1822543144226074,-8.987442016601562,-3.7399818897247314
1761315407332383200,8.69438330078125,2.194218397140503,-8.999405860900879,-3.7495529651641846
1761315407351305200,8.71330517578125,2.218146562576294,-9.013762474060059,-3.7232320308685303
1761315407370227000,8.73222705078125,2.2325034141540527,-8.9850492477417,-3.744767427444458
1761315407389149000,8.75114892578125,2.227717876434326,-8.989834785461426,-3.751945972442627
1761315407408070700,8.770070556640626,2.2396819591522217,-8.965906143188477,-3.7423746585845947
1761315407426992600,8.78899267578125,2.234896421432495,-8.970691680908203,-3.751945972442627
1761315407445914400,8.807914306640624,2.227717876434326,-8.97787094116211,-3.737588882446289
1761315407464836000,8.826836181640624,2.2325034141540527,-8.994620323181152,-3.7328033447265625
1761315407483758000,8.845758056640625,2.225325107574463,-9.011369705200195,-3.7328033447265625
1761315407502679800,8.8646796875,2.2229323387145996,-9.008976936340332,-3.713660717010498
1761315407521601500,8.8836015625,2.2205393314361572,-9.013762474060059,-3.680161237716675
1761315407540523500,8.9025234375,2.225325107574463,-8.982656478881836,-3.7184464931488037
1761315407559445200,8.9214453125,2.2133610248565674,-8.975478172302246,-3.7543387413024902
1761315407578367200,8.9403671875,2.2229323387145996,-9.030512809753418,-3.7734813690185547
1761315407597289000,8.9592890625,2.1990039348602295,-9.018548965454102,-3.7160534858703613
1761315407616210700,8.978210693359374,2.1918256282806396,-9.004191398620605,-3.706482172012329
1761315407635132700,8.997132568359374,2.218146562576294,-8.9850492477417,-3.706482172012329
1761315407654054400,9.016054443359375,2.1918256282806396,-8.944371223449707,-3.7974095344543457
1761315407672976400,9.034976318359375,2.194218397140503,-8.93240737915039,-3.8213376998901367
1761315407691898000,9.053898193359375,2.2229323387145996,-8.973084449768066,-3.783052682876587
1761315407710819800,9.07281982421875,2.2372891902923584,-8.9850492477417,-3.7567315101623535
1761315407729741800,9.091741943359375,2.218146562576294,-8.975478172302246,-3.830909013748169
1761315407748663600,9.11066357421875,2.218146562576294,-8.999405860900879,-3.81655216217041
1761315407767585500,9.12958544921875,2.1846470832824707,-8.989834785461426,-3.8021950721740723
1761315407786507300,9.14850732421875,2.2229323387145996,-8.994620323181152,-3.7878382205963135
1761315407805429000,9.167428955078124,2.2205393314361572,-8.97787094116211,-3.751945972442627
1761315407824351000,9.18635107421875,2.1990039348602295,-8.989834785461426,-3.768695592880249
1761315407843272700,9.205272705078125,2.1774685382843018,-8.973084449768066,-3.768695592880249
1761315407862194400,9.2241943359375,2.163111686706543,-8.989834785461426,-3.7639100551605225
1761315407881116400,9.243116455078125,2.172683000564575,-8.970691680908203,-3.7710886001586914
1761315407900038100,9.2620380859375,2.1822543144226074,-8.992227554321289,-3.728017568588257
1761315407918960000,9.280960205078125,2.196611166000366,-8.997013092041016,-3.7710886001586914
1761315407937881900,9.2998818359375,2.187039852142334,-8.980263710021973,-3.7782669067382812
1761315407956803800,9.318803955078126,2.1678972244262695,-8.982656478881836,-3.78544545173645
1761315407975725600,9.3377255859375,2.1822543144226074,-8.987442016601562,-3.7902309894561768
1761315407994647300,9.356647216796874,2.2061824798583984,-8.975478172302246,-3.775874137878418
1761315408013569300,9.3755693359375,2.2061824798583984,-8.994620323181152,-3.775874137878418
1761315408032491000,9.394490966796875,2.1750757694244385,-8.973084449768066,-3.7902309894561768
1761315408051412700,9.413412841796875,2.1750757694244385,-8.96829891204834,-3.7806596755981445
1761315408070334700,9.432334716796875,2.1750757694244385,-8.973084449768066,-3.775874137878418
1761315408089256400,9.45125634765625,2.196611166000366,-8.9850492477417,-3.78544545173645
1761315408108178200,9.47017822265625,2.1822543144226074,-8.997013092041016,-3.783052682876587
1761315408127100200,9.48910009765625,2.194218397140503,-8.9850492477417,-3.7734813690185547
1761315408146022000,9.50802197265625,2.1990039348602295,-8.992227554321289,-3.761517286300659
1761315408164944000,9.52694384765625,2.2157537937164307,-8.930013656616211,-3.792623996734619
1761315408183865600,9.545865478515625,2.2157537937164307,-8.956335067749023,-3.8117663860321045
1761315408202787600,9.56478759765625,2.2133610248565674,-8.965906143188477,-3.8213376998901367
1761315408221709300,9.583709228515625,2.2372891902923584,-8.963513374328613,-3.8021950721740723
1761315408240631000,9.602631103515625,2.2444677352905273,-8.992227554321289,-3.7806596755981445
1761315408259553000,9.621552978515625,2.234896421432495,-8.973084449768066,-3.761517286300659
1761315408278474800,9.640474853515625,2.2325034141540527,-8.951549530029297,-3.7974095344543457
1761315408297396700,9.659396728515626,2.218146562576294,-8.93958568572998,-3.82373046875
1761315408316318500,9.678318359375,2.2540390491485596,-8.944371223449707,-3.7974095344543457
1761315408335240200,9.697240234375,2.249253273010254,-8.982656478881836,-3.759124279022217
1761315408354162200,9.716162109375,2.251646041870117,-8.96829891204834,-3.7710886001586914
1761315408373084000,9.735083984375,2.242074728012085,-8.963513374328613,-3.806980848312378
1761315408392005600,9.754005615234375,2.249253273010254,-8.925228118896484,-3.814159393310547
1761315408410927600,9.772927734375,2.2468605041503906,-8.944371223449707,-3.81655216217041
1761315408429849300,9.791849365234375,2.266003131866455,-8.949156761169434,-3.8428730964660645
1761315408448771300,9.810771240234375,2.242074728012085,-8.94676399230957,-3.8213376998901367
1761315408467693000,9.829693115234376,2.2468605041503906,-8.96112060546875,-3.8117663860321045
1761315408486615000,9.848614990234376,2.2444677352905273,-8.989834785461426,-3.7782669067382812
1761315408505536800,9.867536865234374,2.2707886695861816,-8.96829891204834,-3.7974095344543457
1761315408524458500,9.88645849609375,2.2444677352905273,-8.94676399230957,-3.8189449310302734
1761315408543380500,9.90538037109375,2.227717876434326,-8.944371223449707,-3.82373046875
1761315408562302200,9.92430224609375,2.210968017578125,-8.965906143188477,-3.7710886001586914
1761315408581224000,9.943223876953125,2.2444677352905273,-8.992227554321289,-3.7423746585845947
1761315408600146000,9.96214599609375,2.242074728012085,-8.994620323181152,-3.7878382205963135
1761315408619067600,9.981067626953125,2.2301106452941895,-8.980263710021973,-3.799802303314209
1761315408637989600,9.99998974609375,2.225325107574463,-8.973084449768066,-3.7902309894561768
1761315408656911400,10.018911376953126,2.2229323387145996,-8.970691680908203,-3.759124279022217
1761315408675833000,10.0378330078125,2.225325107574463,-8.949156761169434,-3.7806596755981445
1761315408694755000,10.056755126953124,2.2325034141540527,-8.937192916870117,-3.840480327606201
1761315408713676800,10.0756767578125,2.2468605041503906,-8.915657043457031,-3.8668015003204346
1761315408732598800,10.094598876953125,2.282752752304077,-8.944371223449707,-3.82373046875
1761315408751520500,10.1135205078125,2.2683959007263184,-8.937192916870117,-3.814159393310547
1761315408770442200,10.132442138671875,2.2683959007263184,-8.93958568572998,-3.8333017826080322
1761315408789364200,10.1513642578125,2.282752752304077,-8.913264274597168,-3.838087558746338
1761315408808286000,10.170285888671875,2.2947168350219727,-8.913264274597168,-3.862015724182129
1761315408827208000,10.1892080078125,2.297109842300415,-8.918049812316895,-3.8428730964660645
1761315408846129700,10.208129638671876,2.3186452388763428,-8.922835350036621,-3.84765887260437
1761315408865051400,10.227051513671874,2.313859462738037,-8.920442581176758,-3.8739798069000244
1761315408883973400,10.245973388671874,2.282752752304077,-8.884550094604492,-3.87876558303833
1761315408902895000,10.26489501953125,2.2947168350219727,-8.908478736877441,-3.871587038040161
1761315408921816800,10.28381689453125,2.2851455211639404,-8.896514892578125,-3.8668015003204346
1761315408940738800,10.30273876953125,2.3090739250183105,-8.903693199157715,-3.8596229553222656
1761315408959660500,10.32166064453125,2.306680917739868,-8.910871505737305,-3.864408493041992
1761315408978582500,10.34058251953125,2.306680917739868,-8.915657043457031,-3.8883368968963623
1761315408997504300,10.359504150390626,2.2947168350219727,-8.896514892578125,-3.87876558303833
1761315409016426200,10.37842626953125,2.304288148880005,-8.913264274597168,-3.8668015003204346
1761315409035348000,10.397347900390624,2.3234307765960693,-8.925228118896484,-3.871587038040161
1761315409054269700,10.416269775390624,2.313859462738037,-8.918049812316895,-3.8763725757598877
1761315409073191700,10.435191650390625,2.3090739250183105,-8.934800148010254,-3.8285162448883057
1761315409092113400,10.454113525390625,2.304288148880005,-8.922835350036621,-3.8213376998901367
1761315409111035100,10.47303515625,2.297109842300415,-8.927620887756348,-3.8500516414642334
1761315409129957000,10.49195703125,2.304288148880005,-8.93240737915039,-3.8572301864624023
1761315409148878800,10.51087890625,2.266003131866455,-8.951549530029297,-3.8356947898864746
1761315409167800600,10.529800537109375,2.282752752304077,-8.956335067749023,-3.8333017826080322
1761315409186722600,10.54872265625,2.304288148880005,-8.901300430297852,-3.840480327606201
1761315409205644300,10.567644287109376,2.297109842300415,-8.879764556884766,-3.893122434616089
1761315409224566300,10.586566162109374,2.2851455211639404,-8.877371788024902,-3.9194436073303223
1761315409243488000,10.605488037109374,2.3018953800201416,-8.930013656616211,-3.8835511207580566
1761315409262410000,10.624409912109375,2.3090739250183105,-8.941978454589844,-3.8572301864624023
1761315409281331700,10.643331787109375,2.313859462738037,-8.920442581176758,-3.8811583518981934
1761315409300253400,10.66225341796875,2.287538528442383,-8.910871505737305,-3.871587038040161
1761315409319175400,10.681175537109375,2.2851455211639404,-8.930013656616211,-3.85483717918396
1761315409338097200,10.70009716796875,2.311466693878174,-8.93958568572998,-3.845266103744507
1761315409357019000,10.719018798828126,2.2923240661621094,-8.958727836608887,-3.8045880794525146
1761315409375940900,10.73794091796875,2.289931297302246,-8.906085968017578,-3.8261234760284424
1761315409394862600,10.756862548828124,2.2923240661621094,-8.901300430297852,-3.8596229553222656
1761315409413784600,10.77578466796875,2.2779672145843506,-8.913264274597168,-3.8883368968963623
1761315409432706300,10.794706298828125,2.306680917739868,-8.906085968017578,-3.862015724182129
1761315409451628000,10.8136279296875,2.311466693878174,-8.922835350036621,-3.8883368968963623
1761315409470550000,10.832550048828125,2.2923240661621094,-8.906085968017578,-3.8596229553222656
1761315409489471700,10.8514716796875,2.3162522315979004,-8.922835350036621,-3.8428730964660645
1761315409508393700,10.870393798828125,2.337787628173828,-8.918049812316895,-3.8428730964660645
1761315409527315500,10.8893154296875,2.3497519493103027,-8.903693199157715,-3.8428730964660645
1761315409546237200,10.9082373046875,2.3545374870300293,-8.93240737915039,-3.8572301864624023
1761315409565159200,10.9271591796875,2.304288148880005,-8.894122123718262,-3.82373046875
1761315409584081000,10.946080810546874,2.3306093215942383,-8.94676399230957,-3.8572301864624023
1761315409603003000,10.9650029296875,2.3617160320281982,-8.973084449768066,-3.840480327606201
1761315409621924600,10.983924560546875,2.3569302558898926,-8.901300430297852,-3.9074792861938477
1761315409640846300,11.002846435546875,2.3641088008880615,-8.851051330566406,-3.9672999382019043
1761315409659768300,11.021768310546875,2.359323024749756,-8.851051330566406,-3.9433717727661133
1761315409678690000,11.04068994140625,2.352144718170166,-8.872586250305176,-3.902693748474121
1761315409697611800,11.05961181640625,2.344966173171997,-8.906085968017578,-3.871587038040161
1761315409716533800,11.07853369140625,2.3545374870300293,-8.851051330566406,-3.893122434616089
1761315409735455500,11.09745556640625,2.359323024749756,-8.848658561706543,-3.9433717727661133
1761315409754377500,11.11637744140625,2.3712873458862305,-8.870193481445312,-3.9457645416259766
1761315409773299200,11.13529931640625,2.383251428604126,-8.85344409942627,-3.9050865173339844
1761315409792221200,11.15422119140625,2.352144718170166,-8.85344409942627,-3.90987229347229
1761315409811143000,11.173142822265625,2.3641088008880615,-8.874979019165039,-3.9314076900482178
1761315409830064600,11.192064697265625,2.3808584213256836,-8.882157325744629,-3.933800458908081
1761315409848986600,11.210986572265625,2.3808584213256836,-8.894122123718262,-3.9050865173339844
1761315409867908400,11.229908447265625,2.414358139038086,-8.891729354858398,-3.9074792861938477
1761315409886830000,11.248830078125,2.400001049041748,-8.894122123718262,-3.9074792861938477
1761315409905752000,11.267751953125,2.400001049041748,-8.879764556884766,-3.90987229347229
1761315409924673800,11.286673828125,2.383251428604126,-8.870193481445312,-3.9122650623321533
1761315409943595800,11.305595703125,2.414358139038086,-8.86780071258545,-3.9050865173339844
1761315409962517500,11.324517578125,2.400001049041748,-8.889336585998535,-3.8835511207580566
1761315409981439200,11.343439208984375,2.421536445617676,-8.851051330566406,-3.9290146827697754
1761315410000361200,11.362361328125,2.3856441974639893,-8.793622970581055,-3.9768712520599365
1761315410019283000,11.381282958984375,2.3306093215942383,-8.764909744262695,-4.039084434509277
1761315410038205000,11.400204833984375,2.3162522315979004,-8.755337715148926,-4.082155227661133
1761315410057126700,11.419126708984376,2.3330020904541016,-8.800801277160645,-4.113262176513672
1761315410076048400,11.43804833984375,2.3569302558898926,-8.855836868286133,-4.027120590209961
1761315410094970400,11.456970458984374,2.3976082801818848,-8.903693199157715,-3.955335855484009
1761315410113892000,11.47589208984375,2.4119651317596436,-8.922835350036621,-3.9457645416259766
1761315410132814000,11.49481396484375,2.4119651317596436,-8.886942863464355,-3.9625144004821777
1761315410151735800,11.51373583984375,2.400001049041748,-8.839086532592773,-3.981656789779663
1761315410170657500,11.532657470703125,2.3712873458862305,-8.8438720703125,-3.972085475921631
1761315410189579500,11.55157958984375,2.3784656524658203,-8.841479301452637,-3.955335855484009
1761315410208501200,11.570501220703125,2.407179594039917,-8.841479301452637,-3.955335855484009
1761315410227423000,11.589423095703125,2.4047868251800537,-8.788837432861328,-3.981656789779663
1761315410246345000,11.608344970703126,2.4191436767578125,-8.776873588562012,-4.015156269073486
1761315410265266700,11.6272666015625,2.4191436767578125,-8.800801277160645,-4.000799655914307
1761315410284188700,11.646188720703124,2.421536445617676,-8.812766075134277,-3.996013879776001
1761315410303110400,11.6651103515625,2.414358139038086,-8.841479301452637,-3.9361932277679443
1761315410322032400,11.684032470703125,2.4023938179016113,-8.858229637145996,-3.933800458908081
1761315410340954000,11.7029541015625,2.4406790733337402,-8.891729354858398,-3.933800458908081
1761315410359875800,11.721875732421875,2.469393014907837,-8.870193481445312,-3.9385859966278076
1761315410378797800,11.7407978515625,2.4717857837677,-8.81515884399414,-4.027120590209961
1761315410397719600,11.759719482421875,2.4574289321899414,-8.781659126281738,-4.053441524505615
1761315410416641500,11.7786416015625,2.447857618331909,-8.774480819702148,-4.024727821350098
1761315410435563300,11.797563232421876,2.438286304473877,-8.810373306274414,-4.01037073135376
1761315410454485000,11.816485107421874,2.4717857837677,-8.82233715057373,-3.9744784832000732
1761315410473407000,11.835406982421874,2.4813570976257324,-8.82233715057373,-3.955335855484009
1761315410492328700,11.85432861328125,2.4741785526275635,-8.798408508300781,-3.9744784832000732
1761315410511250400,11.87325048828125,2.4502503871917725,-8.824729919433594,-4.0079779624938965
1761315410530172400,11.89217236328125,2.4502503871917725,-8.803194046020508,-4.0079779624938965
1761315410549094100,11.91109423828125,2.4598217010498047,-8.781659126281738,-3.9984066486358643
1761315410568016100,11.93001611328125,2.462214469909668,-8.805587768554688,-3.9936211109161377
1761315410586937900,11.948937744140625,2.50289249420166,-8.796015739440918,-3.9744784832000732
1761315410605859600,11.967859619140626,2.4837498664855957,-8.80798053741455,-3.964907169342041
1761315410624781600,11.986781494140626,2.4909284114837646,-8.769695281982422,-3.996013879776001
1761315410643703300,12.005703369140624,2.5148565769195557,-8.757730484008789,-4.039084434509277
1761315410662625300,12.024625244140625,2.4981069564819336,-8.748159408569336,-4.077369689941406
1761315410681547000,12.043547119140625,2.510071039199829,-8.784051895141602,-4.060619831085205
1761315410700469000,12.062468994140625,2.5220351219177246,-8.803194046020508,-4.034298896789551
1761315410719390700,12.081390625,2.5196423530578613,-8.791230201721191,-4.01754903793335
1761315410738312400,12.1003125,2.541177749633789,-8.769695281982422,-4.034298896789551
1761315410757234400,12.119234375,2.510071039199829,-8.769695281982422,-4.041477680206299
1761315410776156200,12.13815625,2.4885356426239014,-8.793622970581055,-4.015156269073486
1761315410795078100,12.157078125,2.4981069564819336,-8.805587768554688,-3.9936211109161377
1761315410813999900,12.175999755859374,2.486142635345459,-8.800801277160645,-3.996013879776001
1761315410832921600,12.194921630859374,2.4646072387695312,-8.798408508300781,-4.027120590209961
1761315410851843600,12.213843505859375,2.4430718421936035,-8.796015739440918,-4.024727821350098
1761315410870765300,12.232765380859375,2.4502503871917725,-8.793622970581055,-4.036691665649414
1761315410889687000,12.25168701171875,2.478964328765869,-8.791230201721191,-4.005585193634033
1761315410908609000,12.270609130859375,2.4765713214874268,-8.767302513122559,-4.034298896789551
1761315410927530800,12.28953076171875,2.4574289321899414,-8.772088050842285,-4.034298896789551
1761315410946452700,12.30845263671875,2.4335005283355713,-8.774480819702148,-4.063013076782227
1761315410965374500,12.32737451171875,2.445464849472046,-8.772088050842285,-4.043870449066162
1761315410984296400,12.34629638671875,2.445464849472046,-8.776873588562012,-4.029513359069824
1761315411003218200,12.36521826171875,2.4430718421936035,-8.80798053741455,-4.024727821350098
1761315411022140000,12.384139892578125,2.447857618331909,-8.800801277160645,-4.034298896789551
1761315411041062000,12.403061767578125,2.447857618331909,-8.796015739440918,-4.015156269073486
1761315411059983600,12.421983642578125,2.4717857837677,-8.824729919433594,-3.988835334777832
1761315411078905600,12.440905517578125,2.4598217010498047,-8.83669376373291,-3.988835334777832
1761315411097827300,12.459827392578125,2.462214469909668,-8.841479301452637,-3.957728624343872
1761315411116749000,12.4787490234375,2.478964328765869,-8.851051330566406,-3.933800458908081
1761315411135671000,12.497671142578126,2.4574289321899414,-8.839086532592773,-3.9672999382019043
1761315411154592800,12.5165927734375,2.4358935356140137,-8.81515884399414,-3.988835334777832
1761315411173514800,12.5355146484375,2.407179594039917,-8.831908226013184,-4.012763500213623
1761315411192436500,12.5544365234375,2.3976082801818848,-8.81515884399414,-3.9936211109161377
1761315411211358200,12.573358154296875,2.400001049041748,-8.824729919433594,-3.964907169342041
1761315411230280200,12.5922802734375,2.3784656524658203,-8.810373306274414,-3.9768712520599365
1761315411249202000,12.611201904296875,2.3617160320281982,-8.80798053741455,-3.996013879776001
1761315411268124000,12.6301240234375,2.3856441974639893,-8.834300994873047,-3.972085475921631
1761315411287045600,12.649045654296875,2.344966173171997,-8.848658561706543,-3.950550079345703
1761315411305967400,12.66796728515625,2.366501569747925,-8.884550094604492,-3.9385859966278076
1761315411324889300,12.686889404296876,2.3330020904541016,-8.906085968017578,-3.9314076900482178
1761315411343811000,12.70581103515625,2.3401806354522705,-8.908478736877441,-3.9122650623321533
1761315411362733000,12.724733154296874,2.3856441974639893,-8.901300430297852,-3.8763725757598877
1761315411381654800,12.74365478515625,2.3808584213256836,-8.901300430297852,-3.9218363761901855
1761315411400576500,12.762576416015625,2.3497519493103027,-8.827122688293457,-3.9361932277679443
1761315411419498500,12.78149853515625,2.3497519493103027,-8.851051330566406,-3.9792640209198
1761315411438420200,12.800420166015625,2.3497519493103027,-8.855836868286133,-3.9601213932037354
1761315411457342200,12.81934228515625,2.359323024749756,-8.855836868286133,-3.955335855484009
1761315411476264000,12.838263916015626,2.3808584213256836,-8.882157325744629,-3.9457645416259766
1761315411495186000,12.85718603515625,2.3856441974639893,-8.896514892578125,-3.9290146827697754
1761315411514107600,12.876107666015624,2.3641088008880615,-8.877371788024902,-3.9314076900482178
1761315411533029400,12.895029296875,2.3497519493103027,-8.858229637145996,-3.9361932277679443
1761315411551951400,12.913951416015625,2.3641088008880615,-8.86780071258545,-3.90987229347229
1761315411570873000,12.932873046875,2.359323024749756,-8.877371788024902,-3.8979079723358154
1761315411589795000,12.951795166015625,2.344966173171997,-8.906085968017578,-3.893122434616089
1761315411608716800,12.970716796875,2.3258235454559326,-8.925228118896484,-3.8739798069000244
1761315411627638800,12.989638671875,2.3306093215942383,-8.913264274597168,-3.8811583518981934
1761315411646560500,13.008560546875,2.3401806354522705,-8.879764556884766,-3.900300979614258
1761315411665482200,13.027482177734376,2.3330020904541016,-8.874979019165039,-3.9194436073303223
1761315411684404200,13.046404296875,2.3330020904541016,-8.894122123718262,-3.8979079723358154
1761315411703326000,13.065325927734374,2.3330020904541016,-8.889336585998535,-3.902693748474121
1761315411722248000,13.084248046875,2.3545374870300293,-8.874979019165039,-3.8835511207580566
1761315411741169700,13.103169677734375,2.344966173171997,-8.872586250305176,-3.9122650623321533
1761315411760091600,13.122091552734375,2.3473589420318604,-8.86062240600586,-3.926621913909912
1761315411779013400,13.141013427734375,2.3569302558898926,-8.865407943725586,-3.9361932277679443
1761315411797935000,13.15993505859375,2.3736801147460938,-8.910871505737305,-3.9194436073303223
1761315411816857000,13.178857177734375,2.376072883605957,-8.894122123718262,-3.9146578311920166
1761315411835778800,13.19777880859375,2.344966173171997,-8.889336585998535,-3.9122650623321533
1761315411854700800,13.21670068359375,2.3306093215942383,-8.891729354858398,-3.9146578311920166
1761315411873622500,13.23562255859375,2.3545374870300293,-8.903693199157715,-3.8883368968963623
1761315411892544500,13.25454443359375,2.3497519493103027,-8.848658561706543,-3.895515203475952
1761315411911466200,13.27346630859375,2.328216314315796,-8.86780071258545,-3.90987229347229
1761315411930388000,13.292387939453125,2.3401806354522705,-8.863015174865723,-3.9290146827697754
1761315411949310000,13.31131005859375,2.359323024749756,-8.901300430297852,-3.90987229347229
1761315411968231700,13.330231689453125,2.3497519493103027,-8.886942863464355,-3.893122434616089
1761315411987153700,13.349153564453125,2.344966173171997,-8.894122123718262,-3.9122650623321533
1761315412006075400,13.368075439453126,2.3234307765960693,-8.889336585998535,-3.926621913909912
1761315412024997400,13.386997314453126,2.344966173171997,-8.910871505737305,-3.91705060005188
1761315412043919000,13.405919189453124,2.352144718170166,-8.894122123718262,-3.900300979614258
1761315412062840800,13.4248408203125,2.359323024749756,-8.896514892578125,-3.9050865173339844
1761315412081762800,13.4437626953125,2.3473589420318604,-8.872586250305176,-3.924229145050049
1761315412100684500,13.4626845703125,2.3306093215942383,-8.877371788024902,-3.9194436073303223
1761315412119606500,13.4816064453125,2.3162522315979004,-8.884550094604492,-3.895515203475952
1761315412138528300,13.5005283203125,2.3401806354522705,-8.877371788024902,-3.8811583518981934
1761315412157450200,13.5194501953125,2.3473589420318604,-8.908478736877441,-3.9074792861938477
1761315412176372000,13.5383720703125,2.3306093215942383,-8.903693199157715,-3.895515203475952
1761315412195293700,13.557293701171876,2.342573404312134,-8.922835350036621,-3.8739798069000244
1761315412214215700,13.576215576171874,2.3497519493103027,-8.901300430297852,-3.8261234760284424
1761315412233137400,13.595137451171874,2.3306093215942383,-8.870193481445312,-3.871587038040161
1761315412252059400,13.614059326171875,2.3162522315979004,-8.874979019165039,-3.9314076900482178
1761315412270981000,13.632981201171875,2.342573404312134,-8.884550094604492,-3.9194436073303223
1761315412289903000,13.651903076171875,2.352144718170166,-8.884550094604492,-3.8979079723358154
1761315412308824800,13.670824951171875,2.359323024749756,-8.915657043457031,-3.87876558303833
1761315412327746800,13.689746826171875,2.3569302558898926,-8.901300430297852,-3.8979079723358154
1761315412346668500,13.70866845703125,2.352144718170166,-8.913264274597168,-3.9146578311920166
1761315412365590500,13.727590576171876,2.3186452388763428,-8.913264274597168,-3.8811583518981934
1761315412384512300,13.74651220703125,2.342573404312134,-8.934800148010254,-3.8524444103240967
1761315412403434000,13.76543408203125,2.3258235454559326,-8.913264274597168,-3.8524444103240967
1761315412422356000,13.78435595703125,2.304288148880005,-8.898907661437988,-3.869194269180298
1761315412441277700,13.803277587890625,2.2923240661621094,-8.910871505737305,-3.8668015003204346
1761315412460199700,13.82219970703125,2.3162522315979004,-8.903693199157715,-3.8524444103240967
1761315412479121400,13.841121337890625,2.306680917739868,-8.910871505737305,-3.85483717918396
1761315412498043400,13.86004345703125,2.313859462738037,-8.922835350036621,-3.85483717918396
1761315412516965000,13.878965087890625,2.313859462738037,-8.918049812316895,-3.8739798069000244
1761315412535887000,13.89788720703125,2.311466693878174,-8.896514892578125,-3.871587038040161
1761315412554808800,13.916808837890626,2.3330020904541016,-8.918049812316895,-3.8572301864624023
1761315412573730800,13.935730712890624,2.321038007736206,-8.891729354858398,-3.8835511207580566
1761315412592652500,13.954652587890624,2.306680917739868,-8.891729354858398,-3.9194436073303223
1761315412611574300,13.97357421875,2.3258235454559326,-8.908478736877441,-3.9074792861938477
1761315412630496300,13.992496337890625,2.3306093215942383,-8.906085968017578,-3.869194269180298
1761315412649418000,14.01141796875,2.3306093215942383,-8.920442581176758,-3.893122434616089
1761315412668340000,14.030340087890625,2.335394859313965,-8.891729354858398,-3.90987229347229
1761315412687261700,14.04926171875,2.3234307765960693,-8.891729354858398,-3.895515203475952
1761315412706183700,14.06818359375,2.311466693878174,-8.93240737915039,-3.8596229553222656
1761315412725105400,14.08710546875,2.328216314315796,-8.896514892578125,-3.838087558746338
1761315412744027400,14.10602734375,2.306680917739868,-8.877371788024902,-3.900300979614258
1761315412762949000,14.12494921875,2.3234307765960693,-8.863015174865723,-3.9218363761901855
1761315412781870800,14.143870849609375,2.2612173557281494,-8.886942863464355,-3.88594388961792
1761315412800792800,14.162792724609375,2.3545374870300293,-8.934800148010254,-3.8979079723358154
1761315412819714600,14.181714599609375,2.390429735183716,-8.96112060546875,-3.869194269180298
1761315412838636500,14.200636474609375,2.344966173171997,-8.896514892578125,-3.902693748474121
1761315412857558300,14.219558349609375,2.280359983444214,-8.889336585998535,-3.902693748474121
1761315412876480300,14.238480224609376,2.313859462738037,-8.903693199157715,-3.88594388961792
