time,seconds_elapsed,z,y,x
1761230799043624400,0.13162451171875,0.0022907445672899485,-0.014355333521962166,0.0012217304902151227
1761230799060397600,0.1483974609375,0.001527163083665073,-0.012217304669320583,0.00015271631127689034
1761230799077186800,0.165186767578125,-0.001832595793530345,-0.007788531947880983,-0.0003054326225537807
1761230799093996800,0.181996826171875,-0.0013744467869400978,-0.006261368747800589,0.0006108652451075613
1761230799110777300,0.19877734375,0.0009162978967651725,-0.007635815534740686,0.0039706239476799965
1761230799127572500,0.215572509765625,0.003512475173920393,-0.005039638374000788,0.01038470957428217
1761230799144342300,0.23234228515625,0.005345070734620094,0.0032070425804704428,0.01710422709584236
1761230799161148700,0.249148681640625,0.005345070734620094,0.013897184282541275,0.02229658141732216
1761230799177930800,0.2659306640625,0.003817907767370343,0.018478672951459885,0.023518312722444534
1761230799194719200,0.28271923828125,0.003512475173920393,0.017562376335263252,0.020463986322283745
1761230799211515400,0.299515380859375,0.0039706239476799965,0.010079276748001575,0.01466076634824276
1761230799228305200,0.31630517578125,0.0025961773935705423,0.004123340360820293,0.01114829070866108
1761230799245094700,0.3330947265625,0.0009162978967651725,0.0024434609804302454,0.010079276748001575
1761230799261881900,0.3498818359375,-0.001679879380390048,0.004581489134579897,0.004734205547720194
1761230799278673200,0.366673095703125,-0.003359758760780096,0.0039706239476799965,0.0003054326225537807
1761230799295462100,0.383462158203125,-0.005345070734620094,-0.0013744467869400978,-0.0032070425804704428
1761230799312230100,0.400230224609375,-0.0065668015740811825,-0.009773843921720982,-0.003512475173920393
1761230799329025800,0.41702587890625,-0.005192354787141085,-0.0032070425804704428,-0.0039706239476799965
1761230799345812700,0.433812744140625,-0.0039706239476799965,0.008704829961061478,-0.002138028386980295
1761230799362601700,0.450601806640625,-0.003817907767370343,0.014813481830060482,0.0009162978967651725
1761230799379381000,0.467381103515625,-0.004428773187100887,0.013133603148162365,0.00427605677396059
1761230799396186000,0.48418603515625,-0.00427605677396059,0.00733038317412138,0.006872233934700489
1761230799412988000,0.50098779296875,0.003359758760780096,0.00015271631127689034,0.01237002108246088
1761230799429761000,0.517760986328125,0.010079276748001575,-0.0022907445672899485,0.018936822190880775
1761230799446549200,0.53454931640625,0.013286318629980087,0.0039706239476799965,0.022602014243602753
1761230799463339500,0.551339599609375,0.01542434748262167,0.007941247895359993,0.024434609338641167
1761230799480129000,0.56812890625,0.01725694350898266,0.006872233934700489,0.02626720629632473
1761230799496928800,0.5849287109375,0.013439035043120384,0.004581489134579897,0.022907447069883347
1761230799513714700,0.601714599609375,0.01114829070866108,0.005039638374000788,0.01664607785642147
1761230799530496800,0.618496826171875,0.007941247895359993,0.0027488935738801956,0.010842857882380486
1761230799547286800,0.635286865234375,0.0024434609804302454,-0.0027488935738801956,0.005497787147760391
1761230799564073700,0.65207373046875,0,-0.005803219974040985,-0.0012217304902151227
1761230799580863700,0.66886376953125,-0.0024434609804302454,-0.013439035043120384,-0.0024434609804302454
1761230799597649400,0.6856494140625,-0.00366519158706069,-0.015577063895761967,-0.004581489134579897
1761230799614444800,0.70244482421875,-0.0022907445672899485,-0.011453723534941673,-0.004581489134579897
1761230799631247400,0.719247314453125,-0.002138028386980295,-0.0065668015740811825,-0.0012217304902151227
1761230799648034000,0.736033935546875,-0.001527163083665073,-0.0009162978967651725,0.0009162978967651725
1761230799664818700,0.752818603515625,-0.002138028386980295,0.00045814894838258624,0.002138028386980295
1761230799681616100,0.7696162109375,-0.0010690141934901476,-0.001832595793530345,0.00015271631127689034
1761230799698395100,0.78639501953125,0.0010690141934901476,-0.008399397134780884,-0.001527163083665073
1761230799715194400,0.8031943359375,0.003512475173920393,-0.013744467869400978,0.002138028386980295
1761230799731962400,0.81996240234375,0.004581489134579897,-0.013286318629980087,0.003359758760780096
1761230799748768300,0.836768310546875,0.003817907767370343,-0.008857546374201775,0.004428773187100887
1761230799765556000,0.853555908203125,0.001832595793530345,-0.005803219974040985,0.0027488935738801956
1761230799782347000,0.870346923828125,0,-0.008857546374201775,0.00015271631127689034
1761230799799136300,0.88713623046875,-0.001832595793530345,-0.013897184282541275,-0.00015271631127689034
1761230799815920600,0.903920654296875,-0.0032070425804704428,-0.010079276748001575,0.00015271631127689034
1761230799832717300,0.92071728515625,-0.0022907445672899485,-0.0025961773935705423,0.0003054326225537807
1761230799849503200,0.937503173828125,-0.0022907445672899485,0.0010690141934901476,0.001832595793530345
1761230799866292500,0.95429248046875,-0.0024434609804302454,0.001527163083665073,0.0065668015740811825
1761230799883064300,0.971064208984375,0.001679879380390048,0.0039706239476799965,0.00809396430850029
1761230799899857000,0.98785693359375,0.006719517521560192,0.0022907445672899485,0.005345070734620094
1761230799916642800,1.004642822265625,0.006108652334660292,-0.0065668015740811825,0.0013744467869400978
1761230799933436200,1.021436279296875,0.0032070425804704428,-0.013439035043120384,-0.0007635815418325365
1761230799950224000,1.038223876953125,0.0012217304902151227,-0.016951510682702065,-0.0022907445672899485
1761230799967014000,1.055013916015625,0.0029016099870204926,-0.015118914656341076,-0.0006108652451075613
1761230799983819800,1.07181982421875,0.0024434609804302454,-0.008857546374201775,0.0022907445672899485
1761230800000606000,1.08860595703125,-0.0003054326225537807,-0.004123340360820293,0.0024434609804302454
1761230800017376000,1.1053759765625,-0.002138028386980295,-0.010690141469240189,0.0013744467869400978
1761230800034172000,1.122171875,-0.006872233934700489,-0.02428189292550087,-0.003817907767370343
1761230800050959000,1.138958984375,-0.006261368747800589,-0.03588833287358284,-0.010995574295520782
1761230800067748400,1.155748291015625,-0.007788531947880983,-0.04886921867728233,-0.01618792861700058
1761230800084532000,1.172531982421875,-0.007177666760981083,-0.052839845418930054,-0.022143865004181862
1761230800101330700,1.18933056640625,-0.004428773187100887,-0.05253441259264946,-0.022602014243602753
1761230800118132700,1.2061328125,-0.0007635815418325365,-0.04459316283464432,-0.019089538604021072
1761230800134902000,1.222902099609375,-0.00015271631127689034,-0.0354301854968071,-0.014966198243200779
1761230800151699500,1.239699462890625,0.0006108652451075613,-0.0328340083360672,-0.014966198243200779
1761230800168497200,1.2564970703125,0.0029016099870204926,-0.03497203439474106,-0.014813481830060482
1761230800185286000,1.273285888671875,0.003512475173920393,-0.03588833287358284,-0.015577063895761967
1761230800202075100,1.2900751953125,0.0024434609804302454,-0.03451388701796532,-0.013744467869400978
1761230800218862300,1.3068623046875,0.0022907445672899485,-0.03222314268350601,-0.009773843921720982
1761230800235655700,1.32365576171875,0.0022907445672899485,-0.02474004216492176,-0.005955935921519995
1761230800252442600,1.340442626953125,0.0009162978967651725,-0.012828170321881771,0.0012217304902151227
1761230800269231600,1.357231689453125,-0.0013744467869400978,0.0013744467869400978,0.006261368747800589
1761230800286020600,1.3740205078125,-0.004734205547720194,0.006261368747800589,0.004734205547720194
1761230800302804000,1.390803955078125,-0.006261368747800589,0.0032070425804704428,0.003817907767370343
1761230800319603000,1.40760302734375,-0.005039638374000788,0.003817907767370343,-0.0007635815418325365
1761230800336385800,1.4243857421875,-0.003512475173920393,0.0074830991216003895,-0.0025961773935705423
1761230800353177900,1.441177734375,-0.003359758760780096,0.013591751456260681,0.003512475173920393
1761230800369949700,1.45794970703125,-0.0039706239476799965,0.02015855349600315,0.007177666760981083
1761230800386741800,1.47474169921875,-0.0025961773935705423,0.020005837082862854,0.008399397134780884
1761230800403530800,1.49153076171875,-0.0012217304902151227,0.010690141469240189,0.006108652334660292
1761230800420320300,1.5083203125,0,0.0013744467869400978,0.006108652334660292
1761230800437109000,1.52510888671875,0,0,0.005192354787141085
1761230800453898200,1.541898193359375,-0.00015271631127689034,-0.0010690141934901476,0.0029016099870204926
1761230800470704600,1.55870458984375,0.0010690141934901476,-0.00855211354792118,0.001679879380390048
1761230800487490600,1.575490478515625,0.0010690141934901476,-0.01191187184303999,-0.0007635815418325365
1761230800504262100,1.59226220703125,-0.0010690141934901476,-0.012064588256180286,-0.002138028386980295
1761230800521049600,1.609049560546875,-0.0027488935738801956,-0.01237002108246088,-0.003512475173920393
1761230800537842700,1.6258427734375,-0.0003054326225537807,-0.013897184282541275,-0.00366519158706069
1761230800554627600,1.642627685546875,-0.00015271631127689034,-0.015271631069481373,-0.003359758760780096
1761230800571427600,1.659427490234375,-0.0013744467869400978,-0.013897184282541275,-0.003359758760780096
1761230800588211500,1.67621142578125,-0.0025961773935705423,-0.009926560334861279,-0.0032070425804704428
1761230800605017600,1.693017578125,-0.003817907767370343,-0.009621127508580685,-0.004428773187100887
1761230800621803300,1.70980322265625,-0.005039638374000788,-0.012675453908741474,-0.008857546374201775
1761230800638592500,1.726592529296875,-0.0027488935738801956,-0.013591751456260681,-0.007177666760981083
1761230800655379700,1.743379638671875,-0.00366519158706069,-0.007177666760981083,-0.0039706239476799965
1761230800672171800,1.760171875,-0.005650503560900688,0.0006108652451075613,-0.004886921960860491
1761230800688942300,1.7769423828125,-0.004123340360820293,0.002138028386980295,-0.004886921960860491
1761230800705750300,1.793750244140625,-0.0029016099870204926,-0.0064140851609408855,-0.007177666760981083
1761230800722538000,1.8105380859375,-0.003359758760780096,-0.01237002108246088,-0.0065668015740811825
1761230800739324000,1.827323974609375,-0.004581489134579897,-0.01160643994808197,-0.0010690141934901476
1761230800756120000,1.8441201171875,-0.005345070734620094,0.00045814894838258624,-0.00045814894838258624
1761230800772905700,1.86090576171875,-0.007024950347840786,0.0065668015740811825,-0.003817907767370343
1761230800789692700,1.877692626953125,-0.007177666760981083,-0.0029016099870204926,-0.007788531947880983
1761230800806484000,1.89448388671875,-0.00733038317412138,-0.008704829961061478,-0.009468411095440388
1761230800823267000,1.91126708984375,-0.00855211354792118,-0.008399397134780884,-0.010079276748001575
1761230800840068400,1.928068359375,-0.010995574295520782,-0.003817907767370343,-0.012064588256180286
1761230800856849000,1.944848876953125,-0.010079276748001575,-0.001679879380390048,-0.011301007121801376
1761230800873629000,1.96162890625,-0.010231993161141872,-0.003817907767370343,-0.00809396430850029
1761230800890415600,1.97841552734375,-0.009926560334861279,-0.006261368747800589,-0.005039638374000788
1761230800907204900,1.995204833984375,-0.007941247895359993,-0.007024950347840786,-0.006261368747800589
1761230800923978000,2.01197802734375,-0.00855211354792118,-0.00809396430850029,-0.008857546374201775
1761230800940769000,2.02876904296875,-0.0074830991216003895,-0.016035212203860283,-0.014202617108821869
1761230800957572000,2.045572021484375,-0.004428773187100887,-0.021838432177901268,-0.012828170321881771
1761230800974377000,2.062376953125,-0.004734205547720194,-0.020922135561704636,-0.01191187184303999
1761230800991147500,2.0791474609375,-0.003817907767370343,-0.014355333521962166,-0.013286318629980087
1761230801007939300,2.095939208984375,-0.003817907767370343,-0.014813481830060482,-0.011301007121801376
1761230801024728800,2.112728759765625,-0.005039638374000788,-0.017867809161543846,-0.010690141469240189
1761230801041517600,2.129517578125,-0.005497787147760391,-0.023518312722444534,-0.011759156361222267
1761230801058307300,2.146307373046875,-0.004123340360820293,-0.02779436856508255,-0.014202617108821869
1761230801075096000,2.163095947265625,-0.0019853119738399982,-0.029626963660120964,-0.01542434748262167
1761230801091900700,2.179900634765625,0.00015271631127689034,-0.024434609338641167,-0.012828170321881771
1761230801108688100,2.196688232421875,-0.003054326167330146,-0.01664607785642147,-0.006872233934700489
1761230801125477600,2.2134775390625,-0.00427605677396059,-0.00855211354792118,-0.005650503560900688
1761230801142248200,2.230248291015625,-0.001832595793530345,-0.0032070425804704428,-0.0032070425804704428
1761230801159059700,2.247059814453125,-0.001832595793530345,-0.0074830991216003895,-0.005803219974040985
1761230801175842600,2.263842529296875,-0.0025961773935705423,-0.01542434748262167,-0.00733038317412138
1761230801192633300,2.28063330078125,-0.0013744467869400978,-0.019089538604021072,-0.003054326167330146
1761230801209427200,2.29742724609375,0.0006108652451075613,-0.015577063895761967,-0.004428773187100887
1761230801226211800,2.3142119140625,0.001832595793530345,-0.01114829070866108,-0.003054326167330146
1761230801243001000,2.3310009765625,0,-0.004886921960860491,-0.00045814894838258624
1761230801259788800,2.347788818359375,-0.0013744467869400978,0.005192354787141085,-0.00045814894838258624
1761230801276579300,2.364579345703125,-0.001832595793530345,0.004886921960860491,-0.0009162978967651725
1761230801293368300,2.381368408203125,-0.004428773187100887,-0.005497787147760391,-0.0003054326225537807
1761230801310158600,2.39815869140625,-0.005650503560900688,-0.011301007121801376,-0.005345070734620094
1761230801326946800,2.41494677734375,-0.006719517521560192,-0.010842857882380486,-0.00733038317412138
1761230801343736600,2.431736572265625,-0.006261368747800589,-0.00427605677396059,-0.0064140851609408855
1761230801360508200,2.448508056640625,-0.0039706239476799965,-0.00045814894838258624,-0.00427605677396059
1761230801377301000,2.465301025390625,-0.003512475173920393,0.004428773187100887,-0.0009162978967651725
1761230801394094000,2.482093994140625,-0.001527163083665073,0.009621127508580685,0.002138028386980295
1761230801410879000,2.49887890625,0.0003054326225537807,0.013897184282541275,0.005955935921519995
1761230801427666700,2.515666748046875,0.0006108652451075613,0.01466076634824276,0.003054326167330146
1761230801444454000,2.532453857421875,0.0013744467869400978,0.010079276748001575,0.0019853119738399982
1761230801461265400,2.549265380859375,0.001679879380390048,0.005345070734620094,0.005192354787141085
1761230801478025500,2.566025390625,0.00015271631127689034,0.007788531947880983,0.007941247895359993
1761230801494823700,2.58282373046875,-0.00045814894838258624,0.01160643994808197,0.008399397134780884
1761230801511613400,2.599613525390625,0.0012217304902151227,0.006872233934700489,0.00809396430850029
1761230801528402700,2.616402587890625,0.00045814894838258624,-0.0007635815418325365,0.006108652334660292
1761230801545192200,2.633192138671875,0.00045814894838258624,-0.005192354787141085,0.006719517521560192
1761230801561981000,2.64998095703125,0.0009162978967651725,-0.004428773187100887,0.0019853119738399982
1761230801578787300,2.666787353515625,0.002138028386980295,-0.00427605677396059,-0.0007635815418325365
1761230801595573200,2.6835732421875,0.003359758760780096,-0.005345070734620094,0.0003054326225537807
1761230801612362500,2.700362548828125,0.0027488935738801956,-0.003512475173920393,0.003054326167330146
1761230801629151700,2.71715185546875,0.001527163083665073,0.00045814894838258624,0.001527163083665073
1761230801645938400,2.7339384765625,0.00015271631127689034,-0.0013744467869400978,-0.0007635815418325365
1761230801662730000,2.75072998046875,-0.0012217304902151227,-0.005039638374000788,-0.0024434609804302454
1761230801679518700,2.767518798828125,-0.002138028386980295,-0.007024950347840786,-0.0025961773935705423
1761230801696301000,2.784301025390625,-0.0024434609804302454,-0.007177666760981083,0.0003054326225537807
1761230801713094000,2.801093994140625,-0.0009162978967651725,-0.0012217304902151227,0.005345070734620094
1761230801729889800,2.817889892578125,-0.0009162978967651725,0.00366519158706069,0.0065668015740811825
1761230801746673000,2.8346728515625,-0.0012217304902151227,0.011453723534941673,0.0064140851609408855
1761230801763465000,2.85146484375,-0.0013744467869400978,0.012217304669320583,0.0064140851609408855
1761230801780254000,2.86825390625,0,0.009010262787342072,0.005650503560900688
1761230801797029000,2.885029052734375,-0.001832595793530345,0.007177666760981083,0.006719517521560192
1761230801813831400,2.90183154296875,-0.003512475173920393,0.013744467869400978,0.005955935921519995
1761230801830601200,2.918601318359375,-0.005345070734620094,0.018936822190880775,0.003512475173920393
1761230801847413800,2.935413818359375,-0.005497787147760391,0.016493361443281174,0.0022907445672899485
1761230801864184300,2.952184326171875,-0.00427605677396059,0.01237002108246088,-0.0006108652451075613
1761230801880974800,2.968974853515625,-0.004886921960860491,0.005345070734620094,-0.001679879380390048
1761230801897763800,2.985763916015625,-0.0027488935738801956,-0.0012217304902151227,0.0007635815418325365
1761230801914552800,3.002552734375,-0.0025961773935705423,-0.005497787147760391,-0.00015271631127689034
1761230801931341800,3.019341796875,-0.0003054326225537807,-0.007024950347840786,0.001832595793530345
1761230801948128500,3.03612841796875,0.0022907445672899485,-0.005497787147760391,0.0032070425804704428
1761230801964923400,3.05292333984375,0.0024434609804302454,-0.004581489134579897,0.00427605677396059
1761230801981709600,3.06970947265625,0.0027488935738801956,-0.0032070425804704428,0.005650503560900688
1761230801998482700,3.086482666015625,0.0027488935738801956,-0.0065668015740811825,0.0019853119738399982
1761230802015290600,3.10329052734375,0.001679879380390048,-0.008857546374201775,0.001679879380390048
1761230802032076800,3.120076904296875,0,-0.005955935921519995,-0.0012217304902151227
1761230802048866000,3.136865966796875,-0.0012217304902151227,-0.005497787147760391,-0.00015271631127689034
1761230802065670100,3.153670166015625,-0.003359758760780096,-0.001679879380390048,0.0022907445672899485
1761230802082455600,3.17045556640625,-0.0029016099870204926,0.00427605677396059,0.004428773187100887
1761230802099250200,3.187250244140625,-0.0039706239476799965,0.0074830991216003895,0.004734205547720194
1761230802116036600,3.20403662109375,-0.003054326167330146,0.008399397134780884,0.001832595793530345
1761230802132825000,3.2208251953125,0.00045814894838258624,0.010690141469240189,0.003054326167330146
1761230802149615400,3.237615478515625,0.003054326167330146,0.010231993161141872,0.00366519158706069
1761230802166404000,3.254404052734375,0.0024434609804302454,0.0074830991216003895,0.005803219974040985
1761230802183192800,3.27119287109375,0.0012217304902151227,0.004428773187100887,0.00733038317412138
1761230802199979500,3.2879794921875,-0.0006108652451075613,0.0032070425804704428,0.007024950347840786
1761230802216771600,3.304771484375,-0.0013744467869400978,0.0012217304902151227,0.0065668015740811825
1761230802233556500,3.321556396484375,0.0009162978967651725,0.005955935921519995,0.0074830991216003895
1761230802250333200,3.338333251953125,0.002138028386980295,0.004123340360820293,0.006108652334660292
1761230802267122000,3.355121826171875,-0.0003054326225537807,-0.0013744467869400978,0.005039638374000788
1761230802283911700,3.37191162109375,0.00015271631127689034,-0.0006108652451075613,0.003817907767370343
1761230802300721200,3.38872119140625,0.0006108652451075613,0.0065668015740811825,0.0019853119738399982
1761230802317506000,3.405506103515625,0.0022907445672899485,0.005803219974040985,0.003817907767370343
1761230802334293500,3.42229345703125,0.0032070425804704428,0.004428773187100887,0.004886921960860491
1761230802351060500,3.439060546875,0.00366519158706069,0.008857546374201775,0.007941247895359993
1761230802367863000,3.455863037109375,0.0032070425804704428,0.014508049935102463,0.011759156361222267
1761230802384647200,3.472647216796875,0.0027488935738801956,0.021074850112199783,0.01191187184303999
1761230802401438200,3.489438232421875,0.001527163083665073,0.02474004216492176,0.01038470957428217
1761230802418227000,3.50622705078125,0.0032070425804704428,0.023060163483023643,0.00855211354792118
1761230802435016200,3.52301611328125,0.004581489134579897,0.01924225501716137,0.012217304669320583
1761230802451813000,3.539813232421875,0.004123340360820293,0.01572977937757969,0.008704829961061478
1761230802468591400,3.55659130859375,0.001679879380390048,0.014355333521962166,0.005039638374000788
1761230802485383700,3.5733837890625,-0.0010690141934901476,0.010537425056099892,0.003512475173920393
1761230802502172700,3.590172607421875,-0.001527163083665073,0.004428773187100887,0.0022907445672899485
1761230802518960600,3.606960693359375,0.001679879380390048,0.0019853119738399982,0.00366519158706069
1761230802535738000,3.623738037109375,0.00427605677396059,0.003512475173920393,0.007788531947880983
1761230802552551200,3.64055126953125,0.00366519158706069,0.00931569468230009,0.010690141469240189
1761230802569349400,3.657349365234375,0.001679879380390048,0.009468411095440388,0.008704829961061478
1761230802586132500,3.674132568359375,0.0024434609804302454,0.0027488935738801956,0.005497787147760391
1761230802602922000,3.690921875,0.0032070425804704428,-0.004886921960860491,0.0025961773935705423
1761230802619710200,3.707710205078125,0.0029016099870204926,-0.004123340360820293,0.0032070425804704428
1761230802636499500,3.72449951171875,0.0025961773935705423,0.005039638374000788,0.005345070734620094
1761230802653287200,3.741287109375,-0.0006108652451075613,0.010537425056099892,0.005345070734620094
1761230802670078200,3.758078125,-0.0025961773935705423,0.011301007121801376,0.0029016099870204926
1761230802686866700,3.77486669921875,-0.001832595793530345,0.005345070734620094,-0.0003054326225537807
1761230802703656000,3.791656005859375,-0.00015271631127689034,0.00045814894838258624,0.00015271631127689034
1761230802720441600,3.808441650390625,-0.0013744467869400978,0.00809396430850029,0.002138028386980295
1761230802737238300,3.82523828125,-0.0027488935738801956,0.014049900695681572,0.0024434609804302454
1761230802754023700,3.842023681640625,-0.0019853119738399982,0.008704829961061478,0.00015271631127689034
1761230802770808800,3.858808837890625,0.0009162978967651725,0.0024434609804302454,0
1761230802787605800,3.875605712890625,-0.0010690141934901476,0.003359758760780096,-0.00015271631127689034
1761230802804391200,3.89239111328125,-0.00366519158706069,0.00733038317412138,-0.0009162978967651725
1761230802821180200,3.90918017578125,-0.005039638374000788,0.0064140851609408855,-0.0012217304902151227
1761230802837970400,3.925970458984375,-0.005039638374000788,0.0003054326225537807,-0.0022907445672899485
1761230802854736000,3.94273583984375,-0.0022907445672899485,-0.009468411095440388,-0.004886921960860491
1761230802871533800,3.959533935546875,0.0006108652451075613,-0.016035212203860283,-0.005955935921519995
1761230802888323800,3.97632373046875,0.002138028386980295,-0.015882495790719986,-0.0064140851609408855
1761230802905111300,3.993111328125,0.0022907445672899485,-0.012980886735022068,-0.003359758760780096
1761230802921901300,4.0099013671875,0.004734205547720194,-0.006261368747800589,0.0029016099870204926
1761230802938690300,4.026690185546875,0.005039638374000788,0.001832595793530345,0.009162978269159794
1761230802955479600,4.0434794921875,0.00366519158706069,0.00366519158706069,0.007788531947880983
1761230802972268500,4.0602685546875,0.0007635815418325365,-0.0019853119738399982,0.0032070425804704428
1761230802989057800,4.077057861328125,-0.0010690141934901476,-0.01114829070866108,-0.0007635815418325365
1761230803005846800,4.0938466796875,-0.0013744467869400978,-0.014966198243200779,-0.0039706239476799965
1761230803022635800,4.1106357421875,-0.0010690141934901476,-0.015577063895761967,-0.004428773187100887
1761230803039438800,4.12743896484375,-0.00015271631127689034,-0.009926560334861279,-0.0029016099870204926
1761230803056231700,4.144231689453125,0.0010690141934901476,0.0019853119738399982,0.001527163083665073
1761230803073017300,4.161017333984375,-0.0013744467869400978,0.01114829070866108,0.005650503560900688
1761230803089806300,4.177806396484375,-0.0025961773935705423,0.014049900695681572,0.00427605677396059
1761230803106584000,4.194583984375,-0.00015271631127689034,0.009773843921720982,0.0039706239476799965
1761230803123384800,4.211384765625,-0.0003054326225537807,0.004734205547720194,0.0032070425804704428
1761230803140174000,4.228174072265625,-0.00015271631127689034,0.005955935921519995,0.0024434609804302454
1761230803156937500,4.2449375,0.00045814894838258624,0.010995574295520782,0.006108652334660292
1761230803173752600,4.261752685546875,-0.0006108652451075613,0.01542434748262167,0.004428773187100887
1761230803190527500,4.278527587890625,0.0010690141934901476,0.018325956538319588,0.0065668015740811825
1761230803207330000,4.295330078125,0.003512475173920393,0.020922135561704636,0.010231993161141872
1761230803224101400,4.312101318359375,0.0039706239476799965,0.022602014243602753,0.009773843921720982
1761230803240913400,4.328913330078125,0.00427605677396059,0.021532999351620674,0.00855211354792118
1761230803257697500,4.345697509765625,0.0029016099870204926,0.015118914656341076,0.007024950347840786
1761230803274487300,4.3624873046875,-0.0006108652451075613,0.01863138936460018,0.008399397134780884
1761230803291274200,4.379274169921875,-0.0024434609804302454,0.025045474991202354,0.00931569468230009
1761230803308061700,4.396061767578125,-0.004734205547720194,0.02687807008624077,0.010079276748001575
1761230803324857900,4.41285791015625,-0.006108652334660292,0.02229658141732216,0.004581489134579897
1761230803341626400,4.42962646484375,-0.005039638374000788,0.012217304669320583,-0.0006108652451075613
1761230803358419200,4.446419189453125,-0.0019853119738399982,0.001679879380390048,-0.0003054326225537807
1761230803375208000,4.4632080078125,-0.0006108652451075613,0.002138028386980295,0.0010690141934901476
1761230803391997200,4.4799970703125,-0.0022907445672899485,0.006108652334660292,0.0007635815418325365
1761230803408786200,4.4967861328125,-0.0003054326225537807,0.0039706239476799965,-0.0012217304902151227
1761230803425575400,4.513575439453125,0.0009162978967651725,-0.007788531947880983,-0.001832595793530345
1761230803442364400,4.530364501953125,0.0007635815418325365,-0.01237002108246088,-0.002138028386980295
1761230803459153700,4.547153564453125,-0.0003054326225537807,-0.00855211354792118,-0.001527163083665073
1761230803475929900,4.563929931640625,0.0003054326225537807,-0.008246680721640587,-0.004428773187100887
1761230803492727600,4.5807275390625,-0.0013744467869400978,-0.012828170321881771,-0.007635815534740686
1761230803509525500,4.597525390625,-0.0025961773935705423,-0.012828170321881771,-0.007635815534740686
1761230803526310700,4.614310546875,-0.0022907445672899485,-0.005803219974040985,-0.0032070425804704428
1761230803543111700,4.631111572265625,-0.003359758760780096,0,-0.001679879380390048
1761230803559903000,4.647903076171875,-0.00427605677396059,0.001832595793530345,-0.0039706239476799965
1761230803576708000,4.6647080078125,-0.005039638374000788,-0.0022907445672899485,-0.006872233934700489
1761230803593465900,4.6814658203125,-0.004734205547720194,-0.006261368747800589,-0.008399397134780884
1761230803610262800,4.6982626953125,-0.003817907767370343,-0.006108652334660292,-0.006719517521560192
1761230803627063800,4.715063720703125,-0.006108652334660292,0.0003054326225537807,-0.005345070734620094
1761230803643848200,4.73184814453125,-0.0064140851609408855,0.0027488935738801956,-0.005345070734620094
1761230803660636700,4.74863671875,-0.003359758760780096,0,-0.005497787147760391
1761230803677407000,4.765406982421875,-0.0007635815418325365,-0.00045814894838258624,-0.0022907445672899485
1761230803694218200,4.78221826171875,-0.003054326167330146,0.0029016099870204926,0
1761230803711004400,4.79900439453125,-0.004886921960860491,0.006719517521560192,-0.0024434609804302454
1761230803727793700,4.815793701171875,-0.005345070734620094,0.005803219974040985,-0.006719517521560192
1761230803744583200,4.832583251953125,-0.007024950347840786,-0.005039638374000788,-0.008399397134780884
1761230803761372000,4.849371826171875,-0.006108652334660292,-0.003359758760780096,-0.009926560334861279
1761230803778161000,4.866160888671875,-0.0039706239476799965,-0.0009162978967651725,-0.00855211354792118
1761230803794948600,4.882948486328125,-0.005039638374000788,0.00015271631127689034,-0.005345070734620094
1761230803811740200,4.899740234375,-0.006108652334660292,0.006108652334660292,0.0003054326225537807
1761230803828529000,4.91652880859375,-0.005192354787141085,0.008399397134780884,0.0010690141934901476
1761230803845300200,4.93330029296875,-0.0019853119738399982,0.007024950347840786,-0.00015271631127689034
1761230803862080300,4.950080322265625,0.0006108652451075613,0.0010690141934901476,-0.00015271631127689034
1761230803878882300,4.96688232421875,0,-0.00045814894838258624,-0.00427605677396059
1761230803895671600,4.983671630859375,-0.003054326167330146,-0.001527163083665073,-0.009010262787342072
1761230803912460500,5.00046044921875,-0.006108652334660292,-0.007788531947880983,-0.00931569468230009
1761230803929249800,5.017249755859375,-0.008399397134780884,-0.007941247895359993,-0.00855211354792118
1761230803946038800,5.034038818359375,-0.008704829961061478,-0.002138028386980295,-0.006261368747800589
1761230803962828000,5.050828125,-0.008246680721640587,0.0003054326225537807,-0.009926560334861279
1761230803979617000,5.067616943359375,-0.008399397134780884,-0.007635815534740686,-0.014202617108821869
1761230803996395000,5.08439501953125,-0.00855211354792118,-0.018020525574684143,-0.016493361443281174
1761230804013212700,5.101212646484375,-0.007177666760981083,-0.020311269909143448,-0.016035212203860283
1761230804029994200,5.117994140625,-0.007177666760981083,-0.015118914656341076,-0.014813481830060482
1761230804046787800,5.134787841796875,-0.006261368747800589,-0.013133603148162365,-0.013897184282541275
1761230804063579100,5.1515791015625,-0.005803219974040985,-0.013744467869400978,-0.01160643994808197
1761230804080365300,5.168365234375,-0.004886921960860491,-0.014202617108821869,-0.009162978269159794
1761230804097138200,5.18513818359375,-0.0064140851609408855,-0.008399397134780884,-0.00809396430850029
1761230804113943300,5.201943359375,-0.0074830991216003895,-0.006261368747800589,-0.01114829070866108
1761230804130742300,5.2187421875,-0.007635815534740686,-0.007941247895359993,-0.010842857882380486
1761230804147522600,5.2355224609375,-0.007177666760981083,-0.01160643994808197,-0.009926560334861279
1761230804164311600,5.2523115234375,-0.00366519158706069,-0.011453723534941673,-0.007788531947880983
1761230804181084000,5.269083984375,-0.0013744467869400978,-0.005345070734620094,-0.004581489134579897
1761230804197883400,5.28588330078125,-0.0032070425804704428,0.0025961773935705423,-0.0064140851609408855
1761230804214679300,5.30267919921875,-0.007177666760981083,0.003512475173920393,-0.009010262787342072
1761230804231468000,5.319468017578125,-0.008246680721640587,-0.0006108652451075613,-0.007635815534740686
1761230804248226600,5.3362265625,-0.0065668015740811825,-0.002138028386980295,-0.005955935921519995
1761230804265054200,5.35305419921875,-0.006261368747800589,0.00427605677396059,-0.005192354787141085
1761230804281836000,5.3698359375,-0.0074830991216003895,0.007177666760981083,-0.006719517521560192
1761230804298608000,5.386608154296875,-0.010079276748001575,0.0032070425804704428,-0.010537425056099892
1761230804315414000,5.4034140625,-0.008857546374201775,-0.002138028386980295,-0.010079276748001575
1761230804332185600,5.420185546875,-0.005650503560900688,-0.005497787147760391,-0.006719517521560192
1761230804348978200,5.436978271484375,-0.0012217304902151227,-0.006719517521560192,-0.003054326167330146
1761230804365767400,5.453767333984375,0.0007635815418325365,-0.007788531947880983,-0.004734205547720194
1761230804382556400,5.470556396484375,0.0010690141934901476,-0.009773843921720982,-0.005650503560900688
1761230804399345700,5.487345703125,-0.0003054326225537807,-0.011453723534941673,-0.0074830991216003895
1761230804416135000,5.504135009765625,-0.0003054326225537807,-0.01160643994808197,-0.005497787147760391
1761230804432923600,5.520923583984375,-0.00045814894838258624,-0.010537425056099892,-0.004428773187100887
1761230804449713400,5.53771337890625,-0.0010690141934901476,-0.01038470957428217,-0.007788531947880983
1761230804466499800,5.554499755859375,-0.0013744467869400978,-0.016798794269561768,-0.009773843921720982
1761230804483281400,5.571281494140625,-0.001832595793530345,-0.020311269909143448,-0.009468411095440388
1761230804500096800,5.5880966796875,-0.0007635815418325365,-0.018478672951459885,-0.009162978269159794
1761230804516883000,5.604883056640625,-0.00015271631127689034,-0.017409659922122955,-0.009621127508580685
1761230804533672700,5.621672607421875,-0.0024434609804302454,-0.01466076634824276,-0.005650503560900688
1761230804550462000,5.6384619140625,-0.005497787147760391,-0.012828170321881771,-0.003817907767370343
1761230804567249000,5.655248779296875,-0.0074830991216003895,-0.012675453908741474,-0.005497787147760391
1761230804584036600,5.67203662109375,-0.005039638374000788,-0.018020525574684143,-0.008246680721640587
1761230804600833300,5.688833251953125,-0.0029016099870204926,-0.02015855349600315,-0.010690141469240189
1761230804617618200,5.7056181640625,0.00045814894838258624,-0.017409659922122955,-0.01038470957428217
1761230804634400800,5.72240087890625,0.0010690141934901476,-0.015118914656341076,-0.003817907767370343
1761230804651197000,5.739197021484375,0.0007635815418325365,-0.008857546374201775,0.001527163083665073
1761230804667982600,5.755982666015625,0.003054326167330146,-0.003359758760780096,0.006108652334660292
1761230804684777700,5.77277783203125,0.004123340360820293,0.003054326167330146,0.00809396430850029
1761230804701558500,5.78955859375,0.0025961773935705423,0.00427605677396059,0.006261368747800589
1761230804718357200,5.806357177734375,0.0024434609804302454,0.006261368747800589,0.006872233934700489
1761230804735142700,5.823142578125,0.003359758760780096,0.00733038317412138,0.006719517521560192
1761230804751931100,5.83993115234375,0.0013744467869400978,0.011759156361222267,0.006108652334660292
1761230804768721200,5.85672119140625,-0.0006108652451075613,0.011759156361222267,0.0039706239476799965
1761230804785509600,5.873509521484375,-0.001527163083665073,0.009010262787342072,0.0064140851609408855
1761230804802299100,5.890299072265625,0.0009162978967651725,0.004734205547720194,0.007177666760981083
1761230804819086300,5.90708642578125,0.00427605677396059,0.004581489134579897,0.008246680721640587
1761230804835860500,5.923860595703125,0.005192354787141085,0.0013744467869400978,0.007635815534740686
1761230804852652500,5.940652587890625,0.004886921960860491,-0.001679879380390048,0.011759156361222267
1761230804869438500,5.9574384765625,0.005955935921519995,0.0019853119738399982,0.012217304669320583
1761230804886230000,5.97422998046875,0.00733038317412138,0.005497787147760391,0.01466076634824276
1761230804903022800,5.99102294921875,0.00855211354792118,0.0007635815418325365,0.013286318629980087
1761230804919809000,6.00780908203125,0.00855211354792118,-0.002138028386980295,0.01191187184303999
1761230804936601600,6.0246015625,0.00733038317412138,-0.0065668015740811825,0.007788531947880983
1761230804953381000,6.041381103515625,0.00733038317412138,-0.008704829961061478,0.005803219974040985
1761230804970179600,6.0581796875,0.005192354787141085,-0.007941247895359993,0.006108652334660292
1761230804986948000,6.074947998046875,0.007024950347840786,-0.00427605677396059,0.0064140851609408855
1761230805003768300,6.091768310546875,0.005039638374000788,0.0012217304902151227,0.008246680721640587
1761230805020552400,6.108552490234375,0.0029016099870204926,0.006872233934700489,0.00809396430850029
1761230805037334500,6.12533447265625,0.00015271631127689034,0.007024950347840786,0.0064140851609408855
1761230805054135300,6.14213525390625,-0.0003054326225537807,0.005955935921519995,0.001679879380390048
1761230805070924800,6.1589248046875,0.0010690141934901476,0.005192354787141085,0.0003054326225537807
1761230805087714600,6.175714599609375,0,0.0039706239476799965,0.003359758760780096
1761230805104496000,6.19249609375,0.00015271631127689034,0.00855211354792118,0.005497787147760391
1761230805121300200,6.20930029296875,0.0010690141934901476,0.004123340360820293,0.005192354787141085
1761230805138079500,6.22607958984375,0.00427605677396059,0,0.00366519158706069
1761230805154871300,6.242871337890625,0.006872233934700489,-0.005803219974040985,0.0064140851609408855
1761230805171660000,6.259659912109375,0.005497787147760391,-0.001679879380390048,0.009162978269159794
1761230805188450600,6.276450439453125,0.001679879380390048,0.005955935921519995,0.009621127508580685
1761230805205234700,6.293234619140625,0.0012217304902151227,0.007635815534740686,0.007941247895359993
1761230805222027800,6.31002783203125,0.003054326167330146,0.006872233934700489,0.01038470957428217
1761230805238809900,6.326809814453125,0.005955935921519995,0.011301007121801376,0.00855211354792118
1761230805255612400,6.3436123046875,0.00427605677396059,0.00855211354792118,0.008399397134780884
1761230805272374500,6.36037451171875,0.002138028386980295,0.005497787147760391,0.005497787147760391
1761230805289187000,6.37718701171875,0.0019853119738399982,-0.0013744467869400978,0.0022907445672899485
1761230805305974800,6.393974853515625,0.0024434609804302454,-0.008704829961061478,0.001527163083665073
1761230805322732500,6.410732666015625,0.00366519158706069,-0.016035212203860283,0.004428773187100887
1761230805339538000,6.427537841796875,0.00366519158706069,-0.009773843921720982,0.004886921960860491
1761230805356327200,6.4443271484375,0.0024434609804302454,-0.001527163083665073,0.0074830991216003895
1761230805373116200,6.4611162109375,0.004428773187100887,0.003817907767370343,0.01542434748262167
1761230805389905400,6.477905517578125,0.005955935921519995,0.0064140851609408855,0.020463986322283745
1761230805406694100,6.494694091796875,0.006108652334660292,0.010690141469240189,0.02076941914856434
1761230805423483600,6.511483642578125,0.006872233934700489,0.0074830991216003895,0.015577063895761967
1761230805440272600,6.528272705078125,0.010690141469240189,0.0024434609804302454,0.011453723534941673
1761230805457049300,6.54504931640625,0.013133603148162365,0.001679879380390048,0.009773843921720982
1761230805473850600,6.5618505859375,0.014355333521962166,0.008704829961061478,0.013133603148162365
1761230805490658000,6.578657958984375,0.01160643994808197,0.019394971430301666,0.019853120669722557
1761230805507411200,6.5954111328125,0.009162978269159794,0.02229658141732216,0.01863138936460018
1761230805524226300,6.612226318359375,0.009773843921720982,0.016340645030140877,0.010690141469240189
1761230805541022700,6.629022705078125,0.007941247895359993,0.007635815534740686,0.010537425056099892
1761230805557806600,6.645806640625,0.005192354787141085,0.00809396430850029,0.012217304669320583
1761230805574603500,6.662603515625,0.004734205547720194,0.011301007121801376,0.01038470957428217
1761230805591384600,6.679384521484375,0.003512475173920393,0.004428773187100887,0.009162978269159794
1761230805608181000,6.696180908203125,0.004428773187100887,-0.00855211354792118,0.00855211354792118
1761230805624967000,6.712966796875,0.004734205547720194,-0.018020525574684143,0.0074830991216003895
1761230805641756700,6.729756591796875,0.007788531947880983,-0.022449297830462456,0.006108652334660292
1761230805658542800,6.74654296875,0.01038470957428217,-0.024892758578062057,0.0012217304902151227
1761230805675335200,6.763335205078125,0.009773843921720982,-0.02229658141732216,-0.004123340360820293
1761230805692107300,6.780107177734375,0.004734205547720194,-0.014966198243200779,-0.005497787147760391
1761230805708913400,6.796913330078125,0.0013744467869400978,-0.013286318629980087,0.0013744467869400978
1761230805725702000,6.813701904296875,0.003359758760780096,-0.0039706239476799965,0.006261368747800589
1761230805742491400,6.830491455078125,0.005497787147760391,0.001527163083665073,0.0012217304902151227
1761230805759282400,6.847282470703125,0.003817907767370343,-0.0013744467869400978,-0.004428773187100887
1761230805776068600,6.864068603515625,-0.001832595793530345,-0.008246680721640587,-0.0012217304902151227
1761230805792852000,6.88085205078125,-0.0029016099870204926,-0.005803219974040985,0.0010690141934901476
1761230805809651700,6.897651611328125,-0.002138028386980295,0.0029016099870204926,0.0010690141934901476
1761230805826419700,6.914419677734375,-0.001527163083665073,0.006261368747800589,0.00015271631127689034
1761230805843212000,6.9312119140625,-0.0029016099870204926,0.0010690141934901476,0.0010690141934901476
1761230805860002000,6.948001953125,-0.005192354787141085,-0.0012217304902151227,-0.0029016099870204926
1761230805876790000,6.9647900390625,-0.00427605677396059,-0.0012217304902151227,-0.001832595793530345
1761230805893584000,6.981583984375,-0.004581489134579897,0.0022907445672899485,0.0019853119738399982
1761230805910358500,6.998358642578125,-0.006108652334660292,0.0065668015740811825,0.003512475173920393
1761230805927160800,7.015160888671875,-0.003817907767370343,0.005803219974040985,0.0027488935738801956
1761230805943947000,7.031947021484375,-0.001832595793530345,-0.003817907767370343,-0.0003054326225537807
1761230805960747000,7.0487470703125,-0.00045814894838258624,-0.012217304669320583,0.0013744467869400978
1761230805977543400,7.06554345703125,-0.0022907445672899485,-0.015577063895761967,-0.0006108652451075613
1761230805994328800,7.082328857421875,-0.003817907767370343,-0.013286318629980087,-0.005803219974040985
1761230806011117800,7.099117919921875,-0.0027488935738801956,-0.010079276748001575,-0.005955935921519995
1761230806027906800,7.11590673828125,0,-0.005192354787141085,-0.004581489134579897
1761230806044694300,7.1326943359375,0.0039706239476799965,-0.0012217304902151227,0.001832595793530345
1761230806061474800,7.149474853515625,0.003817907767370343,-0.0007635815418325365,0.0024434609804302454
1761230806078274300,7.1662744140625,-0.00045814894838258624,-0.005955935921519995,0.00366519158706069
1761230806095061500,7.1830615234375,-0.003512475173920393,-0.010995574295520782,-0.002138028386980295
1761230806111852800,7.199852783203125,-0.004886921960860491,-0.015577063895761967,-0.0074830991216003895
1761230806128641300,7.216641357421875,-0.006261368747800589,-0.018325956538319588,-0.0039706239476799965
1761230806145412000,7.233412109375,-0.0032070425804704428,-0.01572977937757969,-0.003512475173920393
1761230806162205000,7.250204833984375,-0.00015271631127689034,-0.006719517521560192,-0.005803219974040985
1761230806179013000,7.26701318359375,-0.0006108652451075613,-0.003817907767370343,-0.005497787147760391
1761230806195798500,7.283798583984375,-0.0013744467869400978,-0.005497787147760391,-0.002138028386980295
1761230806212587500,7.30058740234375,-0.001679879380390048,-0.003817907767370343,0.00015271631127689034
1761230806229370600,7.31737060546875,-0.004428773187100887,-0.001527163083665073,-0.007788531947880983
1761230806246169600,7.334169677734375,-0.007024950347840786,-0.0039706239476799965,-0.014049900695681572
1761230806262954500,7.35095458984375,-0.009010262787342072,-0.006872233934700489,-0.012064588256180286
1761230806279744300,7.367744140625,-0.006872233934700489,-0.006261368747800589,-0.006108652334660292
1761230806296531200,7.38453125,-0.0064140851609408855,-0.007788531947880983,-0.003817907767370343
1761230806313305600,7.4013056640625,-0.005803219974040985,-0.009010262787342072,-0.0064140851609408855
1761230806330097400,7.418097412109375,-0.0065668015740811825,-0.01466076634824276,-0.00931569468230009
1761230806346873600,7.43487353515625,-0.006719517521560192,-0.020616702735424042,-0.009162978269159794
1761230806363676000,7.451676025390625,-0.0013744467869400978,-0.024587325751781464,-0.010079276748001575
1761230806380465200,7.468465087890625,0.003054326167330146,-0.027183502912521362,-0.009773843921720982
1761230806397254100,7.485254150390625,0.001679879380390048,-0.02886338345706463,-0.009773843921720982
1761230806414041600,7.50204150390625,-0.003054326167330146,-0.032528575509786606,-0.00855211354792118
1761230806430834200,7.518834228515625,-0.007177666760981083,-0.041691552847623825,-0.013133603148162365
1761230806447638800,7.535638671875,-0.009773843921720982,-0.05192354694008827,-0.016340645030140877
1761230806464424700,7.5524248046875,-0.012980886735022068,-0.05772676691412926,-0.017409659922122955
1761230806481209900,7.5692099609375,-0.010842857882380486,-0.05146539583802223,-0.014202617108821869
1761230806498007000,7.586007080078125,-0.009926560334861279,-0.039706241339445114,-0.012217304669320583
1761230806514792000,7.6027919921875,-0.01038470957428217,-0.03634648025035858,-0.012064588256180286
1761230806531566600,7.619566650390625,-0.008857546374201775,-0.03756821155548096,-0.014202617108821869
1761230806548368400,7.636368408203125,-0.005803219974040985,-0.03787364438176155,-0.015271631069481373
1761230806565162500,7.65316259765625,-0.00045814894838258624,-0.03451388701796532,-0.018478672951459885
1761230806581946400,7.6699462890625,0.0006108652451075613,-0.032070424407720566,-0.01771509274840355
1761230806598738200,7.68673828125,0.0003054326225537807,-0.03680463135242462,-0.01618792861700058
1761230806615524900,7.70352490234375,-0.0003054326225537807,-0.035124752670526505,-0.014355333521962166
1761230806632316400,7.72031640625,0.002138028386980295,-0.02535090781748295,-0.009773843921720982
1761230806649105000,7.73710498046875,0.0003054326225537807,-0.01191187184303999,-0.005650503560900688
1761230806665890300,7.753890380859375,-0.005192354787141085,-0.0003054326225537807,-0.00733038317412138
1761230806682685700,7.770685791015625,-0.0074830991216003895,-0.002138028386980295,-0.00733038317412138
1761230806699466500,7.787466552734375,-0.005650503560900688,-0.013286318629980087,-0.010231993161141872
1761230806716261400,7.804261474609375,-0.004886921960860491,-0.01618792861700058,-0.010842857882380486
1761230806733050600,7.821050537109375,-0.004581489134579897,-0.010842857882380486,-0.010995574295520782
1761230806749840400,7.83784033203125,-0.005039638374000788,-0.0019853119738399982,-0.007941247895359993
1761230806766629400,7.85462939453125,-0.007024950347840786,-0.0013744467869400978,-0.006719517521560192
1761230806783418400,7.87141845703125,-0.007024950347840786,-0.00855211354792118,-0.008399397134780884
1761230806800186600,7.8881865234375,-0.005192354787141085,-0.014049900695681572,-0.00809396430850029
1761230806816983800,7.90498388671875,-0.003054326167330146,-0.01771509274840355,-0.010079276748001575
1761230806833772000,7.92177197265625,-0.004123340360820293,-0.018020525574684143,-0.008704829961061478
1761230806850561300,7.938561279296875,-0.0024434609804302454,-0.01038470957428217,-0.0074830991216003895
1761230806867349000,7.955348876953125,-0.0006108652451075613,-0.0064140851609408855,-0.0024434609804302454
1761230806884138200,7.97213818359375,-0.0003054326225537807,-0.0009162978967651725,0.001527163083665073
1761230806900928500,7.988928466796875,-0.0019853119738399982,0.0032070425804704428,0.0003054326225537807
1761230806917704700,8.00570458984375,-0.003817907767370343,0.004123340360820293,-0.00015271631127689034
1761230806934522400,8.0225224609375,-0.003817907767370343,-0.00045814894838258624,-0.0032070425804704428
1761230806951310300,8.039310302734375,-0.004581489134579897,-0.0039706239476799965,-0.003817907767370343
1761230806968099000,8.05609912109375,-0.006261368747800589,-0.0003054326225537807,-0.0022907445672899485
1761230806984888300,8.072888427734375,-0.00366519158706069,0.005803219974040985,0.0012217304902151227
1761230807001676300,8.08967626953125,-0.0027488935738801956,0.008704829961061478,0.007635815534740686
1761230807018466300,8.10646630859375,-0.004428773187100887,0.012217304669320583,0.007635815534740686
1761230807035224600,8.123224609375,-0.007024950347840786,0.011759156361222267,0.007024950347840786
1761230807052044000,8.1400439453125,-0.006261368747800589,0.005039638374000788,0.0032070425804704428
1761230807068835000,8.1568349609375,-0.004428773187100887,0.0012217304902151227,-0.00045814894838258624
1761230807085623000,8.173623046875,-0.001527163083665073,0.0022907445672899485,-0.0019853119738399982
1761230807102413000,8.1904130859375,0.0007635815418325365,0.006261368747800589,0.005039638374000788
1761230807119183600,8.20718359375,0.001832595793530345,0.011453723534941673,0.004428773187100887
1761230807135991000,8.223990966796874,0.0012217304902151227,0.011759156361222267,0.00366519158706069
1761230807152780000,8.240780029296875,-0.0022907445672899485,0.007177666760981083,0.0025961773935705423
1761230807169568800,8.25756884765625,-0.004734205547720194,0.004428773187100887,0.001832595793530345
1761230807186355500,8.27435546875,-0.005192354787141085,0.0010690141934901476,-0.001679879380390048
1761230807203147800,8.291147705078124,-0.003512475173920393,-0.0064140851609408855,-0.005650503560900688
1761230807219935700,8.307935791015625,-0.003817907767370343,-0.00733038317412138,-0.0074830991216003895
1761230807236705800,8.324705810546876,-0.006872233934700489,-0.0010690141934901476,-0.004428773187100887
1761230807253510100,8.34151025390625,-0.0064140851609408855,0.007024950347840786,-0.001832595793530345
1761230807270304000,8.358303955078124,-0.004428773187100887,0.00809396430850029,-0.004428773187100887
1761230807287097300,8.375097412109374,-0.0027488935738801956,0.004123340360820293,-0.00809396430850029
1761230807303865300,8.391865234375,-0.003359758760780096,0.0012217304902151227,-0.005650503560900688
1761230807320657700,8.40865771484375,-0.003054326167330146,0.005650503560900688,-0.002138028386980295
1761230807337446700,8.42544677734375,-0.005650503560900688,0.00809396430850029,-0.004428773187100887
1761230807354236000,8.44223583984375,-0.006719517521560192,0.003054326167330146,-0.006108652334660292
1761230807371024600,8.459024658203125,-0.006261368747800589,-0.00733038317412138,-0.004886921960860491
1761230807387814400,8.475814453125,-0.004123340360820293,-0.008399397134780884,-0.0025961773935705423
1761230807404603100,8.49260302734375,-0.001527163083665073,0.00045814894838258624,-0.0007635815418325365
1761230807421405400,8.509405517578125,-0.002138028386980295,0.008857546374201775,-0.0010690141934901476
1761230807438183200,8.52618310546875,-0.004734205547720194,0.010690141469240189,-0.003359758760780096
1761230807454980000,8.54297998046875,-0.005039638374000788,0.0022907445672899485,-0.004734205547720194
1761230807471777500,8.559777587890625,-0.005039638374000788,-0.005650503560900688,-0.005650503560900688
1761230807488563500,8.5765634765625,-0.005497787147760391,-0.00809396430850029,-0.005650503560900688
1761230807505350000,8.593349853515624,-0.005955935921519995,-0.006719517521560192,-0.005650503560900688
1761230807522143700,8.610143798828124,-0.0065668015740811825,-0.007788531947880983,-0.00733038317412138
1761230807538927900,8.626927978515624,-0.007024950347840786,-0.010842857882380486,-0.004886921960860491
1761230807555719200,8.64371923828125,-0.007177666760981083,-0.0032070425804704428,-0.003512475173920393
1761230807572497000,8.660496826171874,-0.004734205547720194,0.009621127508580685,-0.0007635815418325365
1761230807589295900,8.6772958984375,-0.001832595793530345,0.011759156361222267,-0.001527163083665073
1761230807606088700,8.694088623046875,-0.002138028386980295,0.00733038317412138,-0.005192354787141085
1761230807622876200,8.710876220703126,-0.003817907767370343,0.0029016099870204926,-0.005497787147760391
1761230807639659300,8.7276591796875,-0.005039638374000788,0.0027488935738801956,0.00045814894838258624
1761230807656458500,8.74445849609375,-0.004428773187100887,0.009621127508580685,0.003817907767370343
1761230807673243600,8.76124365234375,-0.006872233934700489,0.015577063895761967,0.0007635815418325365
1761230807690028500,8.778028564453125,-0.009621127508580685,0.010231993161141872,-0.00427605677396059
1761230807706825700,8.79482568359375,-0.009162978269159794,-0.0022907445672899485,-0.010842857882380486
1761230807723611100,8.811611083984374,-0.008704829961061478,-0.011759156361222267,-0.008704829961061478
1761230807740400400,8.828400390625,-0.0074830991216003895,-0.007788531947880983,-0.007177666760981083
1761230807757189000,8.845189208984374,-0.008704829961061478,-0.0010690141934901476,-0.005955935921519995
1761230807773976800,8.861976806640625,-0.009926560334861279,-0.006108652334660292,-0.00809396430850029
1761230807790767600,8.878767578125,-0.01038470957428217,-0.01863138936460018,-0.010690141469240189
1761230807807539700,8.895539794921875,-0.007788531947880983,-0.02779436856508255,-0.013591751456260681
1761230807824321800,8.91232177734375,-0.006261368747800589,-0.028099801391363144,-0.011301007121801376
1761230807841121500,8.92912158203125,-0.006108652334660292,-0.021380282938480377,-0.00855211354792118
1761230807857910300,8.94591015625,-0.00809396430850029,-0.017562376335263252,-0.007941247895359993
1761230807874699500,8.962699462890624,-0.006872233934700489,-0.016340645030140877,-0.008857546374201775
1761230807891488300,8.97948828125,-0.0039706239476799965,-0.021838432177901268,-0.009773843921720982
1761230807908290600,8.99629052734375,-0.0024434609804302454,-0.02168571576476097,-0.00855211354792118
1761230807925085700,9.013085693359375,-0.001527163083665073,-0.011301007121801376,-0.0064140851609408855
1761230807941870000,9.0298701171875,-0.004734205547720194,-0.0012217304902151227,-0.003817907767370343
1761230807958654200,9.046654296875,-0.0039706239476799965,0.006108652334660292,-0.0013744467869400978
1761230807975451100,9.063451171875,-0.00366519158706069,0.004581489134579897,0.00045814894838258624
1761230807992237600,9.080237548828125,-0.0025961773935705423,-0.001679879380390048,0.001679879380390048
1761230808009010000,9.097010009765626,-0.003054326167330146,0.00045814894838258624,0.005497787147760391
1761230808025815600,9.113815673828125,-0.005039638374000788,0.005192354787141085,0.0064140851609408855
1761230808042604800,9.130604736328126,-0.005345070734620094,0.00931569468230009,0.005803219974040985
1761230808059394300,9.147394287109375,0.002138028386980295,0.01237002108246088,0.009926560334861279
1761230808076171000,9.1641708984375,0.005497787147760391,0.009621127508580685,0.01191187184303999
1761230808092967000,9.180966796875,0.004886921960860491,0.009162978269159794,0.010537425056099892
1761230808109765600,9.197765625,0.003817907767370343,0.009926560334861279,0.00855211354792118
1761230808126550800,9.21455078125,0.0029016099870204926,0.006108652334660292,0.0065668015740811825
1761230808143339800,9.23133984375,0.0024434609804302454,-0.0012217304902151227,0.0039706239476799965
1761230808160129500,9.248129638671875,0.001527163083665073,-0.0064140851609408855,0.0019853119738399982
1761230808176918300,9.264918212890626,0.0012217304902151227,-0.011301007121801376,0.0027488935738801956
1761230808193690600,9.281690673828125,-0.00366519158706069,-0.010690141469240189,0.0032070425804704428
1761230808210496800,9.298496826171874,-0.008399397134780884,-0.00931569468230009,-0.0006108652451075613
1761230808227286000,9.3152861328125,-0.007788531947880983,-0.011301007121801376,-0.004734205547720194
1761230808244075800,9.33207568359375,-0.005650503560900688,-0.011759156361222267,-0.004734205547720194
1761230808260860000,9.34885986328125,-0.004886921960860491,-0.008857546374201775,-0.005039638374000788
1761230808277640000,9.365639892578125,-0.0039706239476799965,-0.007177666760981083,-0.004886921960860491
1761230808294425300,9.38242529296875,-0.003817907767370343,-0.00733038317412138,-0.003512475173920393
1761230808311217700,9.3992177734375,-0.003054326167330146,-0.010537425056099892,-0.0024434609804302454
1761230808328001300,9.416001220703125,0.001527163083665073,-0.014202617108821869,-0.003054326167330146
1761230808344801300,9.43280126953125,0.004123340360820293,-0.01878410577774048,-0.003817907767370343
1761230808361568000,9.449568115234374,0.0027488935738801956,-0.014202617108821869,0.001832595793530345
1761230808378374100,9.4663740234375,0.00015271631127689034,0.009468411095440388,0.00733038317412138
1761230808395163400,9.483163330078124,0.0012217304902151227,0.020922135561704636,0.013897184282541275
1761230808411952400,9.499952392578125,0.0027488935738801956,0.015577063895761967,0.01572977937757969
1761230808428741600,9.51674169921875,0.0027488935738801956,0.005497787147760391,0.009162978269159794
1761230808445531000,9.53353076171875,0.005497787147760391,-0.006719517521560192,0.0027488935738801956
1761230808462319600,9.550319580078124,0.008246680721640587,-0.016035212203860283,-0.0022907445672899485
1761230808479109600,9.567109619140625,0.007788531947880983,-0.019394971430301666,0.00015271631127689034
1761230808495916300,9.583916259765624,0.004734205547720194,-0.006719517521560192,0.0013744467869400978
1761230808512701200,9.600701171875,0.001832595793530345,0.007024950347840786,0.0027488935738801956
1761230808529491200,9.6174912109375,-0.0029016099870204926,0.015882495790719986,0.006108652334660292
1761230808546279400,9.634279541015625,-0.008246680721640587,0.020616702735424042,0.007177666760981083
1761230808563055600,9.6510556640625,-0.009621127508580685,0.017409659922122955,0.006261368747800589
1761230808579858000,9.66785791015625,-0.009773843921720982,0.010995574295520782,0.004428773187100887
1761230808596645400,9.684645263671875,-0.006872233934700489,0.00366519158706069,0.004581489134579897
1761230808613432600,9.7014326171875,-0.0019853119738399982,0.005803219974040985,0.0074830991216003895
1761230808630229500,9.7182294921875,0.004123340360820293,0.01572977937757969,0.013286318629980087
1761230808647010300,9.73501025390625,0.009010262787342072,0.027641652151942253,0.016493361443281174
1761230808663788300,9.751788330078124,0.009926560334861279,0.03573561832308769,0.020311269909143448
1761230808680576000,9.768575927734375,0.006719517521560192,0.035124752670526505,0.023365596309304237
1761230808697363000,9.785363037109375,0.0027488935738801956,0.033139441162347794,0.022143865004181862
1761230808714160600,9.80216064453125,-0.0010690141934901476,0.032681290060281754,0.01618792861700058
1761230808730946800,9.81894677734375,-0.001679879380390048,0.02626720629632473,0.01038470957428217
1761230808747735600,9.835735595703126,0.0009162978967651725,0.014355333521962166,0.00855211354792118
1761230808764524800,9.85252490234375,0.00045814894838258624,0.01160643994808197,0.009621127508580685
1761230808781312800,9.869312744140625,-0.0007635815418325365,0.016798794269561768,0.007024950347840786
1761230808798104600,9.8861044921875,-0.0024434609804302454,0.018936822190880775,0.0039706239476799965
1761230808814892300,9.902892333984376,-0.0029016099870204926,0.01114829070866108,0.00015271631127689034
1761230808831681500,9.919681640625,-0.0025961773935705423,-0.0003054326225537807,-0.0024434609804302454
1761230808848470500,9.936470458984376,-0.0006108652451075613,-0.0074830991216003895,-0.0024434609804302454
1761230808865259800,9.953259765625,-0.0009162978967651725,-0.004886921960860491,-0.0029016099870204926
1761230808882044400,9.97004443359375,-0.0012217304902151227,-0.0032070425804704428,-0.0039706239476799965
1761230808898862300,9.9868623046875,-0.0025961773935705423,-0.010537425056099892,-0.005955935921519995
1761230808915636000,10.003635986328124,0.0006108652451075613,-0.01725694350898266,-0.004581489134579897
1761230808932418800,10.020418701171875,0.00427605677396059,-0.018478672951459885,-0.0025961773935705423
1761230808949219000,10.037218994140625,0.0024434609804302454,-0.010995574295520782,-0.0009162978967651725
1761230808965991400,10.053991455078124,-0.00015271631127689034,-0.0064140851609408855,0
1761230808982803500,10.070803466796875,0.001527163083665073,-0.009010262787342072,-0.0010690141934901476
1761230808999586600,10.087586669921874,0.004123340360820293,-0.008704829961061478,-0.00427605677396059
1761230809016375800,10.104375732421875,0.0039706239476799965,-0.013286318629980087,-0.007635815534740686
1761230809033165300,10.121165283203124,-0.0006108652451075613,-0.01038470957428217,-0.009621127508580685
1761230809049952000,10.137951904296875,-0.004428773187100887,-0.006261368747800589,-0.009773843921720982
1761230809066739700,10.15473974609375,-0.0019853119738399982,0.0012217304902151227,-0.007788531947880983
1761230809083536600,10.17153662109375,0.0009162978967651725,0.0019853119738399982,-0.004428773187100887
1761230809100343000,10.188343017578125,0.0012217304902151227,-0.004428773187100887,-0.004123340360820293
1761230809117111000,10.205111083984375,0.0009162978967651725,-0.012980886735022068,-0.00045814894838258624
1761230809133900500,10.221900634765625,-0.00015271631127689034,-0.01664607785642147,-0.003054326167330146
1761230809150688800,10.238688720703125,0.0010690141934901476,-0.013591751456260681,-0.007788531947880983
1761230809167478500,10.255478515625,0.0024434609804302454,-0.01114829070866108,-0.005650503560900688
1761230809184267500,10.272267578125,0.003512475173920393,-0.012522737495601177,0.0003054326225537807
1761230809201056800,10.289056884765625,0.00366519158706069,-0.01038470957428217,0.0019853119738399982
1761230809217845800,10.305845703125,0.004886921960860491,-0.003512475173920393,0.005497787147760391
1761230809234633000,10.322633056640624,0.0025961773935705423,0.0074830991216003895,0.0029016099870204926
1761230809251420200,10.339420166015625,-0.001527163083665073,0.012828170321881771,0
1761230809268200200,10.3562001953125,-0.003512475173920393,0.0065668015740811825,0.003512475173920393
1761230809284975600,10.3729755859375,-0.0025961773935705423,0.004886921960860491,0.008857546374201775
1761230809301777700,10.389777587890626,-0.0003054326225537807,0.00809396430850029,0.009162978269159794
1761230809318567000,10.40656689453125,0.00015271631127689034,0.010231993161141872,0.00366519158706069
1761230809335356200,10.423356201171876,0.0022907445672899485,0.009773843921720982,-0.0007635815418325365
1761230809352145200,10.440145263671875,0.0025961773935705423,0.003359758760780096,-0.002138028386980295
1761230809368933000,10.45693310546875,0.003054326167330146,-0.004734205547720194,-0.0006108652451075613
1761230809385736400,10.473736328125,0.0024434609804302454,-0.007788531947880983,0.004123340360820293
1761230809402530600,10.490530517578126,0.0024434609804302454,-0.0024434609804302454,0.004734205547720194
1761230809419315700,10.507315673828124,0.00045814894838258624,0.005345070734620094,0.0029016099870204926
1761230809436105000,10.52410498046875,0.001832595793530345,0.001527163083665073,0.0010690141934901476
1761230809452894000,10.54089404296875,0.0019853119738399982,-0.005803219974040985,0.0006108652451075613
1761230809469683000,10.557682861328125,0.0024434609804302454,-0.006261368747800589,0.00427605677396059
1761230809486472400,10.574472412109374,0.0013744467869400978,0.0024434609804302454,0.005955935921519995
1761230809503260000,10.591260009765625,0.0003054326225537807,0.005650503560900688,0.005192354787141085
1761230809520051200,10.60805126953125,0.0007635815418325365,0.004734205547720194,0.0039706239476799965
1761230809536839700,10.624839599609375,0.003359758760780096,0.005803219974040985,0.0024434609804302454
1761230809553628200,10.641628173828124,0.0027488935738801956,0.009468411095440388,0.00366519158706069
1761230809570418700,10.658418701171875,-0.0006108652451075613,0.012522737495601177,0.005497787147760391
1761230809587207400,10.67520751953125,-0.004734205547720194,0.012828170321881771,0.0012217304902151227
1761230809603980300,10.691980224609376,-0.005039638374000788,0.01237002108246088,0.0012217304902151227
1761230809620769000,10.70876904296875,-0.003054326167330146,0.01237002108246088,0.005497787147760391
1761230809637587700,10.725587646484374,-0.0013744467869400978,0.012522737495601177,0.006108652334660292
1761230809654364400,10.742364501953125,0.0010690141934901476,0.00931569468230009,0.002138028386980295
1761230809671153200,10.759153076171875,0.0010690141934901476,0.005650503560900688,-0.00015271631127689034
1761230809687940000,10.775940185546874,-0.0010690141934901476,0.005497787147760391,0.0013744467869400978
1761230809704732000,10.79273193359375,-0.002138028386980295,0.00931569468230009,0.003817907767370343
1761230809721521200,10.809521240234375,0.0007635815418325365,0.010842857882380486,0.005345070734620094
1761230809738309600,10.8263095703125,0.0012217304902151227,0.0074830991216003895,0.0039706239476799965
1761230809763481300,10.8514814453125,-0.0012217304902151227,-0.0022907445672899485,0.00045814894838258624
1761230809780249600,10.86824951171875,-0.002138028386980295,-0.003512475173920393,-0.0007635815418325365
1761230809797062000,10.885061767578126,-0.0003054326225537807,-0.003359758760780096,-0.0027488935738801956
1761230809813847800,10.901847900390624,0.001527163083665073,-0.003054326167330146,0.0010690141934901476
1761230809830637600,10.918637451171875,0.0024434609804302454,0.0039706239476799965,0.007177666760981083
1761230809847425800,10.93542578125,0.00045814894838258624,0.012675453908741474,0.005803219974040985
1761230809864216000,10.952216064453125,0.00015271631127689034,0.01725694350898266,0.0029016099870204926
1761230809881022000,10.96902197265625,-0.0012217304902151227,0.01191187184303999,-0.001679879380390048
1761230809897807600,10.9858076171875,-0.0025961773935705423,0.0012217304902151227,-0.003054326167330146
1761230809914602000,11.00260205078125,-0.0003054326225537807,-0.006108652334660292,-0.0006108652451075613
1761230809931379700,11.019379638671875,0.0010690141934901476,-0.005803219974040985,0.0007635815418325365
1761230809948175600,11.036175537109376,0,-0.0025961773935705423,-0.00015271631127689034
1761230809964975400,11.052975341796875,-0.0007635815418325365,-0.0032070425804704428,0.0009162978967651725
1761230809981750800,11.069750732421875,0.00045814894838258624,-0.0064140851609408855,0.001679879380390048
1761230809998539800,11.086539794921874,0.0027488935738801956,-0.007788531947880983,0.004123340360820293
1761230810015337000,11.1033369140625,0.0024434609804302454,-0.0022907445672899485,0.005955935921519995
1761230810032120800,11.120120849609375,0.001527163083665073,0.003512475173920393,0.001527163083665073
1761230810048892400,11.136892333984376,0.0003054326225537807,-0.002138028386980295,-0.001679879380390048
1761230810065697300,11.153697265625,-0.0009162978967651725,-0.006719517521560192,-0.0025961773935705423
1761230810082488800,11.17048876953125,-0.0024434609804302454,-0.004123340360820293,-0.0019853119738399982
1761230810099298000,11.187298095703126,-0.003512475173920393,0.0019853119738399982,-0.0029016099870204926
1761230810116069400,11.2040693359375,-0.004886921960860491,0.003512475173920393,-0.0027488935738801956
1761230810132855800,11.220855712890625,-0.0032070425804704428,0.004428773187100887,-0.003054326167330146
1761230810149645300,11.237645263671874,-0.001832595793530345,0.003512475173920393,-0.0003054326225537807
1761230810166434300,11.254434326171875,-0.00015271631127689034,-0.0009162978967651725,-0.0009162978967651725
1761230810183222300,11.27122216796875,0.0010690141934901476,-0.0027488935738801956,-0.0032070425804704428
1761230810200010500,11.288010498046875,-0.0019853119738399982,-0.005650503560900688,-0.0027488935738801956
1761230810216802300,11.30480224609375,-0.0006108652451075613,0.001832595793530345,0.0012217304902151227
1761230810233588000,11.321587890625,-0.00015271631127689034,0.010231993161141872,0.004886921960860491
1761230810250365000,11.338364990234375,-0.00015271631127689034,0.010231993161141872,0.0039706239476799965
1761230810267155700,11.35515576171875,-0.00015271631127689034,0.0010690141934901476,0.0019853119738399982
1761230810283944700,11.37194482421875,-0.003359758760780096,-0.0074830991216003895,0.0003054326225537807
1761230810300713200,11.388713134765625,-0.001679879380390048,-0.005345070734620094,0.0022907445672899485
1761230810317522000,11.40552197265625,-0.0019853119738399982,0.0029016099870204926,0.0027488935738801956
1761230810334312000,11.42231201171875,-0.001832595793530345,0.00733038317412138,0
1761230810351101400,11.439101318359375,-0.0007635815418325365,0.00366519158706069,0
1761230810367898400,11.4558984375,0.0010690141934901476,-0.0012217304902151227,0.00015271631127689034
1761230810384693800,11.47269384765625,0.0022907445672899485,-0.0019853119738399982,-0.00015271631127689034
1761230810401483800,11.48948388671875,0.0010690141934901476,-0.00045814894838258624,-0.0013744467869400978
1761230810418271700,11.506271728515625,-0.0003054326225537807,0.0022907445672899485,-0.0024434609804302454
1761230810435061000,11.52306103515625,-0.0009162978967651725,0.00045814894838258624,-0.001527163083665073
1761230810451848700,11.5398486328125,0.0006108652451075613,0.00427605677396059,0.0027488935738801956
1761230810468639700,11.5566396484375,0.0024434609804302454,0.007177666760981083,0.0064140851609408855
1761230810485428200,11.57342822265625,0.00015271631127689034,0.002138028386980295,0.00733038317412138
1761230810502196700,11.59019677734375,-0.00015271631127689034,-0.003817907767370343,0.004428773187100887
1761230810519008000,11.607008056640625,-0.0009162978967651725,-0.01160643994808197,-0.0010690141934901476
1761230810535796200,11.623796142578126,-0.0003054326225537807,-0.017562376335263252,-0.0012217304902151227
1761230810552585200,11.640585205078125,0.002138028386980295,-0.010231993161141872,-0.0025961773935705423
1761230810569371100,11.65737109375,0.003512475173920393,0.00045814894838258624,-0.00366519158706069
1761230810586162700,11.67416259765625,0.00427605677396059,0.009926560334861279,-0.0024434609804302454
1761230810602952400,11.690952392578126,0.004734205547720194,0.010231993161141872,-0.002138028386980295
1761230810619737900,11.70773779296875,0.003817907767370343,0.003054326167330146,-0.006719517521560192
1761230810636534500,11.724534423828125,0.001527163083665073,-0.003817907767370343,-0.010537425056099892
1761230810653317400,11.7413173828125,-0.0010690141934901476,-0.010231993161141872,-0.012522737495601177
1761230810670110500,11.7581103515625,-0.0010690141934901476,-0.01725694350898266,-0.01237002108246088
1761230810686896600,11.774896728515625,-0.002138028386980295,-0.02367102913558483,-0.007788531947880983
1761230810703687000,11.79168701171875,-0.0029016099870204926,-0.023060163483023643,-0.004886921960860491
1761230810720472600,11.80847265625,-0.0025961773935705423,-0.02382374368607998,-0.0065668015740811825
1761230810737251800,11.825251953125,0.00045814894838258624,-0.023365596309304237,-0.009468411095440388
1761230810754041300,11.842041259765624,0.003359758760780096,-0.015118914656341076,-0.005803219974040985
1761230810770830000,11.858830078125,0.0027488935738801956,-0.003054326167330146,-0.00366519158706069
1761230810787618800,11.875618896484376,-0.0025961773935705423,0.005955935921519995,-0.002138028386980295
1761230810804405500,11.892405517578124,-0.005039638374000788,0.014355333521962166,0.0006108652451075613
1761230810821200600,11.90920068359375,-0.005039638374000788,0.016340645030140877,0.005192354787141085
1761230810837985800,11.92598583984375,-0.00366519158706069,0.016340645030140877,0.007024950347840786
1761230810854775000,11.942775146484376,-0.003054326167330146,0.015271631069481373,0.003512475173920393
1761230810871569400,11.9595693359375,-0.001679879380390048,0.013897184282541275,0.0019853119738399982
1761230810888368400,11.976368408203125,0.0009162978967651725,0.009773843921720982,0.00366519158706069
1761230810905152800,11.99315283203125,0.003054326167330146,0.005955935921519995,0.0065668015740811825
1761230810921976800,12.009976806640625,0.0013744467869400978,0.006872233934700489,0.00931569468230009
1761230810938735900,12.02673583984375,0.00015271631127689034,0.009468411095440388,0.005039638374000788
1761230810955524900,12.04352490234375,-0.0025961773935705423,0.006872233934700489,0.0007635815418325365
1761230810972308500,12.06030859375,-0.003817907767370343,0.0029016099870204926,-0.0019853119738399982
1761230810989102000,12.07710205078125,-0.00045814894838258624,-0.004581489134579897,-0.0025961773935705423
1761230811005880300,12.09388037109375,0.002138028386980295,-0.011453723534941673,-0.0007635815418325365
1761230811022680800,12.110680908203125,0.0012217304902151227,-0.012828170321881771,0
1761230811039467300,12.12746728515625,-0.00015271631127689034,-0.005192354787141085,-0.003054326167330146
1761230811056263200,12.14426318359375,0.00045814894838258624,-0.003359758760780096,-0.005803219974040985
1761230811073032400,12.161032470703125,0.0039706239476799965,-0.0074830991216003895,-0.004428773187100887
1761230811089834000,12.177833984375,0.005650503560900688,-0.011453723534941673,-0.0019853119738399982
1761230811106631200,12.194631103515626,0.003817907767370343,-0.005803219974040985,0.0013744467869400978
1761230811123415300,12.211415283203126,0.0025961773935705423,0.0010690141934901476,0.0012217304902151227
1761230811140197600,12.22819775390625,0.00045814894838258624,-0.003359758760780096,-0.001832595793530345
1761230811157000700,12.245000732421875,0.0003054326225537807,-0.010690141469240189,-0.007177666760981083
1761230811173784300,12.261784423828125,-0.001527163083665073,-0.012064588256180286,-0.0039706239476799965
1761230811190568200,12.278568115234375,-0.0003054326225537807,-0.0019853119738399982,0.0009162978967651725
1761230811207359500,12.295359375,-0.00015271631127689034,0.0074830991216003895,0.001679879380390048
1761230811224137200,12.31213720703125,-0.0013744467869400978,0.00809396430850029,-0.0029016099870204926
1761230811240930000,12.328929931640625,-0.0029016099870204926,0.0012217304902151227,-0.004428773187100887
1761230811257715000,12.34571484375,-0.001832595793530345,-0.0027488935738801956,-0.003512475173920393
1761230811274505200,12.362505126953126,-0.0003054326225537807,-0.0013744467869400978,-0.0025961773935705423
1761230811291281200,12.37928125,0.004428773187100887,0.003054326167330146,-0.002138028386980295
1761230811308083500,12.39608349609375,0.0029016099870204926,0.006108652334660292,-0.00045814894838258624
1761230811324872000,12.412871826171875,0,0.0065668015740811825,-0.0003054326225537807
1761230811341661400,12.429661376953124,0.0009162978967651725,0.01191187184303999,0.001679879380390048
1761230811358451500,12.446451416015625,0.0012217304902151227,0.009621127508580685,0.0022907445672899485
1761230811375252500,12.46325244140625,0.001527163083665073,0.0029016099870204926,0.00045814894838258624
1761230811392054500,12.480054443359375,0.001832595793530345,-0.0007635815418325365,-0.0006108652451075613
1761230811408832000,12.49683203125,0.0012217304902151227,0.0024434609804302454,-0.0003054326225537807
1761230811425621500,12.51362158203125,0.0007635815418325365,-0.0010690141934901476,-0.0032070425804704428
1761230811442410500,12.530410400390625,0.002138028386980295,-0.008399397134780884,-0.005039638374000788
1761230811459194400,12.5471943359375,0.0012217304902151227,-0.005955935921519995,-0.0024434609804302454
1761230811475990800,12.56399072265625,-0.003054326167330146,0.004734205547720194,-0.0029016099870204926
1761230811492780800,12.58078076171875,-0.007177666760981083,0.011453723534941673,-0.005497787147760391
1761230811509560300,12.597560302734376,-0.009926560334861279,0.004428773187100887,-0.006108652334660292
1761230811526355200,12.614355224609374,-0.008246680721640587,-0.00427605677396059,-0.010231993161141872
1761230811543151600,12.631151611328125,-0.004581489134579897,-0.009162978269159794,-0.010842857882380486
1761230811559963100,12.647963134765625,-0.003512475173920393,-0.009010262787342072,-0.010231993161141872
1761230811576724000,12.664723876953126,-0.00427605677396059,-0.009468411095440388,-0.01191187184303999
1761230811593507800,12.6815078125,-0.005803219974040985,-0.00733038317412138,-0.006872233934700489
1761230811610306300,12.698306396484375,-0.002138028386980295,-0.0007635815418325365,-0.003817907767370343
1761230811627074600,12.715074462890625,0.0029016099870204926,0.0039706239476799965,-0.0006108652451075613
1761230811643880400,12.73188037109375,0.0027488935738801956,-0.0029016099870204926,-0.001679879380390048
1761230811660664800,12.748664794921876,0.0003054326225537807,-0.012675453908741474,-0.007788531947880983
1761230811677463000,12.765463134765625,-0.0009162978967651725,-0.014966198243200779,-0.010537425056099892
1761230811694230500,12.78223046875,-0.0006108652451075613,-0.013133603148162365,-0.010690141469240189
1761230811711023400,12.7990234375,-0.0006108652451075613,-0.006719517521560192,-0.0064140851609408855
1761230811727807700,12.815807861328125,-0.00015271631127689034,0.004123340360820293,-0.0039706239476799965
1761230811744605400,12.83260546875,-0.003359758760780096,0.007177666760981083,-0.0007635815418325365
1761230811761390600,12.849390625,-0.005039638374000788,0.006872233934700489,-0.001832595793530345
1761230811778177000,12.866177001953124,-0.005650503560900688,0.007635815534740686,-0.004581489134579897
1761230811794969600,12.882969482421874,-0.006719517521560192,0.0039706239476799965,-0.004123340360820293
1761230811811758800,12.8997587890625,-0.006261368747800589,0.001527163083665073,-0.004886921960860491
1761230811828547600,12.916547607421874,-0.0029016099870204926,0.0032070425804704428,-0.0032070425804704428
1761230811845336800,12.9333369140625,-0.001832595793530345,0.004886921960860491,-0.0022907445672899485
1761230811862127400,12.95012744140625,-0.002138028386980295,0.00931569468230009,-0.0010690141934901476
1761230811878912500,12.96691259765625,-0.0013744467869400978,0.01160643994808197,-0.0032070425804704428
1761230811895701500,12.983701416015625,-0.0012217304902151227,0.0064140851609408855,-0.003359758760780096
1761230811912481000,13.00048095703125,-0.0022907445672899485,-0.0012217304902151227,0.0006108652451075613
1761230811929278700,13.01727880859375,-0.005803219974040985,-0.00015271631127689034,-0.0007635815418325365
1761230811946075000,13.034074951171876,-0.0064140851609408855,-0.0009162978967651725,-0.0064140851609408855
1761230811962860800,13.05086083984375,-0.004428773187100887,-0.005345070734620094,-0.009773843921720982
1761230811979650000,13.067650146484375,-0.0039706239476799965,-0.001832595793530345,-0.00855211354792118
1761230811996438300,13.084438232421874,-0.005039638374000788,0.008399397134780884,-0.004428773187100887
1761230812013213200,13.101213134765626,-0.003817907767370343,0.016035212203860283,-0.003054326167330146
1761230812030017800,13.118017822265625,-0.005650503560900688,0.010690141469240189,-0.0013744467869400978
1761230812046788600,13.13478857421875,-0.006719517521560192,-0.0013744467869400978,-0.005345070734620094
1761230812063606500,13.1516064453125,-0.005497787147760391,-0.010690141469240189,-0.005039638374000788
1761230812080398600,13.168398681640625,-0.00427605677396059,-0.013133603148162365,-0.006872233934700489
1761230812097170200,13.185170166015626,-0.001679879380390048,-0.009468411095440388,-0.007941247895359993
1761230812113977900,13.201977783203125,-0.002138028386980295,-0.006108652334660292,-0.007788531947880983
1761230812130765800,13.218765869140626,-0.003359758760780096,-0.009468411095440388,-0.0064140851609408855
1761230812147551200,13.23555126953125,-0.0022907445672899485,-0.008704829961061478,-0.0032070425804704428
1761230812164349000,13.252348876953125,-0.0013744467869400978,-0.004581489134579897,-0.001527163083665073
1761230812181128400,13.26912841796875,-0.002138028386980295,0.0009162978967651725,-0.003054326167330146
1761230812197895200,13.285895263671875,-0.005497787147760391,0.0007635815418325365,-0.00366519158706069
1761230812214698200,13.3026982421875,-0.007788531947880983,-0.00045814894838258624,-0.0024434609804302454
1761230812231487500,13.319487548828125,-0.005650503560900688,0.0024434609804302454,-0.005345070734620094
1761230812248275500,13.336275390625,-0.005039638374000788,0.0019853119738399982,-0.004886921960860491
1761230812265064700,13.353064697265625,-0.004734205547720194,0.0007635815418325365,-0.004581489134579897
1761230812281855000,13.36985498046875,-0.005039638374000788,0.0022907445672899485,-0.00366519158706069
1761230812298644200,13.386644287109375,-0.005039638374000788,0.003054326167330146,-0.003054326167330146
1761230812315433500,13.40343359375,-0.006108652334660292,0.00015271631127689034,-0.003512475173920393
1761230812332221700,13.4202216796875,-0.005497787147760391,-0.001679879380390048,-0.0022907445672899485
1761230812349011700,13.43701171875,-0.003512475173920393,-0.0010690141934901476,-0.0024434609804302454
1761230812365818000,13.453818115234375,-0.003817907767370343,0.001527163083665073,-0.003512475173920393
1761230812382587000,13.4705869140625,-0.00366519158706069,0.001679879380390048,-0.003359758760780096
1761230812399366100,13.4873662109375,-0.004581489134579897,-0.0003054326225537807,-0.0029016099870204926
1761230812416182300,13.504182373046875,-0.005039638374000788,-0.0012217304902151227,-0.003512475173920393
1761230812432970800,13.520970703125,-0.005039638374000788,0.006261368747800589,-0.003512475173920393
1761230812449760800,13.5377607421875,-0.004734205547720194,0.009162978269159794,-0.001832595793530345
1761230812466548500,13.554548583984374,-0.0025961773935705423,0.0029016099870204926,-0.001527163083665073
1761230812483339000,13.571339111328125,-0.004428773187100887,-0.0013744467869400978,-0.0032070425804704428
1761230812500126200,13.588126220703124,-0.005039638374000788,-0.0003054326225537807,-0.005345070734620094
1761230812516908300,13.604908203125,-0.004581489134579897,0.0013744467869400978,-0.0065668015740811825
1761230812533689000,13.621689208984375,-0.00733038317412138,0.003817907767370343,-0.005955935921519995
1761230812550495500,13.63849560546875,-0.005497787147760391,0.005650503560900688,-0.007788531947880983
1761230812567282200,13.6552822265625,-0.005039638374000788,0.0029016099870204926,-0.006719517521560192
1761230812584075500,13.672075439453126,-0.005345070734620094,-0.0027488935738801956,-0.009162978269159794
1761230812600859100,13.688859130859376,-0.007177666760981083,-0.007941247895359993,-0.010995574295520782
1761230812617655300,13.7056552734375,-0.0074830991216003895,-0.007177666760981083,-0.011759156361222267
1761230812634441200,13.722441162109375,-0.005650503560900688,-0.010690141469240189,-0.00855211354792118
1761230812651230200,13.739230224609376,0,-0.008704829961061478,0.0032070425804704428
1761230812668015900,13.756015869140626,0.0024434609804302454,-0.003817907767370343,0.006261368747800589
1761230812684795000,13.772794921875,0.0013744467869400978,0.0019853119738399982,-0.002138028386980295
1761230812701584400,13.78958447265625,-0.0019853119738399982,0.0003054326225537807,-0.006872233934700489
1761230812718373000,13.806373046875,-0.0039706239476799965,-0.00015271631127689034,-0.0039706239476799965
1761230812735161300,13.823161376953125,-0.003817907767370343,0.005039638374000788,-0.002138028386980295
1761230812751951600,13.83995166015625,-0.005192354787141085,0.010537425056099892,-0.00045814894838258624
