time,seconds_elapsed,z,y,x
1761401360440002000,0.114001953125,0.680701494216919,-9.352873802185059,-2.5731682777404785
1761401360450081000,0.1240810546875,0.7003788352012634,-9.377190589904785,-2.564788579940796
1761401360460162600,0.13416259765625,0.6994810104370117,-9.407865524291992,-2.5357589721679688
1761401360470243600,0.14424365234375,0.6931962370872498,-9.3991117477417,-2.5260324478149414
1761401360480324000,0.154323974609375,0.6815993189811707,-9.387290954589844,-2.5166800022125244
1761401360490404900,0.16440478515625,0.6886322498321533,-9.37980842590332,-2.5249102115631104
1761401360500501200,0.174501220703125,0.6813748478889465,-9.411307334899902,-2.55768084526062
1761401360510592300,0.18459228515625,0.673069953918457,-9.432406425476074,-2.558952808380127
1761401360520660200,0.19466015625,0.7224503755569458,-9.410859107971191,-2.5095722675323486
1761401360530748200,0.204748046875,0.7124994397163391,-9.383849143981934,-2.457423686981201
1761401360540824600,0.214824462890625,0.7064391374588013,-9.351752281188965,-2.4338557720184326
1761401360550914600,0.22491455078125,0.7364414930343628,-9.343072891235352,-2.4361002445220947
1761401360560983800,0.23498388671875,0.7277625203132629,-9.362750053405762,-2.476128339767456
1761401360571076400,0.245076416015625,0.7449707984924316,-9.388711929321289,-2.542567491531372
1761401360581157000,0.2551572265625,0.7733271718025208,-9.441683769226074,-2.5986814498901367
1761401360591227100,0.26522705078125,0.7820809483528137,-9.461585998535156,-2.641028881072998
1761401360601321000,0.275321044921875,0.7587375044822693,-9.428665161132812,-2.6599581241607666
1761401360611399400,0.2853994140625,0.7618050575256348,-9.3921537399292,-2.6366894245147705
1761401360621481700,0.295481689453125,0.7304559946060181,-9.375469207763672,-2.6140942573547363
1761401360631541800,0.305541748046875,0.7129483819007874,-9.373823165893555,-2.5807249546051025
1761401360641644300,0.315644287109375,0.7008277177810669,-9.35661506652832,-2.5906009674072266
1761401360651724800,0.325724853515625,0.6630442142486572,-9.343372344970703,-2.6202292442321777
1761401360661794800,0.335794921875,0.6521207094192505,-9.342549324035645,-2.681206703186035
1761401360671885300,0.34588525390625,0.6391022205352783,-9.309703826904297,-2.7189900875091553
1761401360681959400,0.35595947265625,0.6195744872093201,-9.280823707580566,-2.730138063430786
1761401360692037400,0.366037353515625,0.6189011335372925,-9.269451141357422,-2.7305870056152344
1761401360702129400,0.37612939453125,0.6451625227928162,-9.278504371643066,-2.697143077850342
1761401360712199000,0.386198974609375,0.6813748478889465,-9.340753555297852,-2.681879997253418
1761401360722280200,0.3962802734375,0.71766197681427,-9.376891136169434,-2.6449942588806152
1761401360732362000,0.406362060546875,0.7493851184844971,-9.404349327087402,-2.62127685546875
1761401360742454300,0.416454345703125,0.7728782296180725,-9.397541046142578,-2.5725696086883545
1761401360752523000,0.42652294921875,0.7641244530677795,-9.38549518585205,-2.522815227508545
1761401360762623000,0.436623046875,0.7398083209991455,-9.39020824432373,-2.480841875076294
1761401360772697300,0.446697265625,0.727837324142456,-9.42335319519043,-2.465728521347046
1761401360782767600,0.456767578125,0.6957400441169739,-9.461585998535156,-2.4730606079101562
1761401360792847400,0.466847412109375,0.6541407704353333,-9.44534969329834,-2.528127431869507
1761401360802929000,0.476928955078125,0.617030680179596,-9.369708061218262,-2.5942671298980713
1761401360813004800,0.4870048828125,0.6058826446533203,-9.29301929473877,-2.6833763122558594
1761401360823093500,0.497093505859375,0.5984756350517273,-9.269001960754395,-2.74308180809021
1761401360833183200,0.507183349609375,0.5903951525688171,-9.276782989501953,-2.7793688774108887
1761401360843264500,0.517264404296875,0.5805938839912415,-9.296759605407715,-2.797924041748047
1761401360853333800,0.527333740234375,0.60184246301651,-9.306711196899414,-2.8314428329467773
1761401360863416800,0.537416748046875,0.5841852426528931,-9.329156875610352,-2.8687026500701904
1761401360873495600,0.54749560546875,0.5645078420639038,-9.347187995910645,-2.905064582824707
1761401360883589000,0.557589111328125,0.5445312261581421,-9.34037971496582,-2.8821699619293213
1761401360893669600,0.567669677734375,0.5198410153388977,-9.318382263183594,-2.7840075492858887
1761401360903742500,0.577742431640625,0.5202151536941528,-9.332897186279297,-2.6157400608062744
1761401360913822000,0.587822021484375,0.5015104413032532,-9.32085132598877,-2.449866771697998
1761401360923901400,0.5979013671875,0.50510174036026,-9.354669570922852,-2.3570168018341064
1761401360933994000,0.607993896484375,0.5290437340736389,-9.43135929107666,-2.357839822769165
1761401360944074200,0.61807421875,0.5452794432640076,-9.475052833557129,-2.4016835689544678
1761401360954153200,0.6281533203125,0.510189414024353,-9.491962432861328,-2.47792387008667
1761401360964236800,0.63823681640625,0.4918588101863861,-9.475427627563477,-2.5558102130889893
1761401360974309000,0.64830908203125,0.5007622241973877,-9.427693367004395,-2.564040422439575
1761401360984389000,0.65838916015625,0.4472668170928955,-9.354445457458496,-2.5481040477752686
1761401360994468600,0.668468505859375,0.3916016221046448,-9.27603530883789,-2.5415947437286377
1761401361004543700,0.678543701171875,0.38052842020988464,-9.218424797058105,-2.6408793926239014
1761401361014619000,0.688618896484375,0.378433495759964,-9.221866607666016,-2.79089093208313
1761401361024706800,0.698706787109375,0.3544915020465851,-9.234809875488281,-2.9261634349823
1761401361034804000,0.708803955078125,0.380378782749176,-9.249025344848633,-2.9823522567749023
1761401361044874000,0.7188740234375,0.4314052164554596,-9.255983352661133,-2.957512378692627
1761401361054945800,0.72894580078125,0.49066171050071716,-9.247454643249512,-2.9217491149902344
1761401361065035500,0.739035400390625,0.5233575105667114,-9.213112831115723,-2.9273605346679688
1761401361075134700,0.749134765625,0.547075092792511,-9.191938400268555,-2.9665656089782715
1761401361085209000,0.759208984375,0.5335328578948975,-9.190217971801758,-3.0374937057495117
1761401361095280000,0.769280029296875,0.5449053645133972,-9.19283676147461,-3.0882208347320557
1761401361105362000,0.77936181640625,0.5613654851913452,-9.23795223236084,-3.071611166000366
1761401361115434200,0.789434326171875,0.5813421010971069,-9.304915428161621,-2.978536605834961
1761401361125522200,0.799522216796875,0.5957821011543274,-9.352724075317383,-2.8697500228881836
1761401361135615000,0.809614990234375,0.6240636110305786,-9.379958152770996,-2.7579708099365234
1761401361145689000,0.819689208984375,0.6121674180030823,-9.383026123046875,-2.6915316581726074
1761401361155776300,0.8297763671875,0.5965303182601929,-9.40247917175293,-2.5977089405059814
1761401361165846500,0.839846435546875,0.5777508020401001,-9.440262794494629,-2.4688708782196045
1761401361175937300,0.849937255859375,0.5665279626846313,-9.530718803405762,-2.321178436279297
1761401361186018600,0.8600185546875,0.5837363004684448,-9.591546058654785,-2.1768531799316406
1761401361196098300,0.870098388671875,0.580145001411438,-9.610549926757812,-2.071059226989746
1761401361206169900,0.880169921875,0.5410895943641663,-9.590872764587402,-2.02616810798645
1761401361216263200,0.89026318359375,0.4808604419231415,-9.562142372131348,-2.047117233276367
1761401361226343400,0.900343505859375,0.45519760251045227,-9.579276084899902,-2.1017351150512695
1761401361236414000,0.9104140625,0.44352585077285767,-9.59057331085205,-2.121936082839966
1761401361246499600,0.92049951171875,0.44606971740722656,-9.599776268005371,-2.0952258110046387
1761401361256564000,0.93056396484375,0.4861725866794586,-9.57553482055664,-2.027963638305664
1761401361266667500,0.94066748046875,0.5092915892601013,-9.538799285888672,-1.9713258743286133
1761401361276748500,0.95074853515625,0.4944026470184326,-9.49121379852295,-2.008211612701416
1761401361286829600,0.96082958984375,0.4868459403514862,-9.455974578857422,-2.1226093769073486
1761401361296902100,0.970902099609375,0.49956515431404114,-9.403002738952637,-2.2531683444976807
1761401361306976500,0.9809765625,0.5270984768867493,-9.363648414611816,-2.38230562210083
1761401361317072600,0.99107275390625,0.555978536605835,-9.359308242797852,-2.4758291244506836
1761401361327134500,1.001134521484375,0.5642834305763245,-9.395371437072754,-2.525733232498169
1761401361337224700,1.011224609375,0.5787234306335449,-9.408390045166016,-2.571671962738037
1761401361347316200,1.021316162109375,0.5761796236038208,-9.398887634277344,-2.6081087589263916
1761401361357387800,1.0313876953125,0.607977569103241,-9.34965705871582,-2.6700587272644043
1761401361367484400,1.041484375,0.6264578104019165,-9.334918022155762,-2.7130045890808105
1761401361377557800,1.051557861328125,0.6796540021896362,-9.347711563110352,-2.750488758087158
1761401361387640800,1.061640869140625,0.6776338815689087,-9.371429443359375,-2.744278907775879
1761401361397706000,1.0717060546875,0.6486790180206299,-9.396044731140137,-2.6791865825653076
1761401361407792400,1.08179248046875,0.5752817988395691,-9.389310836791992,-2.5837924480438232
1761401361417883100,1.091883056640625,0.5252280235290527,-9.393575668334961,-2.507477283477783
1761401361427960000,1.1019599609375,0.5059995651245117,-9.405396461486816,-2.4442555904388428
1761401361438057500,1.112057373046875,0.5119102597236633,-9.44063663482666,-2.4090158939361572
1761401361448118300,1.1221181640625,0.4777180552482605,-9.438691139221191,-2.378340005874634
1761401361458213400,1.13221337890625,0.4957493841648102,-9.412055969238281,-2.359710216522217
1761401361468288500,1.14228857421875,0.5039046406745911,-9.423203468322754,-2.3569419384002686
1761401361478361000,1.152361083984375,0.5206640362739563,-9.465925216674805,-2.3719804286956787
1761401361488450600,1.162450439453125,0.5523872375488281,-9.470937728881836,-2.3681647777557373
1761401361498531300,1.17253125,0.555828869342804,-9.459416389465332,-2.312350034713745
1761401361508601000,1.18260107421875,0.5796960592269897,-9.449166297912598,-2.2364089488983154
1761401361518693400,1.192693359375,0.6340893507003784,-9.46839427947998,-2.1821651458740234
1761401361528774100,1.202774169921875,0.6607248783111572,-9.491812705993652,-2.1455039978027344
1761401361538834000,1.212833984375,0.6949170231819153,-9.542165756225586,-2.1279215812683105
1761401361548937000,1.22293701171875,0.6952911615371704,-9.608230590820312,-2.1267244815826416
1761401361559017500,1.233017578125,0.7083844542503357,-9.600898742675781,-2.1122844219207764
1761401361569098200,1.24309814453125,0.7327753305435181,-9.533336639404297,-2.1277718544006348
1761401361579159000,1.253158935546875,0.7270891070365906,-9.480440139770508,-2.1622633934020996
1761401361589261000,1.263260986328125,0.7013514637947083,-9.43719482421875,-2.2503252029418945
1761401361599331300,1.273331298828125,0.6661118268966675,-9.411606788635254,-2.3313539028167725
1761401361609411000,1.2834111328125,0.6422445774078369,-9.412130355834961,-2.383427858352661
1761401361619503600,1.293503662109375,0.6154595017433167,-9.398438453674316,-2.3942766189575195
1761401361629585000,1.3035849609375,0.5949591398239136,-9.35773754119873,-2.432583808898926
1761401361639666000,1.313666015625,0.5662286877632141,-9.303119659423828,-2.488997220993042
1761401361649750800,1.323750732421875,0.5490952134132385,-9.270947456359863,-2.5779566764831543
1761401361659817500,1.3338173828125,0.5440075397491455,-9.252840995788574,-2.6401309967041016
1761401361669909500,1.343909423828125,0.5492448210716248,-9.256133079528809,-2.698115587234497
1761401361679990300,1.353990234375,0.5835866928100586,-9.276334762573242,-2.7024552822113037
1761401361690071000,1.364071044921875,0.632443368434906,-9.278953552246094,-2.6674399375915527
1761401361700141300,1.374141357421875,0.6731447577476501,-9.258452415466309,-2.677091598510742
1761401361710221300,1.38422119140625,0.6971616148948669,-9.21520709991455,-2.672602415084839
1761401361720315100,1.394315185546875,0.7286603450775146,-9.201066970825195,-2.67140531539917
1761401361730385200,1.40438525390625,0.7796119451522827,-9.22867488861084,-2.697143077850342
1761401361740477000,1.414476806640625,0.8093149662017822,-9.27685832977295,-2.7198879718780518
1761401361750547500,1.42454736328125,0.85622638463974,-9.314641952514648,-2.717493772506714
1761401361760637700,1.4346376953125,0.8458265662193298,-9.363872528076172,-2.698190450668335
1761401361770708200,1.444708251953125,0.8009352684020996,-9.421407699584961,-2.663923501968384
1761401361780789000,1.4547890625,0.7553706169128418,-9.451186180114746,-2.6390836238861084
1761401361790869800,1.464869873046875,0.7147440314292908,-9.448267936706543,-2.6133458614349365
1761401361800962600,1.474962646484375,0.7164648771286011,-9.446621894836426,-2.6161890029907227
1761401361811032300,1.4850322265625,0.7012017965316772,-9.428740501403809,-2.584989547729492
1761401361821124400,1.495124267578125,0.7034463882446289,-9.43599796295166,-2.538527250289917
1761401361831194000,1.505194091796875,0.693345844745636,-9.459715843200684,-2.5172038078308105
1761401361841277400,1.51527734375,0.6920739412307739,-9.456048965454102,-2.5206453800201416
1761401361851356400,1.5253564453125,0.675688624382019,-9.446995735168457,-2.5789294242858887
1761401361861437000,1.53543701171875,0.6784569025039673,-9.437418937683105,-2.657863140106201
1761401361871529500,1.545529541015625,0.6790554523468018,-9.407865524291992,-2.716296672821045
1761401361881610800,1.55561083984375,0.695814847946167,-9.362226486206055,-2.7253496646881104
1761401361891680000,1.565679931640625,0.7077110409736633,-9.335965156555176,-2.689286947250366
1761401361901761500,1.575761474609375,0.6841431260108948,-9.321749687194824,-2.6641478538513184
1761401361911842600,1.585842529296875,0.6647650599479675,-9.317559242248535,-2.659135103225708
1761401361921938200,1.595938232421875,0.6554875373840332,-9.319953918457031,-2.6675148010253906
1761401361932004600,1.606004638671875,0.6491279602050781,-9.349058151245117,-2.6635494232177734
1761401361942086000,1.6160859375,0.6560112833976746,-9.37285041809082,-2.6476879119873047
1761401361952178400,1.626178466796875,0.7026233673095703,-9.376666069030762,-2.597334861755371
1761401361962247700,1.63624755859375,0.7095815539360046,-9.381380081176758,-2.581547975540161
1761401361972340200,1.64634033203125,0.6936451196670532,-9.377190589904785,-2.57466459274292
1761401361982421800,1.656421875,0.6791302561759949,-9.373823165893555,-2.5877578258514404
1761401361992492000,1.666491943359375,0.6641665101051331,-9.378312110900879,-2.584017038345337
1761401362002583300,1.676583251953125,0.6453121900558472,-9.399486541748047,-2.57698392868042
1761401362012653000,1.686653076171875,0.6603507399559021,-9.383549690246582,-2.561197280883789
1761401362022745300,1.696745361328125,0.6379051208496094,-9.3782377243042,-2.555436134338379
1761401362032814600,1.706814697265625,0.642469048500061,-9.369633674621582,-2.5457098484039307
1761401362042896600,1.716896728515625,0.6345382928848267,-9.375319480895996,-2.569277763366699
1761401362052976600,1.7269765625,0.614486813545227,-9.360879898071289,-2.5970354080200195
1761401362063061200,1.737061279296875,0.5790975093841553,-9.350255012512207,-2.6144683361053467
1761401362073150200,1.747150146484375,0.5790227055549622,-9.345242500305176,-2.6123733520507812
1761401362083224000,1.75722412109375,0.5747580528259277,-9.361553192138672,-2.59740948677063
1761401362093302800,1.767302734375,0.5692963004112244,-9.366341590881348,-2.5674819946289062
1761401362103382000,1.777382080078125,0.5565022826194763,-9.378087997436523,-2.5319430828094482
1761401362113464800,1.78746484375,0.5573252439498901,-9.367314338684082,-2.4868273735046387
1761401362123555600,1.7975556640625,0.5494692921638489,-9.373748779296875,-2.4892215728759766
1761401362133621000,1.80762109375,0.5686977505683899,-9.394622802734375,-2.5103204250335693
1761401362143717400,1.81771728515625,0.5813421010971069,-9.384896278381348,-2.5121910572052
1761401362153790700,1.827790771484375,0.5765537023544312,-9.387065887451172,-2.5424177646636963
1761401362163880400,1.83788037109375,0.595557689666748,-9.395745277404785,-2.5323920249938965
1761401362173954600,1.84795458984375,0.6039373874664307,-9.396044731140137,-2.5119664669036865
1761401362184042000,1.8580419921875,0.6186018586158752,-9.388787269592285,-2.4986486434936523
1761401362194106400,1.8681064453125,0.5960065722465515,-9.368436813354492,-2.474257707595825
1761401362204193800,1.87819384765625,0.6102969646453857,-9.363423347473145,-2.4816648960113525
1761401362214284800,1.888284912109375,0.6352116465568542,-9.377714157104492,-2.5097968578338623
1761401362224354300,1.898354248046875,0.6523451209068298,-9.386392593383789,-2.5409960746765137
1761401362234430500,1.908430419921875,0.6783820986747742,-9.412205696105957,-2.534337282180786
1761401362244516900,1.918516845703125,0.6792799234390259,-9.415048599243164,-2.518176555633545
1761401362254592800,1.9285927734375,0.6807762980461121,-9.39791488647461,-2.513014078140259
1761401362264690400,1.9386904296875,0.6686556339263916,-9.3759183883667,-2.4875006675720215
1761401362274759000,1.948759033203125,0.6647650599479675,-9.373673439025879,-2.459294080734253
1761401362284844500,1.958844482421875,0.6738929748535156,-9.360879898071289,-2.4822633266448975
1761401362294931000,1.968930908203125,0.6732195615768433,-9.342848777770996,-2.5154082775115967
1761401362305004000,1.979004150390625,0.6687304377555847,-9.334468841552734,-2.5579051971435547
1761401362315095600,1.989095458984375,0.6599766612052917,-9.349581718444824,-2.6111013889312744
1761401362325187000,1.99918701171875,0.6741922497749329,-9.367987632751465,-2.6316018104553223
1761401362335257300,2.00925732421875,0.7193827629089355,-9.37053108215332,-2.614318609237671
1761401362345320700,2.01932080078125,0.7291092276573181,-9.362525939941406,-2.5829694271087646
1761401362355408100,2.029408203125,0.7515549063682556,-9.356091499328613,-2.613121509552002
1761401362365500700,2.039500732421875,0.7920318245887756,-9.3427734375,-2.6508302688598633
1761401362375581200,2.049581298828125,0.7850736975669861,-9.350030899047852,-2.670283079147339
1761401362385662700,2.059662841796875,0.8086416125297546,-9.349207878112793,-2.6726772785186768
1761401362395743200,2.0697431640625,0.8545803427696228,-9.352949142456055,-2.6595840454101562
1761401362405824800,2.07982470703125,0.8730605840682983,-9.350704193115234,-2.624194622039795
1761401362415903200,2.0899033203125,0.8927379846572876,-9.363273620605469,-2.605415105819702
1761401362425986000,2.099986083984375,0.9238625764846802,-9.382726669311523,-2.625840663909912
1761401362436067000,2.110067138671875,0.9235633015632629,-9.382576942443848,-2.6845734119415283
1761401362446148900,2.12014892578125,0.9178770780563354,-9.367987632751465,-2.7192893028259277
1761401362456229400,2.1302294921875,0.8990975618362427,-9.342923164367676,-2.729689121246338
1761401362466282200,2.1402822265625,0.8779986500740051,-9.341950416564941,-2.71457576751709
1761401362476391200,2.15039111328125,0.847472608089447,-9.333046913146973,-2.7090392112731934
1761401362486465800,2.1604658203125,0.8289923667907715,-9.322572708129883,-2.715024709701538
1761401362496553500,2.170553466796875,0.8019079566001892,-9.310301780700684,-2.724900722503662
1761401362506635000,2.180635009765625,0.7814823985099792,-9.300650596618652,-2.7187657356262207
1761401362516701700,2.19070166015625,0.7828291654586792,-9.318307876586914,-2.719738245010376
1761401362526796800,2.200796875,0.784849226474762,-9.348310470581055,-2.6944496631622314
1761401362536877300,2.210877197265625,0.7769932746887207,-9.33693790435791,-2.6773908138275146
1761401362546958300,2.220958251953125,0.7881412506103516,-9.323769569396973,-2.680084228515625
1761401362557039600,2.23103955078125,0.8019079566001892,-9.319504737854004,-2.6907835006713867
1761401362567121000,2.241120849609375,0.8073697090148926,-9.301473617553711,-2.708590269088745
1761401362577202400,2.251202392578125,0.8088660836219788,-9.28957748413086,-2.707019090652466
1761401362587284500,2.261284423828125,0.8138789534568787,-9.285911560058594,-2.704026460647583
1761401362597350400,2.271350341796875,0.7936030626296997,-9.27685832977295,-2.691232442855835
1761401362607433000,2.281432861328125,0.783652126789093,-9.313070297241211,-2.6850223541259766
1761401362617526000,2.291526123046875,0.7832780480384827,-9.320253372192383,-2.675445556640625
1761401362627607000,2.30160693359375,0.7692121267318726,-9.325789451599121,-2.649707794189453
1761401362637673000,2.3116728515625,0.7320271730422974,-9.308207511901855,-2.648061990737915
1761401362647768800,2.321768798828125,0.7549217343330383,-9.3119478225708,-2.646939516067505
1761401362657827800,2.331827880859375,0.7896376252174377,-9.350180625915527,-2.6256911754608154
1761401362667931000,2.341930908203125,0.8152256608009338,-9.358710289001465,-2.601374864578247
1761401362678012200,2.35201220703125,0.8260744214057922,-9.37516975402832,-2.599654197692871
1761401362688086500,2.36208642578125,0.8495675325393677,-9.37516975402832,-2.607285737991333
1761401362698174500,2.372174560546875,0.8569745421409607,-9.369933128356934,-2.6204538345336914
1761401362708244000,2.382243896484375,0.8203881978988647,-9.308281898498535,-2.6717045307159424
1761401362718336300,2.392336181640625,0.7907599210739136,-9.275959968566895,-2.7049989700317383
1761401362728406000,2.402406005859375,0.7906851172447205,-9.294889450073242,-2.702754497528076
1761401362738498000,2.412498046875,0.778714120388031,-9.355642318725586,-2.6791865825653076
1761401362748579600,2.42257958984375,0.7490110397338867,-9.3898344039917,-2.6844239234924316
1761401362758649000,2.432649169921875,0.7529016137123108,-9.371877670288086,-2.7094132900238037
1761401362768730600,2.442730712890625,0.7289596199989319,-9.3311767578125,-2.723180055618286
1761401362778822700,2.45282275390625,0.767192006111145,-9.291672706604004,-2.715024709701538
1761401362788905700,2.46290576171875,0.7841758728027344,-9.286734580993652,-2.695197820663452
1761401362798984700,2.472984619140625,0.7776666283607483,-9.29069995880127,-2.6726772785186768
1761401362809043500,2.48304345703125,0.7939023375511169,-9.331550598144531,-2.704624891281128
1761401362819146800,2.493146728515625,0.8021323680877686,-9.353398323059082,-2.732457399368286
1761401362829227800,2.503227783203125,0.7930045127868652,-9.360280990600586,-2.744129180908203
1761401362839304000,2.513303955078125,0.79899001121521,-9.352275848388672,-2.7339539527893066
1761401362849390000,2.52339013671875,0.8008604645729065,-9.339855194091797,-2.718466281890869
1761401362859459300,2.533459228515625,0.8060978055000305,-9.30349349975586,-2.7257986068725586
1761401362869551000,2.543551025390625,0.7947252988815308,-9.293169021606445,-2.7415854930877686
1761401362879632600,2.553632568359375,0.8081927299499512,-9.29878044128418,-2.776151657104492
1761401362889702100,2.5637021484375,0.7934533953666687,-9.303643226623535,-2.772710084915161
1761401362899795000,2.573794921875,0.7894132137298584,-9.297433853149414,-2.732083320617676
1761401362909853200,2.583853271484375,0.7726537585258484,-9.30693531036377,-2.69415020942688
1761401362919957000,2.59395703125,0.7488613724708557,-9.305438995361328,-2.6810569763183594
1761401362930038300,2.604038330078125,0.7539491057395935,-9.320178031921387,-2.6611552238464355
1761401362940107500,2.614107421875,0.7737760543823242,-9.334468841552734,-2.642225980758667
1761401362950199800,2.62419970703125,0.7815572023391724,-9.349431991577148,-2.6565163135528564
1761401362960259800,2.634259765625,0.7885901927947998,-9.330802917480469,-2.6564416885375977
1761401362970362000,2.644362060546875,0.8035539388656616,-9.314416885375977,-2.653224468231201
1761401362980443400,2.654443359375,0.8032546639442444,-9.317559242248535,-2.68951153755188
1761401362990512600,2.6645126953125,0.8130559325218201,-9.327061653137207,-2.7391164302825928
1761401363000593400,2.674593505859375,0.8063970804214478,-9.311124801635742,-2.769193649291992
1761401363010679300,2.68467919921875,0.802880585193634,-9.297882080078125,-2.778022050857544
1761401363020767000,2.69476708984375,0.7754969000816345,-9.2864351272583,-2.77622652053833
1761401363030847700,2.70484765625,0.7617302536964417,-9.284489631652832,-2.7549779415130615
1761401363040918500,2.71491845703125,0.7930045127868652,-9.303643226623535,-2.7219080924987793
1761401363050998500,2.72499853515625,0.8316109776496887,-9.313519477844238,-2.7363481521606445
1761401363061102800,2.735102783203125,0.8336310982704163,-9.302969932556152,-2.7450270652770996
1761401363071171600,2.745171630859375,0.834678590297699,-9.29922866821289,-2.761636734008789
1761401363081254000,2.75525390625,0.832059919834137,-9.310077667236328,-2.7649288177490234
1761401363091334700,2.765334716796875,0.7998878359794617,-9.309030532836914,-2.7556512355804443
1761401363101415700,2.775415771484375,0.7885901927947998,-9.331476211547852,-2.710386037826538
1761401363111485200,2.785485107421875,0.8061726093292236,-9.331101417541504,-2.6844239234924316
1761401363121588500,2.79558837890625,0.8109610080718994,-9.338733673095703,-2.6990134716033936
1761401363131658200,2.805658203125,0.8137292861938477,-9.326388359069824,-2.7066450119018555
1761401363141742600,2.81574267578125,0.8123825788497925,-9.30693531036377,-2.7217583656311035
1761401363151820300,2.8258203125,0.8055740594863892,-9.295638084411621,-2.746673107147217
1761401363161889800,2.835889892578125,0.8150760531425476,-9.285238265991211,-2.745924949645996
1761401363171966700,2.845966796875,0.8184428811073303,-9.29301929473877,-2.7368717193603516
1761401363182055700,2.8560556640625,0.8539069890975952,-9.307384490966797,-2.7100865840911865
1761401363192126200,2.866126220703125,0.8293664455413818,-9.327211380004883,-2.713303804397583
1761401363202214000,2.8762138671875,0.8157494068145752,-9.336638450622559,-2.7344775199890137
1761401363212306700,2.886306640625,0.7894132137298584,-9.319355010986328,-2.762908697128296
1761401363222387700,2.8963876953125,0.7678653597831726,-9.30109977722168,-2.755875825881958
1761401363232458800,2.906458740234375,0.7866448760032654,-9.30154800415039,-2.7002105712890625
1761401363242550000,2.916550048828125,0.7732523083686829,-9.320028305053711,-2.652775526046753
1761401363252631000,2.926631103515625,0.7720552086830139,-9.3172607421875,-2.6709563732147217
1761401363262700500,2.936700439453125,0.7898620963096619,-9.318158149719238,-2.7064952850341797
1761401363272781300,2.94678125,0.8186673521995544,-9.329231262207031,-2.7113585472106934
1761401363282856000,2.95685595703125,0.843582034111023,-9.341800689697266,-2.689436674118042
1761401363292943400,2.966943359375,0.8514379858970642,-9.324368476867676,-2.6671407222747803
1761401363303035600,2.97703564453125,0.8697685599327087,-9.30813217163086,-2.663773775100708
1761401363313111000,2.987111083984375,0.8757541179656982,-9.333196640014648,-2.668487548828125
1761401363323195400,2.9971953125,0.8432078957557678,-9.363946914672852,-2.6581623554229736
1761401363333268000,3.00726806640625,0.8241291046142578,-9.398513793945312,-2.64634108543396
1761401363343360300,3.0173603515625,0.789936900138855,-9.394024848937988,-2.6301801204681396
1761401363353418000,3.02741796875,0.7693617343902588,-9.381155967712402,-2.624793291091919
1761401363363522000,3.03752197265625,0.7651718854904175,-9.346589088439941,-2.6255414485931396
1761401363373603300,3.047603271484375,0.7526023387908936,-9.308431625366211,-2.639831781387329
1761401363383668000,3.05766796875,0.7484872937202454,-9.280075073242188,-2.6360909938812256
1761401363393754000,3.067754150390625,0.7618050575256348,-9.287407875061035,-2.6093804836273193
1761401363403838700,3.077838623046875,0.7849240899085999,-9.325116157531738,-2.6030209064483643
1761401363413918200,3.087918212890625,0.8076689839363098,-9.341053009033203,-2.616039514541626
1761401363424008400,3.098008544921875,0.8072200417518616,-9.361477851867676,-2.624793291091919
1761401363434089000,3.1080888671875,0.8201637268066406,-9.37008285522461,-2.639906644821167
1761401363444159500,3.118159423828125,0.8289175033569336,-9.372177124023438,-2.6519525051116943
1761401363454251000,3.1282509765625,0.823006808757782,-9.386767387390137,-2.6618285179138184
1761401363464332300,3.138332275390625,0.8197147846221924,-9.386242866516113,-2.6657938957214355
1761401363474413600,3.14841357421875,0.8170213103294373,-9.37165355682373,-2.640430450439453
1761401363484490200,3.158490234375,0.7956979870796204,-9.342100143432617,-2.6315269470214844
1761401363494575600,3.16857568359375,0.8054243922233582,-9.331326484680176,-2.6244940757751465
1761401363504650200,3.178650146484375,0.8111106157302856,-9.334243774414062,-2.6286838054656982
1761401363514737000,3.18873681640625,0.8001871109008789,-9.31381893157959,-2.6319758892059326
1761401363524829400,3.198829345703125,0.791358470916748,-9.318382263183594,-2.6333224773406982
1761401363534899500,3.2088994140625,0.7885901927947998,-9.334319114685059,-2.635866403579712
1761401363544969000,3.218968994140625,0.8096891045570374,-9.354969024658203,-2.622473955154419
1761401363555062300,3.229062255859375,0.8267477750778198,-9.356165885925293,-2.6324996948242188
1761401363565146000,3.23914599609375,0.8523358106613159,-9.377264976501465,-2.639382839202881
1761401363575223000,3.24922314453125,0.8444049954414368,-9.36349868774414,-2.6443958282470703
1761401363585305000,3.25930517578125,0.8298153281211853,-9.334992408752441,-2.668562173843384
1761401363595385600,3.269385498046875,0.8274959921836853,-9.308731079101562,-2.686593532562256
1761401363605457400,3.27945751953125,0.8268225789070129,-9.29421615600586,-2.696320056915283
1761401363615536600,3.28953662109375,0.8233060836791992,-9.302520751953125,-2.6811318397521973
1761401363625629000,3.29962890625,0.8082675337791443,-9.32773494720459,-2.663848638534546
1761401363635709700,3.309709716796875,0.812831461429596,-9.346814155578613,-2.6418519020080566
1761401363645791000,3.319791015625,0.7842506766319275,-9.359457969665527,-2.6420016288757324
1761401363655849000,3.329848876953125,0.755669891834259,-9.343671798706055,-2.6674399375915527
1761401363665930200,3.33993017578125,0.7811083197593689,-9.328782081604004,-2.6799347400665283
1761401363676012000,3.350011962890625,0.8351274728775024,-9.332149505615234,-2.6366894245147705
1761401363686096100,3.36009619140625,0.8390928506851196,-9.363798141479492,-2.6052656173706055
1761401363696177200,3.37017724609375,0.8482207655906677,-9.36476993560791,-2.6286089420318604
1761401363706254600,3.380254638671875,0.8380454182624817,-9.344045639038086,-2.672527551651001
1761401363716332000,3.39033203125,0.8188918232917786,-9.323246002197266,-2.692953109741211
1761401363726402300,3.40040234375,0.7831284403800964,-9.307010650634766,-2.7136032581329346
1761401363736495400,3.410495361328125,0.8038532137870789,-9.312322616577148,-2.7067198753356934
1761401363746576100,3.420576171875,0.8417863249778748,-9.33574104309082,-2.6960208415985107
1761401363756675000,3.430675048828125,0.8280196785926819,-9.348908424377441,-2.6996121406555176
1761401363766752500,3.44075244140625,0.8267477750778198,-9.348684310913086,-2.7036523818969727
1761401363776844000,3.450843994140625,0.8141034245491028,-9.343072891235352,-2.6872670650482178
1761401363786914300,3.460914306640625,0.8008604645729065,-9.334992408752441,-2.668412685394287
1761401363797006000,3.471006103515625,0.783652126789093,-9.328408241271973,-2.6657938957214355
1761401363807087400,3.48108740234375,0.7861959934234619,-9.344868659973145,-2.649857521057129
1761401363817168100,3.491168212890625,0.815450131893158,-9.364919662475586,-2.6467151641845703
1761401363827260700,3.5012607421875,0.8372972011566162,-9.354969024658203,-2.652251720428467
1761401363837318700,3.511318603515625,0.8040028810501099,-9.323246002197266,-2.659733533859253
1761401363847411500,3.521411376953125,0.7897124886512756,-9.30925464630127,-2.6727521419525146
1761401363857478100,3.53147802734375,0.7950994372367859,-9.309778213500977,-2.677091598510742
1761401363867561700,3.541561767578125,0.7926303744316101,-9.304092407226562,-2.69415020942688
1761401363877654500,3.551654541015625,0.8097639083862305,-9.316437721252441,-2.6942250728607178
1761401363887735300,3.5617353515625,0.7939023375511169,-9.331700325012207,-2.693626642227173
1761401363897796600,3.571796630859375,0.7851485013961792,-9.3450927734375,-2.681879997253418
1761401363907885600,3.581885498046875,0.8037784099578857,-9.341726303100586,-2.6645967960357666
1761401363917978400,3.591978271484375,0.8251765966415405,-9.33574104309082,-2.644096612930298
1761401363928060200,3.60206005859375,0.8187421560287476,-9.333346366882324,-2.6390836238861084
1761401363938141000,3.612140869140625,0.8164976239204407,-9.330577850341797,-2.6512043476104736
1761401363948199400,3.622199462890625,0.823156476020813,-9.371204376220703,-2.653748035430908
1761401363958302700,3.632302734375,0.8331073522567749,-9.38280200958252,-2.678438425064087
1761401363968383700,3.6423837890625,0.8117091655731201,-9.373374938964844,-2.6891374588012695
1761401363978465000,3.652465087890625,0.8012345433235168,-9.344494819641113,-2.6738743782043457
1761401363988531700,3.66253173828125,0.7861959934234619,-9.326762199401855,-2.668412685394287
1761401363998608100,3.672608154296875,0.7968202829360962,-9.307085037231445,-2.6717045307159424
1761401364008707300,3.682707275390625,0.8187421560287476,-9.324518203735352,-2.6566660404205322
1761401364018788600,3.69278857421875,0.8181436061859131,-9.32421875,-2.6483612060546875
1761401364028870100,3.7028701171875,0.8114098906517029,-9.328258514404297,-2.6697592735290527
1761401364038951000,3.712950927734375,0.8017582893371582,-9.330727577209473,-2.682403802871704
1761401364049032000,3.723031982421875,0.8047510385513306,-9.345915794372559,-2.6879403591156006
1761401364059101700,3.733101806640625,0.8209118843078613,-9.369708061218262,-2.6513538360595703
1761401364069194200,3.7431943359375,0.8050503134727478,-9.348235130310059,-2.639382839202881
1761401364079263700,3.753263671875,0.8122329115867615,-9.325191497802734,-2.6377367973327637
1761401364089345000,3.763344970703125,0.8131307363510132,-9.320926666259766,-2.647388458251953
1761401364099436300,3.773436279296875,0.7919570207595825,-9.344195365905762,-2.6868927478790283
1761401364109518000,3.78351806640625,0.8122329115867615,-9.322422981262207,-2.721459150314331
1761401364119592000,3.793592041015625,0.8414122462272644,-9.3119478225708,-2.6966941356658936
1761401364129669400,3.80366943359375,0.8114098906517029,-9.310826301574707,-2.647987127304077
1761401364139761000,3.813760986328125,0.7893383502960205,-9.3049898147583,-2.6489596366882324
1761401364149842000,3.823842041015625,0.7981669902801514,-9.307234764099121,-2.6850223541259766
1761401364159911700,3.83391162109375,0.8228572010993958,-9.306411743164062,-2.7326819896698
1761401364170004500,3.84400439453125,0.848520040512085,-9.316362380981445,-2.7612626552581787
1761401364180085800,3.854085693359375,0.8814403414726257,-9.34846019744873,-2.7457752227783203
1761401364190166300,3.864166259765625,0.8533832430839539,-9.340080261230469,-2.732532262802124
1761401364200238600,3.874238525390625,0.8245031833648682,-9.322647094726562,-2.7305870056152344
1761401364210326000,3.884325927734375,0.8273463249206543,-9.324742317199707,-2.6954221725463867
1761401364220421600,3.894421630859375,0.8170961737632751,-9.330204010009766,-2.656142234802246
1761401364230490600,3.90449072265625,0.8101379871368408,-9.349581718444824,-2.63631534576416
1761401364240571100,3.914571044921875,0.8280196785926819,-9.348235130310059,-2.6589853763580322
1761401364250652400,3.92465234375,0.8331073522567749,-9.344718933105469,-2.6751463413238525
1761401364260724000,3.934723876953125,0.809015691280365,-9.329380989074707,-2.6792614459991455
1761401364270803000,3.944802978515625,0.8022072315216064,-9.322123527526855,-2.6875662803649902
1761401364280895700,3.954895751953125,0.8074445128440857,-9.30222225189209,-2.6786627769470215
1761401364290989800,3.96498974609375,0.779761552810669,-9.297957420349121,-2.675370693206787
1761401364301057500,3.9750576171875,0.7662193775177002,-9.311124801635742,-2.674398183822632
1761401364311138300,3.98513818359375,0.7997381687164307,-9.328108787536621,-2.6633996963500977
1761401364321219800,3.9952197265625,0.8145523071289062,-9.327884674072266,-2.6471641063690186
1761401364331278000,4.005278076171875,0.8023568391799927,-9.334319114685059,-2.6595840454101562
1761401364341371000,4.015370849609375,0.8033294677734375,-9.343671798706055,-2.672976493835449
1761401364351463400,4.02546337890625,0.8170961737632751,-9.351227760314941,-2.6890625953674316
1761401364361532400,4.035532470703125,0.7973439693450928,-9.352724075317383,-2.7095630168914795
1761401364371624700,4.045624755859375,0.801459014415741,-9.323246002197266,-2.6897358894348145
1761401364381705700,4.055705810546875,0.8045265674591064,-9.302820205688477,-2.682553291320801
1761401364391787000,4.065787109375,0.7952490448951721,-9.312472343444824,-2.6833014488220215
1761401364401867800,4.07586767578125,0.7849240899085999,-9.308880805969238,-2.688763380050659
1761401364411948500,4.085948486328125,0.8203133344650269,-9.313145637512207,-2.707393169403076
1761401364422009900,4.096009765625,0.8277952671051025,-9.338583946228027,-2.718690872192383
1761401364432110000,4.106110107421875,0.8417863249778748,-9.348609924316406,-2.7388172149658203
1761401364442192000,4.11619189453125,0.8390180468559265,-9.351752281188965,-2.7105355262756348
1761401364452252400,4.12625244140625,0.824578046798706,-9.355118751525879,-2.687790632247925
1761401364462354400,4.1363544921875,0.7978677153587341,-9.359981536865234,-2.6879403591156006
1761401364472435000,4.14643505859375,0.775945782661438,-9.328782081604004,-2.68951153755188
1761401364482504400,4.15650439453125,0.7865700721740723,-9.295936584472656,-2.692354679107666
1761401364492597500,4.166597412109375,0.8172457814216614,-9.267281532287598,-2.693402051925659
1761401364502666500,4.17666650390625,0.8150012493133545,-9.267131805419922,-2.721534013748169
1761401364512749600,4.18674951171875,0.8200889229774475,-9.289053916931152,-2.7397148609161377
1761401364522843000,4.1968427734375,0.8023568391799927,-9.319729804992676,-2.756549119949341
1761401364532910600,4.20691064453125,0.781183123588562,-9.300276756286621,-2.7504141330718994
1761401364543002000,4.217002197265625,0.7465420365333557,-9.296984672546387,-2.7449522018432617
1761401364553073000,4.227072998046875,0.7638999819755554,-9.32085132598877,-2.7158477306365967
1761401364563164000,4.237163818359375,0.8092401623725891,-9.34965705871582,-2.641627550125122
1761401364573245700,4.24724560546875,0.811634361743927,-9.38093090057373,-2.599055528640747
1761401364583326500,4.257326416015625,0.8215852975845337,-9.372252464294434,-2.61087703704834
1761401364593395500,4.2673955078125,0.8141782283782959,-9.367464065551758,-2.6319010257720947
1761401364603489500,4.277489501953125,0.7934533953666687,-9.34628963470459,-2.6501567363739014
1761401364613566200,4.287566162109375,0.8097639083862305,-9.336264610290527,-2.687790632247925
1761401364623638800,4.297638671875,0.8340800404548645,-9.308207511901855,-2.6985645294189453
1761401364633732600,4.307732666015625,0.8305635452270508,-9.302596092224121,-2.701706886291504
1761401364643812400,4.317812255859375,0.8313865661621094,-9.303269386291504,-2.7114334106445312
1761401364653882000,4.327882080078125,0.8681225776672363,-9.324892044067383,-2.722731113433838
1761401364663975000,4.337974853515625,0.8662521243095398,-9.338808059692383,-2.709862232208252
1761401364674044200,4.348044189453125,0.8473977446556091,-9.367613792419434,-2.695871114730835
1761401364684136400,4.358136474609375,0.8381950259208679,-9.347561836242676,-2.6634745597839355
1761401364694203100,4.368203125,0.8191910982131958,-9.342923164367676,-2.639233350753784
1761401364704287000,4.378286865234375,0.7909843921661377,-9.346738815307617,-2.6238205432891846
1761401364724455400,4.398455322265625,0.8025065064430237,-9.340304374694824,-2.6076598167419434
1761401364734541800,4.408541748046875,0.7956979870796204,-9.346364974975586,-2.646790027618408
1761401364744628000,4.4186279296875,0.8182932734489441,-9.321150779724121,-2.6675896644592285
1761401364754683100,4.42868310546875,0.8197896480560303,-9.315539360046387,-2.6856956481933594
1761401364764784000,4.4387841796875,0.8158242106437683,-9.312172889709473,-2.7112836837768555
1761401364774854100,4.448854248046875,0.8121581077575684,-9.322497367858887,-2.7112090587615967
1761401364784935200,4.45893505859375,0.8132055997848511,-9.336414337158203,-2.6956467628479004
1761401364795027500,4.46902734375,0.8084171414375305,-9.339930534362793,-2.6791117191314697
1761401364805109000,4.47910888671875,0.821809709072113,-9.326088905334473,-2.6674399375915527
1761401364815173400,4.48917333984375,0.8399906754493713,-9.321599960327148,-2.6768672466278076
1761401364825270500,4.4992705078125,0.8495675325393677,-9.311124801635742,-2.6942999362945557
1761401364835351800,4.509351806640625,0.8631097078323364,-9.299827575683594,-2.705747127532959
1761401364845433000,4.51943310546875,0.8785223960876465,-9.314492225646973,-2.7094881534576416
1761401364855503600,4.529503662109375,0.8538321852684021,-9.337311744689941,-2.7183916568756104
1761401364865594000,4.539593994140625,0.8442553877830505,-9.348834037780762,-2.7043256759643555
1761401364875683300,4.549683349609375,0.8242039084434509,-9.342100143432617,-2.702903985977173
1761401364885745000,4.559744873046875,0.817919135093689,-9.325565338134766,-2.7142765522003174
1761401364895839000,4.5698388671875,0.7908347249031067,-9.312247276306152,-2.733130931854248
1761401364905919200,4.579919189453125,0.7984662652015686,-9.310676574707031,-2.7590930461883545
1761401364916000500,4.59000048828125,0.8108113408088684,-9.300874710083008,-2.750488758087158
1761401364926081000,4.6000810546875,0.8289923667907715,-9.296834945678711,-2.70993709564209
1761401364936150500,4.610150634765625,0.8425345420837402,-9.31845760345459,-2.675969362258911
1761401364946243300,4.620243408203125,0.8425345420837402,-9.329530715942383,-2.666167974472046
1761401364956312600,4.6303125,0.8450784087181091,-9.343072891235352,-2.6739492416381836
1761401364966404900,4.64040478515625,0.8275707960128784,-9.36013126373291,-2.6990883350372314
1761401364976486000,4.65048583984375,0.8190414309501648,-9.3404541015625,-2.7311856746673584
1761401364986567400,4.6605673828125,0.7790881991386414,-9.294889450073242,-2.757072925567627
1761401364996648400,4.6706484375,0.7983166575431824,-9.290400505065918,-2.737245798110962
1761401365006729500,4.6807294921875,0.8145523071289062,-9.297957420349121,-2.6856956481933594
1761401365016805400,4.690805419921875,0.7861211895942688,-9.323993682861328,-2.6559927463531494
1761401365026891800,4.700891845703125,0.7778910994529724,-9.315614700317383,-2.674173593521118
1761401365036972300,4.71097216796875,0.8299649953842163,-9.312023162841797,-2.683600902557373
1761401365047041000,4.721041015625,0.8253262042999268,-9.309329986572266,-2.709263563156128
1761401365057120000,4.7311201171875,0.8357260227203369,-9.300426483154297,-2.7235541343688965
1761401365067204000,4.7412041015625,0.8519617319107056,-9.31381893157959,-2.6962451934814453
1761401365077296600,4.751296630859375,0.8470236659049988,-9.34846019744873,-2.6670658588409424
1761401365087377700,4.761377685546875,0.8280196785926819,-9.37008285522461,-2.659209966659546
1761401365097459200,4.771459228515625,0.8289175033569336,-9.375843048095703,-2.6651206016540527
1761401365107519200,4.781519287109375,0.8164976239204407,-9.354519844055176,-2.6787376403808594
1761401365117620500,4.791620361328125,0.8093898296356201,-9.342848777770996,-2.689286947250366
1761401365127699500,4.801699462890625,0.8057236671447754,-9.338358879089355,-2.681879997253418
1761401365137783300,4.811783203125,0.8152256608009338,-9.311873435974121,-2.668412685394287
1761401365147863600,4.821863525390625,0.7977181077003479,-9.284265518188477,-2.65674090385437
1761401365157944300,4.8319443359375,0.8108113408088684,-9.268553733825684,-2.680009603500366
1761401365168025300,4.842025390625,0.8016834855079651,-9.27610969543457,-2.6902596950531006
1761401365178107000,4.85210693359375,0.8155249357223511,-9.29922866821289,-2.6927287578582764
1761401365188178000,4.862177978515625,0.8173954486846924,-9.33701229095459,-2.6973674297332764
1761401365198247400,4.872247314453125,0.8227075338363647,-9.349431991577148,-2.6916065216064453
1761401365208349700,4.882349609375,0.8295160531997681,-9.362525939941406,-2.6889877319335938
1761401365218415600,4.89241552734375,0.8477718830108643,-9.376367568969727,-2.6699838638305664
1761401365228511700,4.90251171875,0.8348281979560852,-9.366415977478027,-2.6867432594299316
1761401365238593000,4.912593017578125,0.8063222169876099,-9.343372344970703,-2.6885387897491455
1761401365248677000,4.922677001953125,0.7928548455238342,-9.306187629699707,-2.6909329891204834
1761401365258754300,4.93275439453125,0.792555570602417,-9.283442497253418,-2.6787376403808594
1761401365268836000,4.942836181640625,0.8289923667907715,-9.29997730255127,-2.6749966144561768
1761401365278911200,4.9529111328125,0.8267477750778198,-9.317410469055176,-2.6709563732147217
1761401365288987000,4.96298681640625,0.8411877751350403,-9.320627212524414,-2.678363561630249
1761401365299078700,4.97307861328125,0.8386439681053162,-9.326014518737793,-2.67716646194458
1761401365309159700,4.98315966796875,0.8174702525138855,-9.330802917480469,-2.6723780632019043
1761401365319241500,4.993241455078125,0.8139537572860718,-9.331700325012207,-2.676492929458618
1761401365329322200,5.003322265625,0.8136544823646545,-9.345168113708496,-2.677690029144287
1761401365339403500,5.013403564453125,0.805499255657196,-9.352499961853027,-2.6895864009857178
1761401365349484000,5.023484130859375,0.8188169598579407,-9.342848777770996,-2.688314437866211
1761401365359564800,5.033564697265625,0.8346037268638611,-9.318981170654297,-2.6951229572296143
1761401365369646300,5.043646240234375,0.848520040512085,-9.308581352233887,-2.7003602981567383
1761401365379726800,5.053726806640625,0.8423848748207092,-9.317708969116211,-2.6867432594299316
1761401365389797400,5.06379736328125,0.8551788926124573,-9.349133491516113,-2.676567792892456
1761401365399889000,5.073888916015625,0.8506149649620056,-9.34846019744873,-2.677091598510742
1761401365409958000,5.0839580078125,0.8372223973274231,-9.330503463745117,-2.7015573978424072
1761401365420050400,5.094050537109375,0.8241291046142578,-9.326762199401855,-2.6954970359802246
1761401365430132000,5.104132080078125,0.8441805839538574,-9.315614700317383,-2.710386037826538
1761401365440205000,5.114205078125,0.8507646322250366,-9.293617248535156,-2.7158477306365967
1761401365450281500,5.124281494140625,0.8343793153762817,-9.296610832214355,-2.684723138809204
1761401365460375000,5.134375,0.8227823972702026,-9.316437721252441,-2.6827778816223145
1761401365470445000,5.144445068359375,0.839766263961792,-9.342249870300293,-2.6913070678710938
1761401365480530400,5.154530517578125,0.8382698893547058,-9.3142671585083,-2.6954221725463867
1761401365490618000,5.1646181640625,0.8607903122901917,-9.295638084411621,-2.7106103897094727
1761401365500712400,5.17471240234375,0.885630190372467,-9.31501579284668,-2.7130045890808105
1761401365510777300,5.18477734375,0.8889970183372498,-9.337387084960938,-2.687641143798828
1761401365520861200,5.194861083984375,0.8695441484451294,-9.332149505615234,-2.6671407222747803
1761401365530942200,5.204942138671875,0.8420107960700989,-9.342100143432617,-2.6506056785583496
1761401365541023500,5.2150234375,0.8191910982131958,-9.349133491516113,-2.6651954650878906
1761401365551092500,5.225092529296875,0.8081927299499512,-9.357288360595703,-2.6648213863372803
1761401365561184800,5.235184814453125,0.8019827604293823,-9.35773754119873,-2.671480178833008
1761401365571266300,5.245266357421875,0.8041524887084961,-9.350704193115234,-2.6757447719573975
1761401365581347300,5.255347412109375,0.8197147846221924,-9.339181900024414,-2.663175344467163
1761401365591432400,5.265432373046875,0.8361749649047852,-9.303045272827148,-2.672078847885132
1761401365601509600,5.275509521484375,0.833331823348999,-9.269301414489746,-2.6809072494506836
1761401365611580200,5.285580078125,0.8388684391975403,-9.289203643798828,-2.6676645278930664
1761401365621673000,5.2956728515625,0.850989043712616,-9.315988540649414,-2.668337821960449
1761401365631764000,5.305763916015625,0.8416367173194885,-9.344868659973145,-2.6716299057006836
1761401365641821700,5.31582177734375,0.8392425179481506,-9.347487449645996,-2.678363561630249
1761401365651903200,5.3259033203125,0.816871702671051,-9.36245059967041,-2.672003984451294
1761401365661995300,5.335995361328125,0.8018330931663513,-9.3666410446167,-2.674398183822632
1761401365672076500,5.34607666015625,0.7982417941093445,-9.353622436523438,-2.678363561630249
1761401365682157600,5.356157470703125,0.8040028810501099,-9.320552825927734,-2.673799514770508
1761401365692238600,5.366238525390625,0.8153005242347717,-9.30117416381836,-2.680159091949463
1761401365702320400,5.3763203125,0.8215852975845337,-9.285462379455566,-2.6913819313049316
1761401365712401400,5.3864013671875,0.8262240290641785,-9.298555374145508,-2.7055227756500244
1761401365722482000,5.39648193359375,0.8376713395118713,-9.330428123474121,-2.6984150409698486
1761401365732555800,5.4065556640625,0.8581717014312744,-9.33933162689209,-2.687641143798828
1761401365742644500,5.41664453125,0.8393173217773438,-9.324966430664062,-2.695871114730835
1761401365752722700,5.42672265625,0.836997926235199,-9.317858695983887,-2.6773159503936768
1761401365762806300,5.43680615234375,0.8216601014137268,-9.331775665283203,-2.6875662803649902
1761401365772886800,5.44688671875,0.8006359934806824,-9.322572708129883,-2.686967611312866
1761401365782957000,5.45695703125,0.8062474131584167,-9.334468841552734,-2.6901848316192627
1761401365793039000,5.4670390625,0.8110358119010925,-9.33701229095459,-2.685920238494873
1761401365803118300,5.477118408203125,0.8175450563430786,-9.339556694030762,-2.685920238494873
1761401365813209300,5.487209228515625,0.8435071706771851,-9.342623710632324,-2.667814016342163
1761401365823279600,5.497279541015625,0.8636334538459778,-9.325041770935059,-2.651428699493408
1761401365833373000,5.507373046875,0.8272715210914612,-9.30918025970459,-2.663250207901001
1761401365843453700,5.51745361328125,0.8123825788497925,-9.293169021606445,-2.6965444087982178
1761401365853535000,5.527534912109375,0.8031050562858582,-9.314866065979004,-2.7231051921844482
1761401365863604700,5.537604736328125,0.8051999807357788,-9.318083763122559,-2.7317092418670654
1761401365873697500,5.547697509765625,0.8132804036140442,-9.314866065979004,-2.741286039352417
1761401365883778300,5.5577783203125,0.8543559312820435,-9.315539360046387,-2.7008838653564453
1761401365893859300,5.567859375,0.8438064455986023,-9.333346366882324,-2.662651538848877
1761401365903940600,5.577940673828125,0.8229320049285889,-9.33469295501709,-2.701632261276245
1761401365914009600,5.588009521484375,0.8229320049285889,-9.322872161865234,-2.7497406005859375
1761401365924102400,5.598102294921875,0.841038167476654,-9.308431625366211,-2.766275644302368
1761401365934179000,5.608178955078125,0.8450784087181091,-9.300724983215332,-2.7501895427703857
1761401365944266800,5.618266845703125,0.8646060824394226,-9.310976028442383,-2.736123561859131
1761401365954345500,5.628345458984375,0.861314058303833,-9.320327758789062,-2.727369785308838
1761401365964421600,5.638421630859375,0.8322095274925232,-9.328782081604004,-2.733654499053955
1761401365974507300,5.64850732421875,0.8507646322250366,-9.32077693939209,-2.731335163116455
1761401365984588000,5.658588134765625,0.8561515808105469,-9.325265884399414,-2.716371536254883
1761401365994669300,5.66866943359375,0.83348149061203,-9.347112655639648,-2.6997616291046143
1761401366004739300,5.6787392578125,0.829441249370575,-9.342549324035645,-2.67948579788208
1761401366014831600,5.68883154296875,0.8137292861938477,-9.328258514404297,-2.659135103225708
1761401366024900900,5.69890087890625,0.809015691280365,-9.310750961303711,-2.643423080444336
1761401366035008000,5.709008056640625,0.7936030626296997,-9.322497367858887,-2.6446950435638428
1761401366045074400,5.719074462890625,0.7844751477241516,-9.336114883422852,-2.643946886062622
1761401366055156000,5.729156005859375,0.7853729724884033,-9.3404541015625,-2.645293712615967
1761401366065236700,5.73923681640625,0.7861959934234619,-9.33357048034668,-2.647538185119629
1761401366075297000,5.749297119140625,0.8022820353507996,-9.34628963470459,-2.6430490016937256
1761401366085398300,5.759398193359375,0.8239794969558716,-9.330503463745117,-2.6502315998077393
1761401366095481900,5.76948193359375,0.8063222169876099,-9.308805465698242,-2.6671407222747803
1761401366105560300,5.779560302734375,0.819490373134613,-9.307982444763184,-2.662651538848877
1761401366115640800,5.789640869140625,0.8516624569892883,-9.33125114440918,-2.6717045307159424
1761401366125726200,5.799726318359375,0.8637082576751709,-9.339855194091797,-2.670208215713501
1761401366135803600,5.8098037109375,0.8674492239952087,-9.354894638061523,-2.683675765991211
1761401366145874400,5.81987451171875,0.8445546627044678,-9.363123893737793,-2.6851720809936523
1761401366155966000,5.829966064453125,0.8176198601722717,-9.326313018798828,-2.683002233505249
1761401366166046000,5.8400458984375,0.801608681678772,-9.29997730255127,-2.703278064727783
1761401366176128000,5.8501279296875,0.8025065064430237,-9.299004554748535,-2.7249755859375
1761401366186179800,5.860179931640625,0.7847744226455688,-9.306561470031738,-2.6966192722320557
1761401366196047000,5.870047119140625,0.7930045127868652,-9.31845760345459,-2.667963743209839
1761401366208869000,5.882869140625,0.8314613699913025,-9.358036994934082,-2.644545316696167
1761401366218972400,5.892972412109375,0.8313117027282715,-9.372326850891113,-2.6827778816223145
1761401366229053200,5.90305322265625,0.8432078957557678,-9.335216522216797,-2.711508274078369
1761401366239135200,5.91313525390625,0.8288426995277405,-9.298181533813477,-2.722132444381714
1761401366249215500,5.923215576171875,0.839616596698761,-9.287407875061035,-2.7293899059295654
1761401366259274800,5.933274658203125,0.8515875935554504,-9.304092407226562,-2.7031285762786865
1761401366269355500,5.94335546875,0.839766263961792,-9.342399597167969,-2.670881748199463
1761401366279436000,5.95343603515625,0.8374468684196472,-9.383100509643555,-2.639831781387329
1761401366289539800,5.963539794921875,0.8337059020996094,-9.3735990524292,-2.651653289794922
1761401366299621000,5.97362109375,0.8096891045570374,-9.325864791870117,-2.6873416900634766
1761401366309702100,5.9837021484375,0.8049755096435547,-9.298405647277832,-2.677764892578125
1761401366319759600,5.993759521484375,0.8313865661621094,-9.305513381958008,-2.625317096710205
1761401366329844000,6.003843994140625,0.7812579274177551,-9.315315246582031,-2.608407974243164
1761401366339945200,6.0139453125,0.7751976251602173,-9.329605102539062,-2.6453683376312256
1761401366350026000,6.02402587890625,0.8084920048713684,-9.324666976928711,-2.675445556640625
1761401366360106200,6.034106201171875,0.816871702671051,-9.331775665283203,-2.6826281547546387
1761401366370188300,6.044188232421875,0.8429086208343506,-9.35205078125,-2.7042508125305176
1761401366380268800,6.054268798828125,0.8620622754096985,-9.347187995910645,-2.7102363109588623
1761401366390350300,6.064350341796875,0.8895207643508911,-9.337461471557617,-2.712780237197876
1761401366400423700,6.074423583984375,0.8931868672370911,-9.341053009033203,-2.6925041675567627
1761401366410489000,6.084489013671875,0.8669254779815674,-9.335216522216797,-2.6767923831939697
1761401366420593000,6.094593017578125,0.8310872912406921,-9.31389331817627,-2.675445556640625
1761401366430674400,6.10467431640625,0.7940519452095032,-9.318831443786621,-2.6872670650482178
1761401366440756500,6.114756591796875,0.7737760543823242,-9.336788177490234,-2.6728270053863525
1761401366450836200,6.124836181640625,0.7615057826042175,-9.334543228149414,-2.670283079147339
1761401366460917000,6.1349169921875,0.7746738791465759,-9.333346366882324,-2.671480178833008
1761401366470997800,6.144997802734375,0.8045265674591064,-9.331999778747559,-2.683600902557373
1761401366481079000,6.1550791015625,0.8176947236061096,-9.34269905090332,-2.676492929458618
1761401366491160600,6.16516064453125,0.8355764150619507,-9.317559242248535,-2.678961992263794
1761401366501241900,6.175241943359375,0.8368483185768127,-9.313968658447266,-2.672976493835449
1761401366511323100,6.1853232421875,0.811784029006958,-9.300950050354004,-2.665644407272339
1761401366521403100,6.195403076171875,0.8176947236061096,-9.321226119995117,-2.6681132316589355
1761401366531484700,6.205484619140625,0.8310872912406921,-9.325789451599121,-2.674248456954956
1761401366541565700,6.215565673828125,0.8215104341506958,-9.323470115661621,-2.6861445903778076
1761401366551647000,6.22564697265625,0.815450131893158,-9.329455375671387,-2.702903985977173
1761401366561728000,6.23572802734375,0.8310124278068542,-9.353248596191406,-2.696993350982666
1761401366571793200,6.245793212890625,0.8239046335220337,-9.353322982788086,-2.6874165534973145
1761401366581889300,6.25588916015625,0.8286930918693542,-9.337760925292969,-2.676642656326294
1761401366591949000,6.265948974609375,0.8024316430091858,-9.321150779724121,-2.6717793941497803
1761401366602051800,6.2760517578125,0.7892635464668274,-9.327211380004883,-2.68719220161438
1761401366612119600,6.28611962890625,0.7738508582115173,-9.337835311889648,-2.7195138931274414
1761401366622214000,6.2962138671875,0.79899001121521,-9.343746185302734,-2.699387550354004
1761401366632295400,6.30629541015625,0.8242039084434509,-9.330503463745117,-2.667215585708618
1761401366642375700,6.316375732421875,0.8338555693626404,-9.328108787536621,-2.6517279148101807
1761401366652423200,6.326423095703125,0.8516624569892883,-9.35309886932373,-2.668562173843384
1761401366662537500,6.336537353515625,0.8349030017852783,-9.344793319702148,-2.6875662803649902
1761401366672618500,6.346618408203125,0.8038532137870789,-9.31509017944336,-2.695796251296997
1761401366682699800,6.35669970703125,0.7942764163017273,-9.2864351272583,-2.6945242881774902
1761401366692740900,6.366740966796875,0.7966706156730652,-9.305588722229004,-2.680159091949463
1761401366702861800,6.37686181640625,0.801459014415741,-9.3712797164917,-2.671929121017456
1761401366712920300,6.38692041015625,0.8038532137870789,-9.380781173706055,-2.6623523235321045
1761401366723003600,6.397003662109375,0.7871686220169067,-9.358186721801758,-2.674248456954956
1761401366733103900,6.407103759765625,0.7906103134155273,-9.324666976928711,-2.7124061584472656
1761401366743186200,6.417186279296875,0.8096891045570374,-9.305438995361328,-2.7388172149658203
1761401366753268000,6.42726806640625,0.8228572010993958,-9.286285400390625,-2.723329544067383
1761401366763348500,6.437348388671875,0.7991396188735962,-9.300800323486328,-2.6610803604125977
1761401366773429000,6.447428955078125,0.8099135160446167,-9.322273254394531,-2.6611552238464355
1761401366783520800,6.457520751953125,0.8313117027282715,-9.31494140625,-2.6850972175598145
1761401366793591000,6.467591064453125,0.8264485001564026,-9.304166793823242,-2.7269208431243896
1761401366803672800,6.4776728515625,0.8299649953842163,-9.326837539672852,-2.744877338409424
1761401366813752000,6.487751953125,0.8348281979560852,-9.35317325592041,-2.717418909072876
1761401366823834000,6.497834228515625,0.8264485001564026,-9.356764793395996,-2.7066450119018555
1761401366833915100,6.5079150390625,0.8097639083862305,-9.330577850341797,-2.700584650039673
1761401366843995600,6.51799560546875,0.8217349052429199,-9.323320388793945,-2.698265314102173
1761401366854077000,6.528076904296875,0.8147767782211304,-9.334095001220703,-2.6815807819366455
1761401366864158500,6.538158447265625,0.7945008873939514,-9.31509017944336,-2.6635494232177734
1761401366874239700,6.54823974609375,0.801608681678772,-9.299528121948242,-2.680233955383301
1761401366884300000,6.558300048828125,0.8087164163589478,-9.306635856628418,-2.694674015045166
1761401366894378500,6.56837841796875,0.8254010081291199,-9.31733512878418,-2.7042508125305176
1761401366904459300,6.578459228515625,0.8457517623901367,-9.327959060668945,-2.710386037826538
1761401366914540300,6.588540283203125,0.8492682576179504,-9.318382263183594,-2.716371536254883
1761401366924621000,6.59862109375,0.8254010081291199,-9.308955192565918,-2.716221809387207
1761401366934691000,6.608691162109375,0.8220341801643372,-9.3172607421875,-2.694748878479004
1761401366944791000,6.618791015625,0.8280196785926819,-9.328034400939941,-2.6756701469421387
1761401366954872600,6.62887255859375,0.8160486817359924,-9.322049140930176,-2.695945978164673
1761401366964953900,6.638953857421875,0.8184428811073303,-9.311349868774414,-2.6995372772216797
1761401366975050000,6.649050048828125,0.8064718842506409,-9.304242134094238,-2.691082715988159
1761401366985112600,6.659112548828125,0.8029553890228271,-9.309030532836914,-2.6850972175598145
1761401366995211800,6.669211669921875,0.8160486817359924,-9.320926666259766,-2.691157579421997
1761401367005302000,6.679302001953125,0.824428379535675,-9.330428123474121,-2.692429542541504
1761401367015374000,6.6893740234375,0.8432078957557678,-9.336414337158203,-2.711508274078369
1761401367025454000,6.6994541015625,0.8360252976417542,-9.340004920959473,-2.7102363109588623
1761401367035532000,6.709531982421875,0.8384943008422852,-9.326837539672852,-2.6983401775360107
1761401367045617000,6.719616943359375,0.8301146030426025,-9.312546730041504,-2.691082715988159
1761401367055675100,6.729675048828125,0.8504653573036194,-9.314866065979004,-2.6816556453704834
1761401367065778700,6.73977880859375,0.8529343605041504,-9.328034400939941,-2.664896011352539
1761401367075859200,6.749859130859375,0.8313865661621094,-9.341277122497559,-2.6565163135528564
1761401367085941200,6.759941162109375,0.8098387122154236,-9.355717658996582,-2.671929121017456
1761401367096021000,6.77002099609375,0.7870938181877136,-9.34501838684082,-2.677764892578125
1761401367106103000,6.78010302734375,0.7716063261032104,-9.328333854675293,-2.681281328201294
1761401367116183800,6.790183837890625,0.7668179273605347,-9.333196640014648,-2.6681132316589355
1761401367126250000,6.80025,0.7931541204452515,-9.321150779724121,-2.6634745597839355
1761401367136346400,6.810346435546875,0.8230816721916199,-9.342473983764648,-2.6588358879089355
1761401367146428000,6.820427978515625,0.8289923667907715,-9.326911926269531,-2.6588358879089355
1761401367156482300,6.830482421875,0.8121581077575684,-9.328184127807617,-2.693402051925659
1761401367166589700,6.840589599609375,0.8049007058143616,-9.307833671569824,-2.722057580947876
1761401367176669200,6.850669189453125,0.8178443312644958,-9.31149959564209,-2.7207858562469482
1761401367186750500,6.86075048828125,0.8442553877830505,-9.319804191589355,-2.670732021331787
1761401367196831700,6.870831787109375,0.8360252976417542,-9.342549324035645,-2.626514196395874
1761401367206891000,6.88089111328125,0.8215852975845337,-9.353398323059082,-2.6455929279327393
1761401367216994000,6.890994140625,0.8394669890403748,-9.35085391998291,-2.670732021331787
1761401367227074600,6.901074462890625,0.8298153281211853,-9.335366249084473,-2.696993350982666
1761401367237155600,6.911155517578125,0.8310124278068542,-9.331775665283203,-2.7076923847198486
1761401367247214300,6.92121435546875,0.8346037268638611,-9.329380989074707,-2.701781749725342
1761401367257318400,6.931318359375,0.8478466868400574,-9.331700325012207,-2.676717519760132
1761401367267398400,6.9413984375,0.8442553877830505,-9.335291862487793,-2.6671407222747803
1761401367277480200,6.951480224609375,0.85622638463974,-9.332897186279297,-2.6636242866516113
1761401367287561200,6.961561279296875,0.8419359922409058,-9.335366249084473,-2.653972625732422
1761401367297642000,6.97164208984375,0.81806880235672,-9.347412109375,-2.6420016288757324
1761401367307722800,6.98172265625,0.8169465065002441,-9.365368843078613,-2.6144683361053467
1761401367317804300,6.99180419921875,0.8241291046142578,-9.374871253967285,-2.603769063949585
1761401367327885300,7.00188525390625,0.8001871109008789,-9.363049507141113,-2.6251673698425293
1761401367337966300,7.01196630859375,0.8001871109008789,-9.354669570922852,-2.6203789710998535
1761401367348046600,7.022046630859375,0.800261914730072,-9.364246368408203,-2.6024973392486572
1761401367358128600,7.032128662109375,0.7858967185020447,-9.354744911193848,-2.6024224758148193
1761401367368211200,7.042211181640625,0.7858967185020447,-9.351153373718262,-2.610727310180664
1761401367378291000,7.052291015625,0.7917325496673584,-9.329605102539062,-2.6466403007507324
1761401367388371500,7.062371337890625,0.8012345433235168,-9.322347640991211,-2.6740987300872803
1761401367398429700,7.0724296875,0.834678590297699,-9.335366249084473,-2.676642656326294
1761401367408532700,7.08253271484375,0.8298901915550232,-9.340154647827148,-2.6814310550689697
1761401367418614800,7.09261474609375,0.8074445128440857,-9.324592590332031,-2.679036855697632
1761401367428671700,7.102671630859375,0.7894880175590515,-9.304391860961914,-2.6885387897491455
1761401367438776300,7.1127763671875,0.8050503134727478,-9.31269645690918,-2.6910078525543213
1761401367448856800,7.12285693359375,0.7942764163017273,-9.335441589355469,-2.6838252544403076
1761401367458938600,7.132938720703125,0.8098387122154236,-9.3497314453125,-2.6815059185028076
1761401367469019400,7.143019287109375,0.8289175033569336,-9.356764793395996,-2.695945978164673
1761401367479100200,7.15310009765625,0.8289175033569336,-9.362750053405762,-2.688763380050659
1761401367489181700,7.163181640625,0.8194155097007751,-9.34965705871582,-2.675520420074463
1761401367499262500,7.173262451171875,0.8215852975845337,-9.325864791870117,-2.652700662612915
1761401367509325800,7.183325927734375,0.8324339985847473,-9.318681716918945,-2.6455929279327393
1761401367519424500,7.193424560546875,0.8060229420661926,-9.330727577209473,-2.6633996963500977
1761401367529505500,7.203505615234375,0.7879916429519653,-9.312846183776855,-2.7003602981567383
1761401367539605500,7.21360546875,0.7760206460952759,-9.324816703796387,-2.7182419300079346
1761401367549666800,7.223666748046875,0.7940519452095032,-9.318831443786621,-2.6884641647338867
1761401367559748600,7.23374853515625,0.8132804036140442,-9.333122253417969,-2.6431238651275635
1761401367569828900,7.243828857421875,0.8192659020423889,-9.365368843078613,-2.627636432647705
1761401367589969000,7.263968994140625,0.8315361738204956,-9.331700325012207,-2.6529250144958496
1761401367600072400,7.274072509765625,0.8386439681053162,-9.31965446472168,-2.687641143798828
1761401367610130400,7.28413037109375,0.8302642703056335,-9.324442863464355,-2.692354679107666
1761401367620235000,7.294235107421875,0.8290671706199646,-9.329231262207031,-2.6983401775360107
1761401367630314800,7.304314697265625,0.844704270362854,-9.328034400939941,-2.6518027782440186
1761401367640396500,7.314396484375,0.8016834855079651,-9.319878578186035,-2.652775526046753
1761401367650477600,7.3244775390625,0.8135048747062683,-9.301847457885742,-2.7089643478393555
1761401367660558600,7.33455859375,0.834678590297699,-9.29458999633789,-2.759242534637451
1761401367670617000,7.3446171875,0.8238298296928406,-9.307758331298828,-2.7866263389587402
1761401367680721400,7.354721435546875,0.8287678956985474,-9.316062927246094,-2.7508628368377686
1761401367690801700,7.3648017578125,0.8467243909835815,-9.335142135620117,-2.718690872192383
1761401367700883000,7.374883056640625,0.8467991948127747,-9.336414337158203,-2.7031285762786865
1761401367710963700,7.384963623046875,0.8265233039855957,-9.359158515930176,-2.692354679107666
1761401367721045000,7.395044921875,0.8277204036712646,-9.359158515930176,-2.692354679107666
1761401367731126300,7.405126220703125,0.8061726093292236,-9.337760925292969,-2.7101614475250244
1761401367741207600,7.41520751953125,0.7965958118438721,-9.322273254394531,-2.7124807834625244
1761401367751265000,7.42526513671875,0.8109610080718994,-9.298331260681152,-2.700584650039673
1761401367761368800,7.435368896484375,0.8109610080718994,-9.298255920410156,-2.7136778831481934
1761401367771450000,7.4454501953125,0.819340705871582,-9.300650596618652,-2.7041759490966797
1761401367781532700,7.45553271484375,0.8241291046142578,-9.288679122924805,-2.692279815673828
1761401367791612000,7.46561181640625,0.820537805557251,-9.288679122924805,-2.698190450668335
1761401367801693400,7.475693359375,0.8216601014137268,-9.28149700164795,-2.719738245010376
1761401367811774700,7.485774658203125,0.83714759349823,-9.2933931350708,-2.7329063415527344
1761401367821854200,7.495854248046875,0.832059919834137,-9.319804191589355,-2.747122049331665
1761401367831935500,7.505935546875,0.8417115211486816,-9.337685585021973,-2.7281179428100586
1761401367842016300,7.516016357421875,0.8226327300071716,-9.341352462768555,-2.7148749828338623
1761401367852098300,7.526098388671875,0.8273463249206543,-9.325789451599121,-2.724451780319214
1761401367862178600,7.536178466796875,0.8176947236061096,-9.301922798156738,-2.7578210830688477
1761401367872259600,7.546259521484375,0.8164976239204407,-9.305513381958008,-2.7602152824401855
1761401367882341400,7.55634130859375,0.8439561128616333,-9.310153007507324,-2.7603650093078613
1761401367892380200,7.566380126953125,0.8678981065750122,-9.300500869750977,-2.765228033065796
1761401367902502700,7.576502685546875,0.8608651757240295,-9.28613567352295,-2.766425132751465
1761401367912583700,7.586583740234375,0.8441057205200195,-9.288604736328125,-2.762759208679199
1761401367922643500,7.5966435546875,0.8274959921836853,-9.311424255371094,-2.722057580947876
1761401367932746200,7.606746337890625,0.8144775032997131,-9.325864791870117,-2.680233955383301
1761401367942827800,7.616827880859375,0.8313117027282715,-9.330577850341797,-2.6552445888519287
1761401367952908500,7.626908447265625,0.8456020951271057,-9.346065521240234,-2.6648213863372803
1761401367962988500,7.636988525390625,0.8300397992134094,-9.34846019744873,-2.670732021331787
1761401367973070600,7.647070556640625,0.8539817929267883,-9.331625938415527,-2.670881748199463
1761401367983151600,7.657151611328125,0.8603414297103882,-9.330278396606445,-2.6746225357055664
1761401367993233200,7.667233154296875,0.8663269281387329,-9.329081535339355,-2.659135103225708
1761401368003313700,7.677313720703125,0.8567501306533813,-9.327959060668945,-2.6566660404205322
1761401368013371400,7.687371337890625,0.8495675325393677,-9.350629806518555,-2.662651538848877
1761401368023475700,7.697475830078125,0.8375216722488403,-9.364995002746582,-2.686518669128418
1761401368033556200,7.70755615234375,0.8267477750778198,-9.338733673095703,-2.694823741912842
1761401368043637000,7.717636962890625,0.8327332735061646,-9.307683944702148,-2.7103111743927
1761401368053695500,7.727695556640625,0.8722376227378845,-9.302745819091797,-2.6913819313049316
1761401368063799600,7.737799560546875,0.8637082576751709,-9.330353736877441,-2.6529998779296875
1761401368073881000,7.747881103515625,0.8445546627044678,-9.334019660949707,-2.667290449142456
1761401368083962000,7.757962158203125,0.8611644506454468,-9.319580078125,-2.6996121406555176
1761401368094043000,7.76804296875,0.8228572010993958,-9.305438995361328,-2.7149498462677
1761401368104123600,7.77812353515625,0.8240543007850647,-9.313743591308594,-2.723329544067383
1761401368114190600,7.788190673828125,0.8515127897262573,-9.318382263183594,-2.734178304672241
1761401368124285000,7.798284912109375,0.8418611884117126,-9.31965446472168,-2.7485435009002686
1761401368134366200,7.8083662109375,0.817919135093689,-9.312546730041504,-2.763956308364868
1761401368144447500,7.818447509765625,0.8513631820678711,-9.302820205688477,-2.7700164318084717
1761401368154536200,7.8285361328125,0.8634089827537537,-9.314791679382324,-2.740238666534424
1761401368164578800,7.838578857421875,0.8718634843826294,-9.337461471557617,-2.710460662841797
1761401368174690600,7.848690673828125,0.860042154788971,-9.337535858154297,-2.6852469444274902
1761401368184771600,7.858771484375,0.8325836658477783,-9.329306602478027,-2.6791865825653076
1761401368194852400,7.868852294921875,0.8158242106437683,-9.322198867797852,-2.6815059185028076
1761401368204910600,7.87891064453125,0.7870938181877136,-9.319953918457031,-2.6909329891204834
1761401368215015700,7.889015625,0.8049755096435547,-9.317410469055176,-2.700584650039673
1761401368225095700,7.899095703125,0.8432827591896057,-9.31845760345459,-2.695945978164673
1761401368235177000,7.909177001953125,0.8708160519599915,-9.311200141906738,-2.6769418716430664
1761401368245257500,7.919257568359375,0.8660276532173157,-9.336338996887207,-2.666167974472046
1761401368255338500,7.92933837890625,0.8457517623901367,-9.331625938415527,-2.6589105129241943
1761401368265419500,7.93941943359375,0.8170961737632751,-9.329380989074707,-2.6587610244750977
1761401368275500500,7.94950048828125,0.7907599210739136,-9.324742317199707,-2.6670658588409424
1761401368285582600,7.95958251953125,0.8051251173019409,-9.31389331817627,-2.6682629585266113
1761401368295662800,7.969662841796875,0.8170961737632751,-9.322198867797852,-2.6611552238464355
1761401368305744000,7.979743896484375,0.8158242106437683,-9.342549324035645,-2.673126220703125
1761401368315825000,7.989824951171875,0.8313117027282715,-9.347187995910645,-2.6827778816223145
1761401368325905200,7.9999052734375,0.8194155097007751,-9.360430717468262,-2.674398183822632
1761401368335987700,8.00998779296875,0.8015338182449341,-9.350929260253906,-2.6635494232177734
1761401368356148200,8.030148193359375,0.823006808757782,-9.301847457885742,-2.6862943172454834
1761401368366229800,8.040229736328126,0.840888500213623,-9.31613826751709,-2.6863691806793213
1761401368376311300,8.050311279296874,0.8349778652191162,-9.31494140625,-2.670806884765625
1761401368386389800,8.0603896484375,0.8337807655334473,-9.340080261230469,-2.668412685394287
1761401368396473900,8.070473876953125,0.8361001014709473,-9.348384857177734,-2.6827778816223145
1761401368406553900,8.080553955078125,0.8443301916122437,-9.341127395629883,-2.718690872192383
1761401368416635100,8.09063525390625,0.8335562944412231,-9.331625938415527,-2.737769603729248
1761401368426715100,8.100715087890626,0.8383446931838989,-9.314866065979004,-2.7257986068725586
1761401368436822000,8.110822021484376,0.8576479554176331,-9.302895545959473,-2.691232442855835
1761401368446878500,8.12087841796875,0.8539817929267883,-9.316062927246094,-2.694823741912842
1761401368456958500,8.13095849609375,0.8265233039855957,-9.320926666259766,-2.697068214416504
1761401368467039500,8.14103955078125,0.8061726093292236,-9.326987266540527,-2.7160720825195312
1761401368477122000,8.1511220703125,0.7953238487243652,-9.306711196899414,-2.7315597534179688
1761401368487202600,8.16120263671875,0.8337059020996094,-9.305364608764648,-2.7030537128448486
1761401368497283600,8.17128369140625,0.8349778652191162,-9.325715065002441,-2.666018486022949
1761401368507364600,8.181364501953125,0.840888500213623,-9.323320388793945,-2.6827778816223145
1761401368517433000,8.19143310546875,0.875454843044281,-9.32548999786377,-2.705672264099121
1761401368527526700,8.201526611328125,0.8539069890975952,-9.313593864440918,-2.7270705699920654
1761401368537607700,8.211607666015626,0.8251765966415405,-9.322123527526855,-2.7531824111938477
1761401368547666200,8.221666259765625,0.85622638463974,-9.343446731567383,-2.7426328659057617
1761401368557771300,8.231771240234375,0.8372223973274231,-9.338808059692383,-2.717418909072876
1761401368567850200,8.241850341796875,0.8373720645904541,-9.35077953338623,-2.672078847885132
1761401368577931300,8.25193115234375,0.839766263961792,-9.337685585021973,-2.6553192138671875
1761401368588014600,8.2620146484375,0.8313865661621094,-9.320926666259766,-2.6803836822509766
1761401368598093800,8.27209375,0.8145523071289062,-9.3126220703125,-2.695796251296997
1761401368608175600,8.282175537109374,0.8241291046142578,-9.305438995361328,-2.6898856163024902
1761401368618256000,8.292255859375,0.8110358119010925,-9.324592590332031,-2.6862194538116455
1761401368628336600,8.302336669921875,0.8136544823646545,-9.337611198425293,-2.688763380050659
1761401368638417200,8.312417236328125,0.8017582893371582,-9.323395729064941,-2.668412685394287
1761401368648498700,8.322498779296875,0.8125321865081787,-9.325715065002441,-2.668487548828125
1761401368658568000,8.33256787109375,0.8100631833076477,-9.322123527526855,-2.692354679107666
1761401368668661200,8.3426611328125,0.8136544823646545,-9.334019660949707,-2.6983401775360107
1761401368678741000,8.352740966796874,0.8148515820503235,-9.337611198425293,-2.697143077850342
1761401368688804600,8.3628046875,0.825625479221344,-9.31845760345459,-2.6852469444274902
1761401368698903600,8.372903564453125,0.8112602829933167,-9.31494140625,-2.6875662803649902
1761401368708984600,8.382984619140625,0.7990648150444031,-9.304316520690918,-2.6885387897491455
1761401368719065900,8.39306591796875,0.7978677153587341,-9.31149959564209,-2.695721387863159
1761401368729146400,8.403146484375,0.8061726093292236,-9.318607330322266,-2.695796251296997
1761401368739227600,8.4132275390625,0.8337059020996094,-9.319729804992676,-2.7030537128448486
1761401368749308700,8.42330859375,0.8563759922981262,-9.331550598144531,-2.7020063400268555
1761401368759390000,8.433389892578125,0.8444049954414368,-9.322049140930176,-2.719813108444214
1761401368769470000,8.443469970703125,0.8312368988990784,-9.313743591308594,-2.7281179428100586
1761401368779551700,8.4535517578125,0.8215852975845337,-9.311349868774414,-2.7400143146514893
1761401368789613800,8.46361376953125,0.8203881978988647,-9.326987266540527,-2.7101614475250244
1761401368799713500,8.473713623046875,0.8383446931838989,-9.319729804992676,-2.7006595134735107
1761401368809788400,8.483788330078125,0.8335562944412231,-9.31381893157959,-2.694674015045166
1761401368819875800,8.493875732421875,0.8286930918693542,-9.328108787536621,-2.716146945953369
1761401368829957000,8.50395703125,0.8274211287498474,-9.329306602478027,-2.7340288162231445
1761401368840037600,8.51403759765625,0.8358756899833679,-9.329306602478027,-2.722132444381714
1761401368850118100,8.5241181640625,0.8467243909835815,-9.301773071289062,-2.7030537128448486
1761401368860199700,8.53419970703125,0.855029284954071,-9.308880805969238,-2.7043256759643555
1761401368870280700,8.54428076171875,0.8549544811248779,-9.319729804992676,-2.698265314102173
1761401368880361700,8.55436181640625,0.8381202220916748,-9.335291862487793,-2.7125556468963623
1761401368890443000,8.564443115234376,0.8225579261779785,-9.335366249084473,-2.724451780319214
1761401368900501200,8.574501220703125,0.7998130321502686,-9.319878578186035,-2.745850086212158
1761401368910582500,8.58458251953125,0.8225579261779785,-9.311424255371094,-2.7423336505889893
1761401368920685300,8.594685302734375,0.8453776836395264,-9.306635856628418,-2.7041759490966797
1761401368930748000,8.604747802734375,0.8239794969558716,-9.325864791870117,-2.6610803604125977
1761401368940848400,8.614848388671875,0.8096891045570374,-9.339107513427734,-2.6479122638702393
1761401368950929200,8.62492919921875,0.841038167476654,-9.340080261230469,-2.643348217010498
1761401368961009400,8.635009521484376,0.8003367185592651,-9.324666976928711,-2.6682629585266113
1761401368971091500,8.645091552734375,0.8265233039855957,-9.306635856628418,-2.6886885166168213
1761401368981149200,8.655149169921875,0.8671499490737915,-9.304017066955566,-2.709188938140869
1761401368991253000,8.6652529296875,0.8610895872116089,-9.289727210998535,-2.7282676696777344
1761401369001333800,8.675333740234375,0.8586205840110779,-9.306411743164062,-2.7473464012145996
1761401369011415600,8.68541552734375,0.8598176836967468,-9.339855194091797,-2.7486183643341064
1761401369021496600,8.69549658203125,0.8239794969558716,-9.340004920959473,-2.7329063415527344
1761401369031577000,8.7055771484375,0.8054243922233582,-9.349581718444824,-2.691232442855835
1761401369041657600,8.71565771484375,0.787617564201355,-9.347262382507324,-2.6552445888519287
1761401369051739100,8.7257392578125,0.809165358543396,-9.331700325012207,-2.6338462829589844
1761401369061820200,8.735820068359375,0.8223334550857544,-9.32085132598877,-2.642300844192505
1761401369071901000,8.74590087890625,0.8390180468559265,-9.306411743164062,-2.662651538848877
1761401369081982200,8.755982177734374,0.8138789534568787,-9.301773071289062,-2.6744730472564697
1761401369092063200,8.766063232421875,0.8161983489990234,-9.304092407226562,-2.686444044113159
1761401369102143700,8.776143798828125,0.8257002830505371,-9.306486129760742,-2.6972179412841797
1761401369112225300,8.786225341796875,0.800411581993103,-9.325715065002441,-2.713827610015869
1761401369122305800,8.796305908203125,0.8159738779067993,-9.338808059692383,-2.711508274078369
1761401369132365600,8.806365478515625,0.8148515820503235,-9.347187995910645,-2.6816556453704834
1761401369142467000,8.816467041015626,0.8328080773353577,-9.35309886932373,-2.681730270385742
1761401369152549600,8.826549560546875,0.8590695261955261,-9.344643592834473,-2.679410934448242
1761401369162630100,8.836630126953125,0.8662521243095398,-9.314716339111328,-2.68180513381958
1761401369172711700,8.846711669921875,0.8518868684768677,-9.295638084411621,-2.6913070678710938
1761401369182792000,8.8567919921875,0.8435071706771851,-9.2980318069458,-2.7055976390838623
1761401369192873500,8.86687353515625,0.8346037268638611,-9.319804191589355,-2.7029788494110107
1761401369202954800,8.876954833984374,0.8130559325218201,-9.329455375671387,-2.7183916568756104
1761401369213013500,8.887013427734376,0.8201637268066406,-9.354519844055176,-2.7148749828338623
1761401369223080200,8.897080078125,0.8286182284355164,-9.34853458404541,-2.696993350982666
1761401369233197800,8.90719775390625,0.8298901915550232,-9.326987266540527,-2.679036855697632
1761401369243279400,8.917279296875,0.8453776836395264,-9.31613826751709,-2.701781749725342
1761401369253360000,8.927360107421874,0.8429086208343506,-9.336488723754883,-2.722132444381714
1761401369263440100,8.937440185546874,0.8346037268638611,-9.326987266540527,-2.7089643478393555
1761401369273521000,8.94752099609375,0.8316109776496887,-9.311274528503418,-2.688838243484497
1761401369283579100,8.9575791015625,0.8292916417121887,-9.306561470031738,-2.668487548828125
1761401369293683200,8.96768310546875,0.8233060836791992,-9.31613826751709,-2.669684648513794
1761401369303764700,8.9777646484375,0.8387935757637024,-9.35781192779541,-2.681730270385742
1761401369313823200,8.9878232421875,0.8304138779640198,-9.367464065551758,-2.6757447719573975
1761401369323926300,8.99792626953125,0.8172457814216614,-9.344793319702148,-2.6840498447418213
1761401369334007000,9.008007080078125,0.8052747845649719,-9.319729804992676,-2.7042508125305176
1761401369344089000,9.018089111328125,0.7885153889656067,-9.31621265411377,-2.7077672481536865
1761401369354169600,9.028169677734375,0.8251765966415405,-9.333046913146973,-2.6694600582122803
1761401369364250000,9.03825,0.7894132137298584,-9.329605102539062,-2.631078004837036
1761401369374331100,9.0483310546875,0.8072949051856995,-9.325939178466797,-2.651428699493408
1761401369384412700,9.05841259765625,0.8322843909263611,-9.305513381958008,-2.673051357269287
1761401369394493400,9.068493408203125,0.8536825180053711,-9.301773071289062,-2.7077672481536865
1761401369404555300,9.07855517578125,0.8500164151191711,-9.31494140625,-2.73769474029541
1761401369414656300,9.08865625,0.8465747833251953,-9.35205078125,-2.692279815673828
1761401369424736000,9.098736083984376,0.8443301916122437,-9.344868659973145,-2.648061990737915
1761401369434818300,9.108818359375,0.8372972011566162,-9.34846019744873,-2.650456190109253
1761401369444876500,9.11887646484375,0.8408136963844299,-9.342473983764648,-2.6588358879089355
1761401369454979800,9.128979736328125,0.834678590297699,-9.349581718444824,-2.7054479122161865
1761401369465060900,9.139060791015625,0.8203133344650269,-9.334169387817383,-2.719663381576538
1761401369475141600,9.1491416015625,0.8037036061286926,-9.330653190612793,-2.698115587234497
1761401369485223400,9.159223388671874,0.8265233039855957,-9.31381893157959,-2.6671407222747803
1761401369495304000,9.169303955078124,0.820537805557251,-9.307908058166504,-2.6587610244750977
1761401369505385500,9.179385498046875,0.8025813102722168,-9.300800323486328,-2.672976493835449
1761401369515466500,9.189466552734375,0.8133552074432373,-9.303045272827148,-2.698190450668335
1761401369525547000,9.199547119140625,0.8085668087005615,-9.31621265411377,-2.7112836837768555
1761401369535628800,9.20962890625,0.7978677153587341,-9.317484855651855,-2.696918487548828
1761401369545708800,9.219708740234376,0.8182184100151062,-9.341277122497559,-2.6827030181884766
1761401369555790000,9.2297900390625,0.8265981078147888,-9.35085391998291,-2.6779894828796387
1761401369575929300,9.249929443359376,0.8146271109580994,-9.340154647827148,-2.6839001178741455
1761401369586032600,9.26003271484375,0.8169465065002441,-9.307833671569824,-2.7029788494110107
1761401369596112400,9.2701123046875,0.8121581077575684,-9.300724983215332,-2.696993350982666
1761401369606194400,9.2801943359375,0.8241291046142578,-9.3126220703125,-2.695871114730835
1761401369616276500,9.2902763671875,0.8324339985847473,-9.313743591308594,-2.7090392112731934
1761401369626357200,9.300357177734375,0.8372223973274231,-9.31613826751709,-2.7090392112731934
1761401369636437500,9.3104375,0.8240543007850647,-9.326911926269531,-2.7078421115875244
1761401369646519300,9.320519287109375,0.8301146030426025,-9.342399597167969,-2.691157579421997
1761401369656599800,9.330599853515626,0.840888500213623,-9.331625938415527,-2.675595283508301
1761401369666658000,9.340657958984375,0.842235267162323,-9.331700325012207,-2.643348217010498
1761401369676761900,9.350761962890624,0.8477718830108643,-9.34614086151123,-2.6455929279327393
1761401369686843100,9.360843017578125,0.8286182284355164,-9.347412109375,-2.6610803604125977
1761401369696929000,9.370928955078124,0.8082675337791443,-9.315239906311035,-2.6657190322875977
1761401369707004700,9.381004638671875,0.7915829420089722,-9.30454158782959,-2.666841506958008
1761401369717066000,9.39106591796875,0.8215104341506958,-9.331924438476562,-2.634744167327881
1761401369727166700,9.401166748046874,0.8370727896690369,-9.351003646850586,-2.6192567348480225
1761401369737249000,9.4112490234375,0.8478466868400574,-9.353322982788086,-2.6348938941955566
1761401369747328300,9.421328369140625,0.8297405242919922,-9.350929260253906,-2.674248456954956
1761401369757393200,9.43139306640625,0.809165358543396,-9.348684310913086,-2.7206361293792725
1761401369767468300,9.44146826171875,0.7947252988815308,-9.347487449645996,-2.7421090602874756
1761401369777550000,9.451550048828125,0.8236053586006165,-9.337835311889648,-2.6992380619049072
1761401369787653400,9.4616533203125,0.8143278360366821,-9.317708969116211,-2.608333110809326
1761401369797734700,9.471734619140625,0.815599799156189,-9.327285766601562,-2.591648578643799
1761401369807815700,9.481815673828125,0.8298153281211853,-9.339107513427734,-2.6251673698425293
1761401369817881000,9.491881103515626,0.8343793153762817,-9.31277084350586,-2.6872670650482178
1761401369827955700,9.501955810546875,0.809165358543396,-9.296086311340332,-2.734926462173462
1761401369838058500,9.51205859375,0.8634089827537537,-9.318382263183594,-2.7450270652770996
1761401369848139000,9.522138916015624,0.8741828799247742,-9.332673072814941,-2.7259483337402344
1761401369858222600,9.53222265625,0.8658779859542847,-9.345841407775879,-2.712780237197876
1761401369868301600,9.542301513671875,0.8468740582466125,-9.344718933105469,-2.687641143798828
1761401369878382800,9.5523828125,0.8349030017852783,-9.35197639465332,-2.6851720809936523
1761401369888463400,9.56246337890625,0.8098387122154236,-9.352126121520996,-2.675520420074463
1761401369898545000,9.572544921875,0.7967454195022583,-9.342623710632324,-2.6598832607269287
1761401369908625700,9.582625732421874,0.8028057813644409,-9.31389331817627,-2.6384103298187256
1761401369918684400,9.592684326171875,0.8087164163589478,-9.304391860961914,-2.632349967956543
1761401369928787500,9.602787353515625,0.8241291046142578,-9.309104919433594,-2.647987127304077
1761401369938868500,9.612868408203125,0.816871702671051,-9.324666976928711,-2.673051357269287
1761401369948949000,9.622948974609375,0.8300397992134094,-9.336488723754883,-2.6791117191314697
1761401369959031000,9.633031005859374,0.8217349052429199,-9.359308242797852,-2.655169725418091
1761401369969111800,9.64311181640625,0.8050503134727478,-9.374945640563965,-2.6228480339050293
1761401369979191800,9.65319189453125,0.7919570207595825,-9.348684310913086,-2.627561569213867
1761401369989274600,9.663274658203125,0.8086416125297546,-9.343820571899414,-2.646790027618408
1761401369999354600,9.673354736328125,0.8157494068145752,-9.321076393127441,-2.652775526046753
1761401370009436400,9.6834365234375,0.7847744226455688,-9.30454158782959,-2.6250925064086914
1761401370019517000,9.693516845703124,0.7932289242744446,-9.321226119995117,-2.5929205417633057
1761401370029597400,9.703597412109374,0.8265981078147888,-9.336564064025879,-2.630105495452881
1761401370039678700,9.7136787109375,0.8192659020423889,-9.341352462768555,-2.6874165534973145
1761401370049760000,9.723760009765625,0.815599799156189,-9.336564064025879,-2.7064952850341797
1761401370059841000,9.733841064453125,0.8143278360366821,-9.337760925292969,-2.722057580947876
1761401370069921800,9.743921875,0.8203133344650269,-9.329380989074707,-2.7160720825195312
1761401370079979500,9.7539794921875,0.8277204036712646,-9.326911926269531,-2.697068214416504
1761401370090084600,9.764084716796875,0.820687472820282,-9.31501579284668,-2.651653289794922
1761401370100129000,9.77412890625,0.8147019743919373,-9.341352462768555,-2.645667791366577
1761401370110218500,9.784218505859375,0.7919570207595825,-9.364096641540527,-2.656291961669922
1761401370120302600,9.794302490234376,0.7859715223312378,-9.356988906860352,-2.675445556640625
1761401370130384600,9.804384521484375,0.7966706156730652,-9.334243774414062,-2.6850223541259766
1761401370140488000,9.814488037109374,0.7883657217025757,-9.304391860961914,-2.6837503910064697
1761401370150570800,9.82457080078125,0.8182932734489441,-9.305513381958008,-2.6563668251037598
1761401370160650200,9.834650146484375,0.8278700709342957,-9.338883399963379,-2.6385598182678223
1761401370170732000,9.84473193359375,0.8087164163589478,-9.354519844055176,-2.6420764923095703
1761401370180812500,9.8548125,0.7751976251602173,-9.361777305603027,-2.6657938957214355
1761401370190852900,9.864852783203125,0.7811083197593689,-9.34501838684082,-2.702829360961914
1761401370200975600,9.8749755859375,0.8132804036140442,-9.328108787536621,-2.723329544067383
1761401370211057000,9.885056884765625,0.8182184100151062,-9.319804191589355,-2.668337821960449
1761401370221114400,9.8951142578125,0.7837269902229309,-9.315239906311035,-2.6179847717285156
1761401370231217700,9.9052177734375,0.7789385318756104,-9.315239906311035,-2.632349967956543
1761401370241299000,9.915298828125,0.7936030626296997,-9.311424255371094,-2.6648213863372803
1761401370251379500,9.92537939453125,0.8030301928520203,-9.31853199005127,-2.7019314765930176
1761401370261461500,9.93546142578125,0.8220341801643372,-9.341127395629883,-2.7199628353118896
1761401370271542800,9.945542724609375,0.8268225789070129,-9.369783401489258,-2.7188405990600586
1761401370281622500,9.95562255859375,0.8292916417121887,-9.353023529052734,-2.685321569442749
1761401370291703600,9.96570361328125,0.8281693458557129,-9.331550598144531,-2.687715768814087
1761401370301761800,9.97576171875,0.8102127909660339,-9.3172607421875,-2.688838243484497
1761401370311866000,9.9858662109375,0.7922562956809998,-9.31494140625,-2.7006595134735107
1761401370321947100,9.995947021484374,0.7882909178733826,-9.31277084350586,-2.6945242881774902
1761401370332003600,10.006003662109375,0.7847744226455688,-9.325939178466797,-2.676567792892456
1761401370342109200,10.016109130859375,0.7728782296180725,-9.330802917480469,-2.6478374004364014
1761401370352190000,10.02618994140625,0.7979425191879272,-9.34501838684082,-2.6634745597839355
1761401370362271500,10.036271484375,0.8051251173019409,-9.343746185302734,-2.6599581241607666
1761401370372352500,10.0463525390625,0.8063222169876099,-9.336564064025879,-2.6635494232177734
1761401370382409000,10.056408935546875,0.8063222169876099,-9.330653190612793,-2.651578426361084
1761401370392514600,10.0665146484375,0.7932289242744446,-9.331850051879883,-2.6467151641845703
1761401370402594800,10.0765947265625,0.8134300112724304,-9.329455375671387,-2.626439332962036
1761401370412679200,10.08667919921875,0.8313865661621094,-9.344943046569824,-2.625391721725464
1761401370422756900,10.0967568359375,0.8254010081291199,-9.34614086151123,-2.6384851932525635
1761401370432838100,10.106838134765624,0.819340705871582,-9.350929260253906,-2.6599581241607666
1761401370442919400,10.11691943359375,0.81806880235672,-9.34614086151123,-2.671929121017456
1761401370453000200,10.127000244140625,0.816871702671051,-9.34614086151123,-2.6862194538116455
1761401370463081500,10.13708154296875,0.8120833039283752,-9.330653190612793,-2.6814310550689697
1761401370473162200,10.147162353515625,0.8049007058143616,-9.317484855651855,-2.696918487548828
1761401370483242800,10.15724267578125,0.8109610080718994,-9.318607330322266,-2.7113585472106934
1761401370493324500,10.167324462890624,0.8098387122154236,-9.317410469055176,-2.677839756011963
1761401370503405600,10.177405517578125,0.8182932734489441,-9.342549324035645,-2.646864891052246
1761401370513486300,10.187486328125,0.7980921864509583,-9.340229988098145,-2.6204538345336914
1761401370523567400,10.1975673828125,0.8147019743919373,-9.338957786560059,-2.648061990737915
1761401370533648400,10.2076484375,0.8062474131584167,-9.353322982788086,-2.677914619445801
1761401370543730200,10.217730224609374,0.8086416125297546,-9.365219116210938,-2.6635494232177734
1761401370553810000,10.227809814453124,0.801459014415741,-9.360506057739258,-2.6671407222747803
1761401370563891700,10.2378916015625,0.8003367185592651,-9.306711196899414,-2.671854257583618
1761401370573972000,10.247971923828125,0.823006808757782,-9.294665336608887,-2.6898856163024902
1761401370584053500,10.258053466796875,0.821809709072113,-9.31501579284668,-2.671929121017456
1761401370594134800,10.268134765625,0.8015338182449341,-9.336638450622559,-2.6658687591552734
1761401370604215800,10.2782158203125,0.7919570207595825,-9.328258514404297,-2.674248456954956
1761401370614296800,10.288296875,0.7894880175590515,-9.335441589355469,-2.6861445903778076
1761401370624378000,10.298378173828125,0.7846996188163757,-9.361777305603027,-2.682553291320801
1761401370634459000,10.308458984375,0.8254758715629578,-9.355642318725586,-2.644545316696167
1761401370644539100,10.3185390625,0.7968950867652893,-9.333122253417969,-2.606163263320923
1761401370654621200,10.32862109375,0.7992892861366272,-9.316362380981445,-2.626439332962036
1761401370664701700,10.33870166015625,0.8099135160446167,-9.326987266540527,-2.6587610244750977
1761401370674759700,10.348759765625,0.7978677153587341,-9.331850051879883,-2.6850223541259766
1761401370684865000,10.358864990234375,0.8085668087005615,-9.335366249084473,-2.7077672481536865
1761401370694944300,10.3689443359375,0.8396914005279541,-9.349581718444824,-2.692354679107666
1761401370705025500,10.379025634765625,0.8480711579322815,-9.349581718444824,-2.669684648513794
1761401370715106600,10.3891064453125,0.8373720645904541,-9.338808059692383,-2.667290449142456
1761401370725188000,10.39918798828125,0.8328080773353577,-9.331550598144531,-2.690035343170166
1761401370735268600,10.4092685546875,0.8099883794784546,-9.338808059692383,-2.7043256759643555
1761401370745350100,10.41935009765625,0.7814075946807861,-9.328184127807617,-2.6910078525543213
1761401370755430000,10.429429931640625,0.7719056010246277,-9.31389331817627,-2.675445556640625
1761401370765491500,10.439491455078125,0.7947252988815308,-9.337760925292969,-2.6396822929382324
1761401370775593000,10.449593017578126,0.7994388937950134,-9.353248596191406,-2.645742416381836
1761401370785673500,10.459673583984374,0.8113350868225098,-9.363946914672852,-2.6541221141815186
1761401370795732200,10.469732177734375,0.7981669902801514,-9.344868659973145,-2.6624271869659424
1761401370805836000,10.4798359375,0.7967454195022583,-9.31149959564209,-2.675445556640625
1761401370815916300,10.489916259765625,0.8038532137870789,-9.298331260681152,-2.6838252544403076
1761401370825997600,10.49999755859375,0.8217349052429199,-9.330503463745117,-2.694674015045166
1761401370836078600,10.51007861328125,0.8204630017280579,-9.341277122497559,-2.7066450119018555
1761401370846160100,10.52016015625,0.8276455998420715,-9.331700325012207,-2.7090392112731934
1761401370856242200,10.5302421875,0.8073697090148926,-9.338957786560059,-2.7053730487823486
1761401370866322400,10.540322509765625,0.803928017616272,-9.323470115661621,-2.670657157897949
1761401370876403000,10.55040283203125,0.8063222169876099,-9.344943046569824,-2.646790027618408
1761401370886484200,10.560484130859376,0.8063970804214478,-9.350929260253906,-2.6324996948242188
1761401370896565500,10.5705654296875,0.8314613699913025,-9.336488723754883,-2.648136615753174
1761401370906646300,10.580646240234374,0.8242039084434509,-9.326911926269531,-2.674323320388794
1761401370916726800,10.590726806640625,0.8170213103294373,-9.307833671569824,-2.6910078525543213
1761401370926807800,10.600807861328125,0.8194155097007751,-9.29227066040039,-2.6898107528686523
1761401370936890000,10.61089013671875,0.8265233039855957,-9.297059059143066,-2.7041759490966797
1761401370946970000,10.62097021484375,0.819340705871582,-9.317410469055176,-2.6886885166168213
1761401370957052000,10.631052001953124,0.8360252976417542,-9.340004920959473,-2.7031285762786865
1761401370967112000,10.64111181640625,0.8605659008026123,-9.340080261230469,-2.719663381576538
1761401370977213000,10.651212890625,0.8533832430839539,-9.325789451599121,-2.7304375171661377
1761401370987293700,10.661293701171875,0.8402151465415955,-9.317484855651855,-2.7362732887268066
1761401370997374200,10.671374267578125,0.8390180468559265,-9.297134399414062,-2.726696491241455
1761401371007456500,10.68145654296875,0.8487445116043091,-9.292346000671387,-2.6861445903778076
1761401371017530600,10.691530517578125,0.8487445116043091,-9.31269645690918,-2.671854257583618
1761401371027618600,10.70161865234375,0.8271966576576233,-9.321150779724121,-2.6884641647338867
1761401371037698800,10.71169873046875,0.8210615515708923,-9.335441589355469,-2.7362732887268066
1761401371047780400,10.7217802734375,0.8187421560287476,-9.317484855651855,-2.770914316177368
1761401371057860000,10.731860107421875,0.8366238474845886,-9.305438995361328,-2.768594980239868
1761401371067943000,10.74194287109375,0.8548048138618469,-9.3126220703125,-2.7065701484680176
1761401371078023700,10.752023681640624,0.8453028202056885,-9.326987266540527,-2.675445556640625
1761401371088066600,10.762066650390626,0.8428338170051575,-9.344868659973145,-2.7053730487823486
1761401371098187800,10.772187744140625,0.8618378043174744,-9.332822799682617,-2.7245266437530518
1761401371108266800,10.782266845703125,0.8450784087181091,-9.325715065002441,-2.745924949645996
1761401371118347500,10.792347412109375,0.8605659008026123,-9.326837539672852,-2.7519853115081787
1761401371128428500,10.802428466796876,0.8574234843254089,-9.287332534790039,-2.759317398071289
1761401371138509000,10.812509033203124,0.8634089827537537,-9.274165153503418,-2.75812029838562
1761401371148590800,10.8225908203125,0.8693944811820984,-9.2980318069458,-2.737844467163086
1761401371158671600,10.832671630859375,0.8705915808677673,-9.336264610290527,-2.7271454334259033
1761401371168753400,10.84275341796875,0.8515127897262573,-9.324368476867676,-2.7258734703063965
1761401371178834000,10.852833984375,0.8096891045570374,-9.306635856628418,-2.7328317165374756
1761401371188915000,10.8629150390625,0.8144775032997131,-9.3126220703125,-2.7292404174804688
1761401371198972700,10.87297265625,0.81806880235672,-9.353248596191406,-2.7102363109588623
1761401371209076700,10.88307666015625,0.8145523071289062,-9.35205078125,-2.693476915359497
1761401371219143000,10.893142822265625,0.840888500213623,-9.308955192565918,-2.688763380050659
1761401371229239600,10.903239501953125,0.8242039084434509,-9.283890724182129,-2.6922049522399902
1761401371239319800,10.91331982421875,0.8277952671051025,-9.283890724182129,-2.6803088188171387
1761401371249400600,10.923400634765626,0.8277204036712646,-9.305364608764648,-2.7042508125305176
1761401371259481000,10.933481201171874,0.8073697090148926,-9.300724983215332,-2.7100865840911865
1761401371269562600,10.943562744140625,0.820537805557251,-9.303045272827148,-2.701781749725342
1761401371279643600,10.9536435546875,0.8145523071289062,-9.338883399963379,-2.692279815673828
1761401371289725200,10.96372509765625,0.823156476020813,-9.348310470581055,-2.7067947387695312
1761401371299806200,10.97380615234375,0.8280196785926819,-9.323246002197266,-2.693626642227173
1761401371309886500,10.983886474609376,0.8447791337966919,-9.306411743164062,-2.686518669128418
1761401371319945200,10.9939453125,0.8387935757637024,-9.300500869750977,-2.692429542541504
1761401371330048800,11.004048828125,0.8375216722488403,-9.307608604431152,-2.713977336883545
1761401371340130600,11.014130615234375,0.8314613699913025,-9.327959060668945,-2.7282676696777344
1761401371350221000,11.024220947265626,0.8518120646476746,-9.36013126373291,-2.7152493000030518
1761401371360291800,11.034291748046876,0.8207622766494751,-9.344718933105469,-2.7031285762786865
1761401371370372600,11.04437255859375,0.8373720645904541,-9.331700325012207,-2.6613047122955322
1761401371380454400,11.054454345703125,0.8625859618186951,-9.324442863464355,-2.638709545135498
1761401371390534700,11.06453466796875,0.840888500213623,-9.31733512878418,-2.692354679107666
1761401371400597800,11.07459765625,0.8513631820678711,-9.307608604431152,-2.7676970958709717
1761401371410674200,11.084674072265624,0.8536825180053711,-9.2980318069458,-2.7999441623687744
1761401371420778000,11.094778076171876,0.8262988328933716,-9.296984672546387,-2.7783215045928955
1761401371430859000,11.10485888671875,0.8300397992134094,-9.301773071289062,-2.719738245010376
1761401371440940000,11.11493994140625,0.8337807655334473,-9.329306602478027,-2.6648213863372803
1761401371451021600,11.125021484375,0.8275707960128784,-9.340229988098145,-2.6455929279327393
1761401371461101800,11.135101806640625,0.83348149061203,-9.329380989074707,-2.675445556640625
1761401371471159800,11.145159912109374,0.83580082654953,-9.31621265411377,-2.7112836837768555
1761401371481268700,11.155268798828125,0.8488193154335022,-9.301773071289062,-2.7400143146514893
1761401371491344400,11.165344482421874,0.8642320036888123,-9.294515609741211,-2.7735331058502197
1761401371501426400,11.175426513671875,0.8690952062606812,-9.305289268493652,-2.744877338409424
1761401371511507000,11.1855068359375,0.8464999198913574,-9.299453735351562,-2.7257237434387207
1761401371521587200,11.195587158203125,0.8453028202056885,-9.2910737991333,-2.724451780319214
1761401371531668200,11.205668212890625,0.8492682576179504,-9.307608604431152,-2.73305606842041
1761401371541749200,11.215749267578126,0.8384943008422852,-9.313669204711914,-2.737769603729248
1761401371551830800,11.225830810546874,0.8624363541603088,-9.32548999786377,-2.7211599349975586
1761401371561911300,11.235911376953124,0.8899696469306946,-9.32302188873291,-2.6938509941101074
1761401371571993000,11.2459931640625,0.8791957497596741,-9.320701599121094,-2.6985645294189453
1761401371582074000,11.25607421875,0.8744073510169983,-9.343372344970703,-2.703352928161621
1761401371592154600,11.266154541015625,0.8755296468734741,-9.32541561126709,-2.7260231971740723
1761401371602230300,11.276230224609375,0.8432827591896057,-9.312397003173828,-2.740238666534424
1761401371612317000,11.28631689453125,0.8310872912406921,-9.31613826751709,-2.7281179428100586
1761401371622398200,11.296398193359375,0.8419359922409058,-9.311349868774414,-2.693476915359497
1761401371632479500,11.3064794921875,0.8252514004707336,-9.331775665283203,-2.6862194538116455
1761401371642559700,11.316559814453125,0.835950493812561,-9.322123527526855,-2.6862943172454834
1761401371652640500,11.326640625,0.8418611884117126,-9.295862197875977,-2.7089643478393555
1761401371662703600,11.33670361328125,0.853757381439209,-9.301697731018066,-2.7329812049865723
1761401371672802600,11.346802490234374,0.835950493812561,-9.309030532836914,-2.700584650039673
1761401371682884400,11.35688427734375,0.8181436061859131,-9.303119659423828,-2.657489061355591
1761401371692964400,11.36696435546875,0.8260744214057922,-9.2957124710083,-2.63631534576416
1761401371703046400,11.37704638671875,0.8582465052604675,-9.32661247253418,-2.661604166030884
1761401371713130800,11.387130859375,0.8449287414550781,-9.345766067504883,-2.701033592224121
1761401371723207700,11.397207763671876,0.8437316417694092,-9.345766067504883,-2.702155828475952
1761401371733289500,11.40728955078125,0.8414122462272644,-9.32548999786377,-2.6913819313049316
1761401371743370200,11.417370361328125,0.8510639071464539,-9.32429313659668,-2.661604166030884
1761401371753451300,11.427451171875,0.8438813090324402,-9.32429313659668,-2.663923501968384
1761401371763532500,11.437532470703125,0.831910252571106,-9.338658332824707,-2.6698341369628906
1761401371773590300,11.44759033203125,0.8105869293212891,-9.329530715942383,-2.68487286567688
1761401371783693800,11.45769384765625,0.8046014308929443,-9.31045150756836,-2.6943747997283936
1761401371793775000,11.467775146484374,0.8153753280639648,-9.30918025970459,-2.701632261276245
1761401371803856400,11.4778564453125,0.8571990132331848,-9.330503463745117,-2.692279815673828
1761401371813938000,11.48793798828125,0.8763526678085327,-9.345991134643555,-2.6803836822509766
1761401371824018200,11.49801806640625,0.8763526678085327,-9.357961654663086,-2.672078847885132
1761401371834099500,11.508099365234376,0.8883984684944153,-9.338808059692383,-2.6577134132385254
1761401371844181000,11.518180908203124,0.8596680760383606,-9.3126220703125,-2.6623523235321045
1761401371854261000,11.528260986328124,0.8096142411231995,-9.291297912597656,-2.676492929458618
1761401371864342000,11.538342041015625,0.8131307363510132,-9.321076393127441,-2.6885387897491455
1761401371874423300,11.54842333984375,0.8239046335220337,-9.366491317749023,-2.6838252544403076
1761401371884504300,11.55850439453125,0.8310872912406921,-9.370007514953613,-2.6623523235321045
1761401371894585300,11.56858544921875,0.8347533941268921,-9.34853458404541,-2.6587610244750977
1761401371904666000,11.578666015625,0.8514379858970642,-9.322123527526855,-2.671929121017456
1761401371914748000,11.588747802734375,0.8382698893547058,-9.299528121948242,-2.6898107528686523
1761401371924828400,11.598828369140625,0.8252514004707336,-9.285238265991211,-2.649109363555908
1761401371934909000,11.608908935546875,0.8173954486846924,-9.320926666259766,-2.645742416381836
1761401371944991000,11.618990966796876,0.8221089839935303,-9.338808059692383,-2.6541969776153564
1761401371955071500,11.629071533203126,0.843582034111023,-9.326762199401855,-2.6769418716430664
1761401371965153300,11.6391533203125,0.8292167782783508,-9.330428123474121,-2.6840498447418213
1761401371975233500,11.649233642578125,0.8351274728775024,-9.345915794372559,-2.6960208415985107
1761401371985281500,11.659281494140625,0.8554781675338745,-9.350629806518555,-2.6901848316192627
1761401371995395600,11.6693955078125,0.8447791337966919,-9.363798141479492,-2.6746225357055664
1761401372005476400,11.679476318359375,0.826972246170044,-9.371054649353027,-2.63631534576416
1761401372015557600,11.6895576171875,0.8389432430267334,-9.366266250610352,-2.619630813598633
1761401372025638400,11.699638427734374,0.8162731528282166,-9.354445457458496,-2.620678186416626
1761401372035720000,11.709719970703125,0.8031050562858582,-9.330577850341797,-2.625391721725464
1761401372045801200,11.71980126953125,0.8138041496276855,-9.330503463745117,-2.6385598182678223
1761401372055862000,11.729862060546875,0.8161983489990234,-9.338883399963379,-2.639831781387329
1761401372065962500,11.73996240234375,0.8364742398262024,-9.329231262207031,-2.6458921432495117
1761401372076043500,11.75004345703125,0.8495675325393677,-9.335142135620117,-2.666242837905884
1761401372086103300,11.760103271484375,0.8125321865081787,-9.328108787536621,-2.668487548828125
1761401372096205600,11.77020556640625,0.7962965369224548,-9.327211380004883,-2.6728270053863525
1761401372106286000,11.7802861328125,0.7939023375511169,-9.331999778747559,-2.6704328060150146
1761401372116368400,11.790368408203125,0.7975684404373169,-9.3427734375,-2.662127733230591
1761401372126448600,11.80044873046875,0.7844003438949585,-9.367912292480469,-2.6465654373168945
1761401372136530700,11.81053076171875,0.7820809483528137,-9.344045639038086,-2.645293712615967
1761401372146610400,11.8206103515625,0.7952490448951721,-9.322497367858887,-2.6417770385742188
1761401372156691000,11.83069091796875,0.7928548455238342,-9.324892044067383,-2.638185739517212
1761401372166773000,11.84077294921875,0.8143278360366821,-9.340304374694824,-2.63594126701355
1761401372176853800,11.850853759765625,0.8132804036140442,-9.34621524810791,-2.630030632019043
1761401372186934500,11.8609345703125,0.8072949051856995,-9.335515975952148,-2.6455180644989014
1761401372197015800,11.871015869140624,0.8000374436378479,-9.3450927734375,-2.672976493835449
1761401372207097000,11.88109716796875,0.7892635464668274,-9.349881172180176,-2.6705074310302734
1761401372217155300,11.8911552734375,0.7941267490386963,-9.373748779296875,-2.653822898864746
1761401372227259100,11.901259033203125,0.8049755096435547,-9.366565704345703,-2.6227731704711914
1761401372237317000,11.911317138671874,0.8073697090148926,-9.36776351928711,-2.6168625354766846
1761401372247420700,11.921420654296876,0.8049007058143616,-9.357064247131348,-2.6371383666992188
1761401372257501700,11.931501708984374,0.7979425191879272,-9.339032173156738,-2.6634745597839355
1761401372267582500,11.94158251953125,0.7775918245315552,-9.323545455932617,-2.6705822944641113
1761401372277664500,11.95166455078125,0.7775918245315552,-9.324742317199707,-2.6705822944641113
1761401372287744800,11.961744873046875,0.7908347249031067,-9.331850051879883,-2.655094861984253
1761401372297803500,11.971803466796874,0.8075193166732788,-9.330653190612793,-2.6575639247894287
1761401372307907300,11.9819072265625,0.823006808757782,-9.355642318725586,-2.6624271869659424
1761401372317992700,11.99199267578125,0.8110358119010925,-9.343746185302734,-2.6839001178741455
1761401372328045300,12.00204541015625,0.8013842105865479,-9.331775665283203,-2.7076923847198486
1761401372338150400,12.012150390625,0.8016834855079651,-9.330428123474121,-2.7281928062438965
1761401372348235000,12.022235107421874,0.7958475947380066,-9.329306602478027,-2.7043256759643555
1761401372358311700,12.032311767578125,0.7839514017105103,-9.340080261230469,-2.673201084136963
1761401372368358700,12.042358642578124,0.7780407071113586,-9.331775665283203,-2.646864891052246
1761401372378474200,12.05247412109375,0.7804349064826965,-9.325789451599121,-2.652850389480591
1761401372388555500,12.062555419921875,0.7552958130836487,-9.305588722229004,-2.6670658588409424
1761401372398636300,12.07263623046875,0.7754969000816345,-9.31501579284668,-2.699387550354004
1761401372408717000,12.082717041015625,0.7957727909088135,-9.341202735900879,-2.718616008758545
1761401372418775300,12.092775390625,0.8145523071289062,-9.342473983764648,-2.7041759490966797
1761401372428878800,12.10287890625,0.8337807655334473,-9.348384857177734,-2.662501811981201
1761401372438959900,12.1129599609375,0.8075193166732788,-9.353322982788086,-2.6611552238464355
1761401372449041400,12.12304150390625,0.7870938181877136,-9.352200508117676,-2.6861445903778076
1761401372459121700,12.13312158203125,0.7906103134155273,-9.34853458404541,-2.704101085662842
1761401372469203000,12.143202880859375,0.7955483198165894,-9.341426849365234,-2.656291961669922
1761401372479284700,12.15328466796875,0.8160486817359924,-9.333046913146973,-2.6169371604919434
1761401372489343700,12.16334375,0.8076689839363098,-9.317484855651855,-2.6109516620635986
1761401372499446500,12.173446533203125,0.8147767782211304,-9.324592590332031,-2.6432735919952393
1761401372509527000,12.183527099609375,0.8182932734489441,-9.334169387817383,-2.648061990737915
1761401372519608600,12.193608642578125,0.7980173826217651,-9.339032173156738,-2.6455929279327393
1761401372529689000,12.203689208984375,0.783652126789093,-9.328333854675293,-2.649109363555908
1761401372539735800,12.21373583984375,0.763301432132721,-9.34397029876709,-2.651428699493408
1761401372549851400,12.223851318359374,0.7860463261604309,-9.356988906860352,-2.6443209648132324
1761401372559932700,12.2339326171875,0.7872434258460999,-9.356988906860352,-2.6467151641845703
1761401372569991000,12.243990966796876,0.7860463261604309,-9.358186721801758,-2.6467151641845703
1761401372580093700,12.25409375,0.800411581993103,-9.351003646850586,-2.6431987285614014
1761401372590175200,12.26417529296875,0.802730917930603,-9.323470115661621,-2.6575639247894287
1761401372600255700,12.274255859375,0.7932289242744446,-9.293617248535156,-2.6610803604125977
1761401372610306300,12.284306396484375,0.7751976251602173,-9.312846183776855,-2.678887128829956
1761401372620418800,12.294418701171875,0.8050503134727478,-9.338957786560059,-2.676642656326294
1761401372630499000,12.3044990234375,0.8266729712486267,-9.35205078125,-2.652850389480591
1761401372640580000,12.314580078125,0.8182932734489441,-9.341352462768555,-2.6432735919952393
1761401372650661600,12.32466162109375,0.8326584696769714,-9.31501579284668,-2.649259090423584
1761401372660742100,12.3347421875,0.8232312798500061,-9.31381893157959,-2.648136615753174
1761401372670824400,12.344824462890625,0.8004863858222961,-9.350929260253906,-2.651653289794922
1761401372680900400,12.354900390625,0.7992144823074341,-9.360430717468262,-2.668337821960449
1761401372690985700,12.36498583984375,0.7814075946807861,-9.352200508117676,-2.649184226989746
1761401372701067300,12.3750673828125,0.7719056010246277,-9.340304374694824,-2.6168625354766846
1761401372711134700,12.385134765625,0.7850736975669861,-9.341426849365234,-2.6145429611206055
1761401372721228300,12.395228271484376,0.8197147846221924,-9.35085391998291,-2.6146926879882812
1761401372731309800,12.405309814453124,0.8232312798500061,-9.34846019744873,-2.644545316696167
1761401372741390300,12.415390380859375,0.805349588394165,-9.325715065002441,-2.673201084136963
1761401372751471400,12.425471435546875,0.8064718842506409,-9.31733512878418,-2.697068214416504
1761401372761553200,12.43555322265625,0.7669675350189209,-9.330653190612793,-2.7052981853485107
1761401372771632600,12.445632568359375,0.7898620963096619,-9.340154647827148,-2.648061990737915
1761401372781683700,12.45568359375,0.7804349064826965,-9.325939178466797,-2.606163263320923
1761401372791795200,12.465795166015624,0.769661009311676,-9.337910652160645,-2.6192567348480225
1761401372801854000,12.47585400390625,0.8150012493133545,-9.349581718444824,-2.643423080444336
1761401372811946800,12.48594677734375,0.8363993763923645,-9.326762199401855,-2.6733505725860596
1761401372822039300,12.496039306640625,0.8505401611328125,-9.330353736877441,-2.690109968185425
1761401372832120000,12.5061201171875,0.8349778652191162,-9.349507331848145,-2.692429542541504
1761401372842199800,12.51619970703125,0.8040028810501099,-9.336564064025879,-2.6874914169311523
1761401372852281600,12.526281494140624,0.8075941801071167,-9.355642318725586,-2.675595283508301
1761401372862362600,12.536362548828125,0.8040028810501099,-9.356839179992676,-2.670806884765625
1761401372872444200,12.546444091796875,0.7992144823074341,-9.34733772277832,-2.6803088188171387
1761401372882524400,12.5565244140625,0.8087912797927856,-9.338883399963379,-2.677914619445801
1761401372892605400,12.56660546875,0.825625479221344,-9.343671798706055,-2.64095401763916
1761401372902686500,12.5766865234375,0.8087164163589478,-9.349806785583496,-2.6168625354766846
1761401372912745000,12.586744873046875,0.8051251173019409,-9.34389591217041,-2.6132712364196777
1761401372922807300,12.596807373046875,0.7752724289894104,-9.329680442810059,-2.6059389114379883
1761401372932929500,12.606929443359375,0.764573335647583,-9.332074165344238,-2.6011505126953125
1761401372943011000,12.617010986328125,0.7513304352760315,-9.353622436523438,-2.611849546432495
1761401372953069000,12.627069091796875,0.739359438419342,-9.362076759338379,-2.613046646118164
1761401372963172600,12.637172607421874,0.7549965381622314,-9.357213973999023,-2.5987563133239746
1761401372973254000,12.64725390625,0.7847744226455688,-9.359457969665527,-2.6191818714141846
1761401372983311000,12.65731103515625,0.7739257216453552,-9.352425575256348,-2.6214263439178467
1761401372993415700,12.667415771484375,0.79899001121521,-9.352275848388672,-2.6179847717285156
1761401373003497200,12.677497314453126,0.8097639083862305,-9.352275848388672,-2.612074136734009
1761401373013577500,12.687577392578126,0.8001871109008789,-9.336788177490234,-2.6191818714141846
1761401373023659000,12.697658935546874,0.8013094067573547,-9.315239906311035,-2.6454432010650635
1761401373033720000,12.707719970703126,0.7857470512390137,-9.347561836242676,-2.659733533859253
1761401373043820800,12.71782080078125,0.7701847553253174,-9.359533309936523,-2.663250207901001
1761401373053901800,12.72790185546875,0.7784896492958069,-9.34157657623291,-2.6740241050720215
1761401373063983600,12.737983642578126,0.7933785915374756,-9.340154647827148,-2.668412685394287
1761401373074047700,12.7480478515625,0.7827543020248413,-9.361702919006348,-2.6408793926239014
1761401373084145000,12.758144775390624,0.7983914613723755,-9.379584312438965,-2.6087071895599365
1761401373094225400,12.768225341796875,0.8102876543998718,-9.371204376220703,-2.6099042892456055
1761401373104306700,12.778306640625,0.8054243922233582,-9.347262382507324,-2.6361656188964844
1761401373114388000,12.788387939453125,0.7767688035964966,-9.317484855651855,-2.651578426361084
1761401373124447200,12.798447265625,0.7683143019676208,-9.30918025970459,-2.6622774600982666
1761401373134549800,12.8085498046875,0.7707085013389587,-9.301997184753418,-2.6682629585266113
1761401373144617000,12.818616943359375,0.7935281991958618,-9.323470115661621,-2.6360909938812256
1761401373154712000,12.828712158203125,0.809015691280365,-9.35205078125,-2.6361656188964844
1761401373164791800,12.838791748046875,0.8209867477416992,-9.383026123046875,-2.639831781387329
1761401373174874400,12.848874267578125,0.7921814918518066,-9.378387451171875,-2.6612300872802734
1761401373184954400,12.858954345703125,0.764723002910614,-9.335441589355469,-2.679036855697632
1761401373195035400,12.869035400390626,0.7958475947380066,-9.307833671569824,-2.668337821960449
1761401373205117400,12.879117431640625,0.7947252988815308,-9.326987266540527,-2.6360909938812256
1761401373215197700,12.88919775390625,0.7864952683448792,-9.325864791870117,-2.601449728012085
1761401373225278000,12.89927783203125,0.7872434258460999,-9.331999778747559,-2.609605073928833
1761401373235359500,12.909359375,0.7943512201309204,-9.348684310913086,-2.628758668899536
1761401373245440800,12.919440673828126,0.7882161140441895,-9.34389591217041,-2.6645967960357666
1761401373255522600,12.9295224609375,0.7965209484100342,-9.329455375671387,-2.695721387863159
1761401373265602800,12.939602783203124,0.8144775032997131,-9.337760925292969,-2.6814310550689697
1761401373275687400,12.9496875,0.8157494068145752,-9.343746185302734,-2.6611552238464355
1761401373285764900,12.959764892578125,0.8289175033569336,-9.362825393676758,-2.6564416885375977
