time,seconds_elapsed,z,y,x
1761401360434952700,0.10895263671875,0.6682815551757812,-9.35654067993164,-2.577582597732544
1761401360445041200,0.119041259765625,0.6633434891700745,-9.375245094299316,-2.5965864658355713
1761401360455121700,0.12912158203125,0.6753145456314087,-9.405471801757812,-2.5743653774261475
1761401360465203200,0.139203125,0.6706757545471191,-9.421932220458984,-2.5561842918395996
1761401360475283500,0.149283447265625,0.6602011322975159,-9.40592098236084,-2.5440638065338135
1761401360485364500,0.159364501953125,0.6586298942565918,-9.40135669708252,-2.543016195297241
1761401360495459300,0.169459228515625,0.6718728542327881,-9.399336814880371,-2.567556858062744
1761401360505539600,0.17953955078125,0.6394014954566956,-9.444377899169922,-2.59509015083313
1761401360515632600,0.189632568359375,0.6851157546043396,-9.447295188903809,-2.5603742599487305
1761401360525702000,0.199701904296875,0.6989572644233704,-9.416544914245605,-2.5178024768829346
1761401360535787500,0.20978759765625,0.6674585342407227,-9.386094093322754,-2.4753053188323975
1761401360545865200,0.219865234375,0.6911013126373291,-9.356390953063965,-2.4553287029266357
1761401360555954700,0.22995458984375,0.7101052403450012,-9.370756149291992,-2.4806175231933594
1761401360566024400,0.2400244140625,0.7026981711387634,-9.393575668334961,-2.546158790588379
1761401360576116700,0.25011669921875,0.7255179286003113,-9.434351921081543,-2.604966163635254
1761401360586197800,0.26019775390625,0.7539491057395935,-9.46682357788086,-2.652775526046753
1761401360596267800,0.270267822265625,0.7406313419342041,-9.470190048217773,-2.683600902557373
1761401360606361600,0.280361572265625,0.7387608885765076,-9.434725761413574,-2.677241325378418
1761401360616440000,0.290440185546875,0.7246201038360596,-9.394996643066406,-2.652625799179077
1761401360626522000,0.300522216796875,0.6901286244392395,-9.39365005493164,-2.614393472671509
1761401360636582400,0.31058251953125,0.6841431260108948,-9.38399887084961,-2.6116251945495605
1761401360646684400,0.320684326171875,0.6535422205924988,-9.36589241027832,-2.633023262023926
1761401360656765700,0.330765625,0.6312462687492371,-9.358335494995117,-2.676717519760132
1761401360666835000,0.3408349609375,0.6237643361091614,-9.349507331848145,-2.7287914752960205
1761401360676925700,0.35092578125,0.6040121912956238,-9.310526847839355,-2.7510874271392822
1761401360686988800,0.36098876953125,0.5808931589126587,-9.282769203186035,-2.762833833694458
1761401360697089300,0.37108935546875,0.606930136680603,-9.293243408203125,-2.749441385269165
1761401360707169800,0.381169677734375,0.6376806497573853,-9.333795547485352,-2.726172685623169
1761401360717239300,0.3912392578125,0.6786813735961914,-9.367613792419434,-2.698190450668335
1761401360727320800,0.40132080078125,0.7015759348869324,-9.409213066101074,-2.659209966659546
1761401360737402400,0.41140234375,0.7368155717849731,-9.421333312988281,-2.6215760707855225
1761401360747494100,0.421494140625,0.7453449368476868,-9.412280082702637,-2.583867311477661
1761401360757564200,0.431564208984375,0.7223755717277527,-9.39828872680664,-2.5245361328125
1761401360767663600,0.44166357421875,0.6954407691955566,-9.420061111450195,-2.4964041709899902
1761401360777738500,0.451738525390625,0.6881833672523499,-9.46263313293457,-2.486677646636963
1761401360787807500,0.461807373046875,0.6470330357551575,-9.479393005371094,-2.530222177505493
1761401360797887700,0.4718876953125,0.6096236109733582,-9.429637908935547,-2.5923218727111816
1761401360807958000,0.4819580078125,0.5832874178886414,-9.347412109375,-2.6699090003967285
1761401360818056400,0.492056396484375,0.5722890496253967,-9.294964790344238,-2.747795343399048
1761401360828134000,0.5021337890625,0.5682488083839417,-9.294889450073242,-2.800018787384033
1761401360838224100,0.51222412109375,0.554631769657135,-9.297508239746094,-2.8277766704559326
1761401360848305000,0.522304931640625,0.5689221620559692,-9.31853199005127,-2.8349592685699463
1761401360858374100,0.5323740234375,0.5612158179283142,-9.338508605957031,-2.8767828941345215
1761401360868457500,0.54245751953125,0.5485714673995972,-9.360879898071289,-2.9174845218658447
1761401360878536700,0.55253662109375,0.5209633111953735,-9.367164611816406,-2.938957452774048
1761401360888629200,0.562629150390625,0.49724575877189636,-9.343297004699707,-2.870049238204956
1761401360898710500,0.57271044921875,0.4902876019477844,-9.3497314453125,-2.744877338409424
1761401360908783000,0.582783203125,0.48804304003715515,-9.337835311889648,-2.5502736568450928
1761401360918862300,0.5928623046875,0.47233110666275024,-9.345616340637207,-2.4233062267303467
1761401360928941600,0.602941650390625,0.4916343688964844,-9.410260200500488,-2.387019157409668
1761401360939034000,0.6130341796875,0.5143792629241943,-9.474379539489746,-2.413729429244995
1761401360949114600,0.623114501953125,0.4866963028907776,-9.501463890075684,-2.4677486419677734
1761401360959194000,0.633194091796875,0.45684361457824707,-9.500042915344238,-2.542642116546631
1761401360969277700,0.643277587890625,0.468889445066452,-9.46682357788086,-2.601524591445923
1761401360979349200,0.653349365234375,0.4456208050251007,-9.408164978027344,-2.588580846786499
1761401360989429500,0.663429443359375,0.3874865770339966,-9.331476211547852,-2.5655367374420166
1761401360999509000,0.673509033203125,0.3580079674720764,-9.25531005859375,-2.6175358295440674
1761401361009572900,0.68357275390625,0.3439420461654663,-9.234809875488281,-2.7421839237213135
1761401361019671000,0.693671142578125,0.3415478467941284,-9.247454643249512,-2.900949478149414
1761401361029747500,0.70374755859375,0.342894583940506,-9.268628120422363,-2.9929018020629883
1761401361039844400,0.71384423828125,0.3783586919307709,-9.272668838500977,-3.001730442047119
1761401361049903900,0.72390380859375,0.4322282373905182,-9.270947456359863,-2.96626615524292
1761401361059996700,0.73399658203125,0.4794389009475708,-9.250521659851074,-2.945840835571289
1761401361070083000,0.7440830078125,0.5072714686393738,-9.20667839050293,-2.967987060546875
1761401361080168400,0.75416845703125,0.5098153352737427,-9.202937126159668,-3.0243256092071533
1761401361090249700,0.764249755859375,0.506298840045929,-9.201964378356934,-3.0966005325317383
1761401361100320500,0.774320556640625,0.5293430089950562,-9.225682258605957,-3.1245827674865723
1761401361110391300,0.784391357421875,0.553509533405304,-9.291747093200684,-3.0673465728759766
1761401361120474600,0.794474609375,0.5684732794761658,-9.345242500305176,-2.9578118324279785
1761401361130574300,0.80457421875,0.578947901725769,-9.392378807067871,-2.8417677879333496
1761401361140655600,0.814655517578125,0.5989993214607239,-9.391256332397461,-2.7550528049468994
1761401361150729500,0.8247294921875,0.5686977505683899,-9.414375305175781,-2.671480178833008
1761401361160817200,0.834817138671875,0.564956784248352,-9.435474395751953,-2.5568578243255615
1761401361170887000,0.844886962890625,0.5475988388061523,-9.501090049743652,-2.431835651397705
1761401361180977700,0.854977783203125,0.5467758178710938,-9.578227996826172,-2.2892308235168457
1761401361191059500,0.8650595703125,0.5511901378631592,-9.626261711120605,-2.150442123413086
1761401361201138200,0.87513818359375,0.526799201965332,-9.618556022644043,-2.0667946338653564
1761401361211211300,0.885211181640625,0.48317983746528625,-9.595661163330078,-2.053102731704712
1761401361221303600,0.895303466796875,0.4396352767944336,-9.581894874572754,-2.1039795875549316
1761401361231384000,0.905384033203125,0.4189104735851288,-9.5949125289917,-2.158597230911255
1761401361241454300,0.915454345703125,0.4174889326095581,-9.617583274841309,-2.1432595252990723
1761401361251528700,0.92552880859375,0.4314800500869751,-9.61563777923584,-2.097245931625366
1761401361261615900,0.935615966796875,0.4745756685733795,-9.575310707092285,-2.0264673233032227
1761401361271708000,0.9457080078125,0.4787655174732208,-9.525107383728027,-2.0039467811584473
1761401361281789000,0.955788818359375,0.456095427274704,-9.4915132522583,-2.0813095569610596
1761401361291870200,0.9658701171875,0.4589385390281677,-9.454402923583984,-2.2101473808288574
1761401361301943000,0.975943115234375,0.47966334223747253,-9.398513793945312,-2.3527519702911377
1761401361312016600,0.9860166015625,0.49305590987205505,-9.3735990524292,-2.4595932960510254
1761401361322094300,0.99609423828125,0.5425859689712524,-9.394548416137695,-2.533364772796631
1761401361332194300,1.0061943359375,0.5456535220146179,-9.422530174255371,-2.583942174911499
1761401361342265300,1.016265380859375,0.555828869342804,-9.418116569519043,-2.614243745803833
1761401361352356600,1.026356689453125,0.5686977505683899,-9.398438453674316,-2.662053108215332
1761401361362428400,1.036428466796875,0.5847837924957275,-9.358710289001465,-2.7264719009399414
1761401361372524800,1.04652490234375,0.6272808313369751,-9.356241226196289,-2.7672481536865234
1761401361382598700,1.0565986328125,0.6650643348693848,-9.377863883972168,-2.780266761779785
1761401361392680700,1.0666806640625,0.6466588973999023,-9.407716751098633,-2.7522096633911133
1761401361402746000,1.07674609375,0.5900958776473999,-9.415572166442871,-2.654571056365967
1761401361412833300,1.086833251953125,0.5250035524368286,-9.396867752075195,-2.5736920833587646
1761401361422923800,1.096923828125,0.47913962602615356,-9.415946006774902,-2.503661632537842
1761401361433001000,1.1070009765625,0.4808604419231415,-9.440037727355957,-2.452709913253784
1761401361443097300,1.117097412109375,0.4554968774318695,-9.461360931396484,-2.431162118911743
1761401361453164500,1.12716455078125,0.45355159044265747,-9.442582130432129,-2.399139642715454
1761401361463248100,1.137248046875,0.47824180126190186,-9.43607234954834,-2.394426107406616
1761401361473329000,1.147328857421875,0.4729296565055847,-9.462782859802246,-2.4017584323883057
1761401361483402000,1.157402099609375,0.5070470571517944,-9.48994255065918,-2.405574083328247
1761401361493491000,1.167490966796875,0.526799201965332,-9.48575210571289,-2.3733272552490234
1761401361503572000,1.177572021484375,0.5296422839164734,-9.46263313293457,-2.308833360671997
1761401361513641500,1.187641357421875,0.5777508020401001,-9.468693733215332,-2.242469072341919
1761401361523734000,1.197734130859375,0.632293701171875,-9.496451377868652,-2.189272880554199
1761401361533804800,1.2078046875,0.6583306193351746,-9.524957656860352,-2.1740846633911133
1761401361543884800,1.217884765625,0.6671592593193054,-9.600150108337402,-2.1576993465423584
1761401361553977000,1.22797705078125,0.6720224618911743,-9.640103340148926,-2.1554548740386963
1761401361564057600,1.2380576171875,0.6922235488891602,-9.587580680847168,-2.1502175331115723
1761401361574127600,1.248127685546875,0.7095815539360046,-9.523759841918945,-2.1645078659057617
1761401361584211200,1.258211181640625,0.7083844542503357,-9.4729585647583,-2.231395959854126
1761401361594290400,1.26829052734375,0.6589292287826538,-9.440486907958984,-2.3235726356506348
1761401361604370700,1.27837060546875,0.6322188973426819,-9.430161476135254,-2.3931541442871094
1761401361614463700,1.288463623046875,0.592939019203186,-9.43031120300293,-2.4175450801849365
1761401361624544000,1.2985439453125,0.5791723728179932,-9.390357971191406,-2.441636800765991
1761401361634625300,1.308625244140625,0.5538088083267212,-9.344269752502441,-2.4853310585021973
1761401361644711000,1.3187109375,0.5257517099380493,-9.30109977722168,-2.563516616821289
1761401361654776300,1.3287763671875,0.5162497162818909,-9.274239540100098,-2.644545316696167
1761401361664868900,1.338868896484375,0.5190180540084839,-9.275362014770508,-2.7065701484680176
1761401361674950000,1.348949951171875,0.5342062711715698,-9.279027938842773,-2.7335798740386963
1761401361685030700,1.35903076171875,0.5820154547691345,-9.296759605407715,-2.7171945571899414
1761401361695100200,1.36910009765625,0.6284031271934509,-9.285985946655273,-2.6909329891204834
1761401361705191700,1.379191650390625,0.6596025824546814,-9.250297546386719,-2.6950480937957764
1761401361715263700,1.389263671875,0.693345844745636,-9.216179847717285,-2.701183319091797
1761401361725354800,1.399354736328125,0.732850193977356,-9.224709510803223,-2.714052200317383
1761401361735426000,1.409426025390625,0.764573335647583,-9.264139175415039,-2.7375452518463135
1761401361745518300,1.419518310546875,0.8161234855651855,-9.312472343444824,-2.748244285583496
1761401361755586300,1.42958642578125,0.8292916417121887,-9.353023529052734,-2.736722230911255
1761401361765667300,1.439667236328125,0.8024316430091858,-9.414973258972168,-2.714052200317383
1761401361775748400,1.449748291015625,0.7496095895767212,-9.447744369506836,-2.688164710998535
1761401361785829400,1.459829345703125,0.7053917050361633,-9.45874309539795,-2.659284830093384
1761401361795922000,1.469921875,0.6836193799972534,-9.465177536010742,-2.64057993888855
1761401361805991700,1.47999169921875,0.6839186549186707,-9.457321166992188,-2.6327240467071533
1761401361816084200,1.490084228515625,0.6743418574333191,-9.444228172302246,-2.583343744277954
1761401361826164700,1.500164794921875,0.6753145456314087,-9.462035179138184,-2.545485258102417
1761401361836225800,1.510225830078125,0.6658873558044434,-9.47183609008789,-2.5486276149749756
1761401361846315500,1.5203154296875,0.6573579907417297,-9.46375560760498,-2.5795278549194336
1761401361856397300,1.530397216796875,0.6554875373840332,-9.459490776062012,-2.648510694503784
1761401361866488600,1.540488525390625,0.6548141837120056,-9.436820983886719,-2.7154736518859863
1761401361876570400,1.5505703125,0.6638672351837158,-9.403451919555664,-2.7609634399414062
1761401361886639600,1.5606396484375,0.6801029443740845,-9.364022254943848,-2.738966703414917
1761401361896720600,1.570720703125,0.673069953918457,-9.348609924316406,-2.704026460647583
1761401361906802000,1.580802001953125,0.6471078395843506,-9.339406967163086,-2.6927287578582764
1761401361916894700,1.590894775390625,0.6271312236785889,-9.340977668762207,-2.696918487548828
1761401361926978600,1.600978515625,0.6236895322799683,-9.360879898071289,-2.6966941356658936
1761401361937034200,1.6110341796875,0.6089502573013306,-9.388113975524902,-2.688912868499756
1761401361947137300,1.62113720703125,0.6517465710639954,-9.390507698059082,-2.6337714195251465
1761401361957207600,1.63120751953125,0.6821978688240051,-9.396642684936523,-2.6327240467071533
1761401361967299800,1.6412998046875,0.6708253622055054,-9.40135669708252,-2.6074352264404297
1761401361977380900,1.651380859375,0.6536918878555298,-9.389310836791992,-2.6063129901885986
1761401361987452200,1.6614521484375,0.6463596224784851,-9.386841773986816,-2.614842414855957
1761401361997542400,1.67154248046875,0.6323685050010681,-9.403077125549316,-2.6109516620635986
1761401362007612200,1.681612060546875,0.618302583694458,-9.409886360168457,-2.591498851776123
1761401362017705500,1.69170556640625,0.6232406497001648,-9.409137725830078,-2.5785553455352783
1761401362027774200,1.701774169921875,0.6150105595588684,-9.38437271118164,-2.567556858062744
1761401362037856000,1.71185595703125,0.618302583694458,-9.385869026184082,-2.5934441089630127
1761401362047936500,1.7219365234375,0.5959317684173584,-9.3921537399292,-2.6137948036193848
1761401362058028800,1.73202880859375,0.5596446394920349,-9.377190589904785,-2.642824649810791
1761401362068101600,1.7421015625,0.5422118902206421,-9.361927032470703,-2.6477625370025635
1761401362078182100,1.75218212890625,0.5460276007652283,-9.368511199951172,-2.635193109512329
1761401362088263400,1.762263427734375,0.5437830686569214,-9.37853717803955,-2.6162638664245605
1761401362098341400,1.77234130859375,0.541987419128418,-9.384298324584961,-2.591573715209961
1761401362108434000,1.782433837890625,0.5358522534370422,-9.38669204711914,-2.525733232498169
1761401362118505200,1.792505126953125,0.530614972114563,-9.391256332397461,-2.529773473739624
1761401362128580900,1.802580810546875,0.5365256667137146,-9.403302192687988,-2.532616376876831
1761401362138677000,1.812677001953125,0.5403413772583008,-9.403900146484375,-2.547729969024658
1761401362148750300,1.822750244140625,0.5626373887062073,-9.410260200500488,-2.557231903076172
1761401362158840000,1.832840087890625,0.5647323131561279,-9.413028717041016,-2.5719711780548096
1761401362168914200,1.8429140625,0.5665279626846313,-9.414599418640137,-2.549076557159424
1761401362179001000,1.8530009765625,0.5718401074409485,-9.412653923034668,-2.53725528717041
1761401362189065700,1.863065673828125,0.5818658471107483,-9.394847869873047,-2.519822359085083
1761401362199163100,1.8731630859375,0.5776011347770691,-9.385719299316406,-2.508150815963745
1761401362209234400,1.883234375,0.5851578712463379,-9.387365341186523,-2.528650999069214
1761401362219314000,1.89331396484375,0.6186766624450684,-9.408164978027344,-2.561721086502075
1761401362229389600,1.9033896484375,0.6396259665489197,-9.420210838317871,-2.578629970550537
1761401362239476700,1.913476806640625,0.6473323106765747,-9.431283950805664,-2.550049304962158
1761401362249568000,1.923568115234375,0.6444891691207886,-9.428216934204102,-2.558877944946289
1761401362259634000,1.933634033203125,0.6588543653488159,-9.401805877685547,-2.5264813899993896
1761401362269719000,1.943718994140625,0.6271312236785889,-9.399636268615723,-2.498798370361328
1761401362279803400,1.953803466796875,0.6530933380126953,-9.382951736450195,-2.498948097229004
1761401362289891000,1.96389111328125,0.6557868123054504,-9.37277603149414,-2.5234885215759277
1761401362299973000,1.97397314453125,0.6439654231071472,-9.353996276855469,-2.5616462230682373
1761401362310044700,1.984044677734375,0.6343138217926025,-9.348011016845703,-2.61588978767395
1761401362320146400,1.994146484375,0.6397007703781128,-9.38317584991455,-2.6548705101013184
1761401362330217200,2.00421728515625,0.6703016757965088,-9.3805570602417,-2.6563668251037598
1761401362340280300,2.0142802734375,0.6836193799972534,-9.372551918029785,-2.6226234436035156
1761401362350378800,2.024378662109375,0.7047930955886841,-9.375618934631348,-2.627187490463257
1761401362360448500,2.034448486328125,0.7451952695846558,-9.367314338684082,-2.658461809158325
1761401362370541000,2.044541015625,0.7656956315040588,-9.3689603805542,-2.6944496631622314
1761401362380621600,2.05462158203125,0.7636007070541382,-9.375469207763672,-2.7078421115875244
1761401362390703400,2.064703369140625,0.8114098906517029,-9.376666069030762,-2.6972925662994385
1761401362400783600,2.07478369140625,0.8301894664764404,-9.372551918029785,-2.674173593521118
1761401362410863000,2.084863037109375,0.8451532125473022,-9.371953010559082,-2.638859272003174
1761401362420945400,2.0949453125,0.8734347224235535,-9.388413429260254,-2.6378116607666016
1761401362431026200,2.105026123046875,0.8970774412155151,-9.404349327087402,-2.682927370071411
1761401362441108500,2.1151083984375,0.8949825167655945,-9.389909744262695,-2.738442897796631
1761401362451189500,2.125189453125,0.8818144202232361,-9.371877670288086,-2.7574470043182373
1761401362461253000,2.135253173828125,0.8737339973449707,-9.358634948730469,-2.751685857772827
1761401362471339300,2.14533935546875,0.8411877751350403,-9.353622436523438,-2.740612745285034
1761401362481425200,2.155425048828125,0.8164227604866028,-9.343596458435059,-2.741360902786255
1761401362491513300,2.165513427734375,0.7965958118438721,-9.341352462768555,-2.7490673065185547
1761401362501593900,2.17559375,0.7636755108833313,-9.31965446472168,-2.7525088787078857
1761401362511661600,2.18566162109375,0.7593360543251038,-9.321524620056152,-2.7510125637054443
1761401362521756200,2.195756103515625,0.7542483806610107,-9.35781192779541,-2.7367970943450928
1761401362531837000,2.2058369140625,0.7537246346473694,-9.368436813354492,-2.7143514156341553
1761401362541918000,2.21591796875,0.7442226409912109,-9.345317840576172,-2.7082910537719727
1761401362551999200,2.225999267578125,0.7732523083686829,-9.344643592834473,-2.708665132522583
1761401362562080300,2.236080322265625,0.7772177457809448,-9.328034400939941,-2.7193641662597656
1761401362572161500,2.24616162109375,0.7753472328186035,-9.316062927246094,-2.7380688190460205
1761401362582244400,2.256244384765625,0.7847744226455688,-9.304092407226562,-2.7311108112335205
1761401362592309500,2.2663095703125,0.7689876556396484,-9.28957748413086,-2.7275943756103516
1761401362602392800,2.276392822265625,0.7542483806610107,-9.314192771911621,-2.718466281890869
1761401362612486000,2.28648583984375,0.7597101330757141,-9.335142135620117,-2.708665132522583
1761401362622565600,2.296565673828125,0.7434744238853455,-9.344345092773438,-2.6950480937957764
1761401362632632800,2.3066328125,0.7274632453918457,-9.344269752502441,-2.675370693206787
1761401362642728200,2.316728271484375,0.711227536201477,-9.329830169677734,-2.6711809635162354
1761401362652798000,2.3267978515625,0.7451204657554626,-9.349881172180176,-2.6763434410095215
1761401362662879700,2.336879638671875,0.7879168391227722,-9.376741409301758,-2.645143985748291
1761401362672971800,2.3469716796875,0.7897124886512756,-9.386841773986816,-2.6280105113983154
1761401362683052300,2.35705224609375,0.8182932734489441,-9.396119117736816,-2.6344449520111084
1761401362693127400,2.36712744140625,0.8365490436553955,-9.390059471130371,-2.634744167327881
1761401362703203600,2.37720361328125,0.8119336366653442,-9.366415977478027,-2.672527551651001
1761401362713295400,2.38729541015625,0.768389105796814,-9.306785583496094,-2.722731113433838
1761401362723365600,2.39736572265625,0.7583633661270142,-9.293766975402832,-2.7358992099761963
1761401362733458000,2.4074580078125,0.7664438486099243,-9.346888542175293,-2.7205612659454346
1761401362743539000,2.4175390625,0.7387608885765076,-9.398887634277344,-2.7048494815826416
1761401362753620000,2.427619873046875,0.7332990765571594,-9.40060806274414,-2.7253496646881104
1761401362763678200,2.43767822265625,0.7131728529930115,-9.36237621307373,-2.733654499053955
1761401362773782500,2.447782470703125,0.714893639087677,-9.327285766601562,-2.7649288177490234
1761401362783865300,2.457865234375,0.7642740607261658,-9.306785583496094,-2.7444286346435547
1761401362793944000,2.467944091796875,0.7554454803466797,-9.299304008483887,-2.7176434993743896
1761401362804013800,2.478013916015625,0.7666682600975037,-9.330653190612793,-2.713229179382324
1761401362814095600,2.488095703125,0.7790881991386414,-9.366565704345703,-2.762160539627075
1761401362824187100,2.498187255859375,0.769810676574707,-9.372551918029785,-2.7701661586761475
1761401362834263600,2.508263671875,0.7682394981384277,-9.37165355682373,-2.7766754627227783
1761401362844349200,2.51834912109375,0.7608324289321899,-9.369110107421875,-2.765078544616699
1761401362854418400,2.52841845703125,0.7707833051681519,-9.336264610290527,-2.750488758087158
1761401362864511500,2.538511474609375,0.768538773059845,-9.314043045043945,-2.763582229614258
1761401362874591500,2.548591552734375,0.7841010689735413,-9.317185401916504,-2.7858781814575195
1761401362884661800,2.558661865234375,0.7656208276748657,-9.314416885375977,-2.8067526817321777
1761401362894754300,2.56875439453125,0.7586626410484314,-9.313220024108887,-2.7835588455200195
1761401362904823800,2.57882373046875,0.7588123083114624,-9.323545455932617,-2.7392659187316895
1761401362914905000,2.588905029296875,0.7330746054649353,-9.325639724731445,-2.7195887565612793
1761401362924998000,2.598997802734375,0.7186346054077148,-9.327136039733887,-2.698190450668335
1761401362935067100,2.609067138671875,0.7325509190559387,-9.344120025634766,-2.674398183822632
1761401362945159400,2.619159423828125,0.759635329246521,-9.361403465270996,-2.6746973991394043
1761401362955219700,2.6292197265625,0.7535001635551453,-9.36701488494873,-2.687117338180542
1761401362965321200,2.6393212890625,0.7632266283035278,-9.331101417541504,-2.6837503910064697
1761401362975402800,2.64940283203125,0.7801356315612793,-9.33005428314209,-2.6954970359802246
1761401362985472800,2.65947265625,0.7744494080543518,-9.33693790435791,-2.745476007461548
1761401362995553000,2.669552978515625,0.7814823985099792,-9.343297004699707,-2.790217638015747
1761401363005637600,2.6796376953125,0.7662941813468933,-9.317858695983887,-2.807800054550171
1761401363015727400,2.689727294921875,0.7653963565826416,-9.314118385314941,-2.808323860168457
1761401363025807400,2.699807373046875,0.7368903756141663,-9.297059059143066,-2.803086519241333
1761401363035878100,2.709878173828125,0.7514800429344177,-9.3049898147583,-2.76350736618042
1761401363045958000,2.7199580078125,0.7804349064826965,-9.326837539672852,-2.7561001777648926
1761401363056062200,2.730062255859375,0.8106617331504822,-9.326762199401855,-2.7682957649230957
1761401363066131500,2.74013134765625,0.8034043312072754,-9.31045150756836,-2.7846810817718506
1761401363076212500,2.75021240234375,0.8155249357223511,-9.313519477844238,-2.7935845851898193
1761401363086294300,2.760294189453125,0.7844003438949585,-9.323545455932617,-2.797699451446533
1761401363096375000,2.770375,0.7613561153411865,-9.337087631225586,-2.757147789001465
1761401363106445300,2.7804453125,0.7707085013389587,-9.353472709655762,-2.7222073078155518
1761401363116537300,2.790537353515625,0.7820061445236206,-9.357438087463379,-2.720187187194824
1761401363126628900,2.80062890625,0.7778910994529724,-9.350180625915527,-2.7344775199890137
1761401363136701400,2.810701416015625,0.7860463261604309,-9.329380989074707,-2.746448516845703
1761401363146780200,2.8207802734375,0.7889642715454102,-9.322049140930176,-2.7655274868011475
1761401363156849700,2.830849609375,0.7837269902229309,-9.302745819091797,-2.7760767936706543
1761401363166925800,2.84092578125,0.8012345433235168,-9.3049898147583,-2.7748050689697266
1761401363177015600,2.851015625,0.8215104341506958,-9.311799049377441,-2.7469723224639893
1761401363187085800,2.8610859375,0.8124573826789856,-9.336862564086914,-2.7356746196746826
1761401363197173500,2.871173583984375,0.8057236671447754,-9.347412109375,-2.7502644062042236
1761401363207265800,2.881265869140625,0.7665186524391174,-9.345242500305176,-2.7818379402160645
1761401363217347000,2.89134716796875,0.7589619159698486,-9.321824073791504,-2.793883800506592
1761401363227418400,2.90141845703125,0.7561936378479004,-9.309927940368652,-2.755875825881958
1761401363237509400,2.91150927734375,0.7488613724708557,-9.327136039733887,-2.6938509941101074
1761401363247590100,2.921590087890625,0.7413046956062317,-9.343147277832031,-2.681730270385742
1761401363257671700,2.931671630859375,0.75581955909729,-9.33693790435791,-2.7175686359405518
1761401363267729200,2.941729248046875,0.7742998003959656,-9.33237361907959,-2.735525131225586
1761401363277815600,2.951815673828125,0.8063970804214478,-9.35077953338623,-2.7293150424957275
1761401363287914500,2.96191455078125,0.8138789534568787,-9.35085391998291,-2.7078421115875244
1761401363297983500,2.9719833984375,0.8378209471702576,-9.326014518737793,-2.6915316581726074
1761401363308065300,2.982065185546875,0.8453776836395264,-9.337461471557617,-2.6979660987854004
1761401363318163000,2.992162841796875,0.8316858410835266,-9.361403465270996,-2.6966941356658936
1761401363328236000,3.002236083984375,0.8117091655731201,-9.403900146484375,-2.6815807819366455
1761401363338308600,3.01230859375,0.7744494080543518,-9.423578262329102,-2.6716299057006836
1761401363348389000,3.02238916015625,0.7501333355903625,-9.395296096801758,-2.6622025966644287
1761401363358470400,3.032470458984375,0.7448211908340454,-9.38788890838623,-2.649184226989746
1761401363368562200,3.042562255859375,0.7333738803863525,-9.345766067504883,-2.658461809158325
1761401363378643500,3.0526435546875,0.717512309551239,-9.311349868774414,-2.669534921646118
1761401363388709000,3.062709228515625,0.727837324142456,-9.299304008483887,-2.6563668251037598
1761401363398786600,3.07278662109375,0.7318775057792664,-9.324143409729004,-2.634669303894043
1761401363408877800,3.0828779296875,0.7652466893196106,-9.344419479370117,-2.6362404823303223
1761401363418968000,3.092968017578125,0.7738508582115173,-9.381903648376465,-2.6496331691741943
1761401363429048600,3.103048583984375,0.7788637280464172,-9.38399887084961,-2.663250207901001
1761401363439118600,3.11311865234375,0.8030301928520203,-9.391406059265137,-2.6809821128845215
1761401363449210600,3.123210693359375,0.8016834855079651,-9.391630172729492,-2.685396432876587
1761401363459291600,3.133291748046875,0.7906103134155273,-9.402853012084961,-2.695197820663452
1761401363469373000,3.143373046875,0.7807341814041138,-9.397765159606934,-2.686967611312866
1761401363479449900,3.153449951171875,0.773476779460907,-9.370830535888672,-2.666691780090332
1761401363489535200,3.16353515625,0.7609072327613831,-9.345691680908203,-2.649782657623291
1761401363499616000,3.173615966796875,0.7845499515533447,-9.353921890258789,-2.6622025966644287
1761401363509690400,3.1836904296875,0.7745990753173828,-9.342473983764648,-2.6529998779296875
1761401363519789000,3.1937890625,0.7677157521247864,-9.334095001220703,-2.6648213863372803
1761401363529858800,3.20385888671875,0.7603834867477417,-9.343596458435059,-2.666018486022949
1761401363539928000,3.213927978515625,0.7654711604118347,-9.367238998413086,-2.6642227172851562
1761401363550021400,3.224021484375,0.7892635464668274,-9.3735990524292,-2.6547207832336426
1761401363560102700,3.2341025390625,0.8068459630012512,-9.387664794921875,-2.663773775100708
1761401363570186200,3.244186279296875,0.8083423376083374,-9.398588180541992,-2.676044225692749
1761401363580264000,3.254263916015625,0.8076689839363098,-9.36581802368164,-2.6821792125701904
1761401363590345200,3.26434521484375,0.7931541204452515,-9.337835311889648,-2.7125556468963623
1761401363600414700,3.274414794921875,0.7932289242744446,-9.31733512878418,-2.7246763706207275
1761401363610498300,3.284498291015625,0.795174241065979,-9.319430351257324,-2.7205612659454346
1761401363620588300,3.29458837890625,0.7933785915374756,-9.343147277832031,-2.7002105712890625
1761401363630669600,3.304669677734375,0.7842506766319275,-9.351003646850586,-2.6774656772613525
1761401363640750000,3.31475,0.7714566588401794,-9.378686904907227,-2.6721534729003906
1761401363650820000,3.324820068359375,0.7386860251426697,-9.376891136169434,-2.6919806003570557
1761401363660889900,3.334889892578125,0.7335983514785767,-9.351227760314941,-2.7007343769073486
1761401363670970400,3.344970458984375,0.7762450575828552,-9.342998504638672,-2.6931777000427246
1761401363681053000,3.355052978515625,0.8152256608009338,-9.361029624938965,-2.652251720428467
1761401363691140400,3.365140380859375,0.8051999807357788,-9.382502555847168,-2.6354923248291016
1761401363701214000,3.3752138671875,0.809015691280365,-9.36694049835205,-2.6862194538116455
1761401363711297000,3.385297119140625,0.8021323680877686,-9.3596830368042,-2.7137527465820312
1761401363721359400,3.395359375,0.762104332447052,-9.3265380859375,-2.7385926246643066
1761401363731457500,3.40545751953125,0.753350555896759,-9.323993682861328,-2.739565372467041
1761401363741526000,3.415526123046875,0.8043769598007202,-9.339107513427734,-2.7333552837371826
1761401363751626500,3.42562646484375,0.8024316430091858,-9.362600326538086,-2.7258734703063965
1761401363761723600,3.4357236328125,0.806546688079834,-9.357587814331055,-2.725574254989624
1761401363771792400,3.44579248046875,0.8007108569145203,-9.362226486206055,-2.7199628353118896
1761401363781885000,3.455885009765625,0.7811083197593689,-9.360430717468262,-2.7055976390838623
1761401363791954700,3.46595458984375,0.7668927311897278,-9.350180625915527,-2.7052981853485107
1761401363802046500,3.47604638671875,0.7566425800323486,-9.358410835266113,-2.681954860687256
1761401363812128000,3.4861279296875,0.7705588340759277,-9.37509536743164,-2.6733505725860596
1761401363822208500,3.49620849609375,0.7966706156730652,-9.39013385772705,-2.670881748199463
1761401363832300800,3.50630078125,0.8061726093292236,-9.360730171203613,-2.6839001178741455
1761401363842359600,3.516359619140625,0.7665934562683105,-9.324143409729004,-2.6961703300476074
1761401363852452400,3.526452392578125,0.7633762359619141,-9.326987266540527,-2.704475164413452
1761401363862506800,3.5365068359375,0.7754220962524414,-9.321749687194824,-2.723853349685669
1761401363872613400,3.54661328125,0.7805845737457275,-9.320028305053711,-2.7230303287506104
1761401363882695400,3.5566953125,0.7732523083686829,-9.339481353759766,-2.7246015071868896
1761401363892767000,3.56676708984375,0.764573335647583,-9.359158515930176,-2.7219080924987793
1761401363902846200,3.57684619140625,0.7610568404197693,-9.359533309936523,-2.703278064727783
1761401363912926000,3.586926025390625,0.786420464515686,-9.35197639465332,-2.681281328201294
1761401363923019000,3.59701904296875,0.8001123070716858,-9.362750053405762,-2.6721534729003906
1761401363933100500,3.6071005859375,0.7805845737457275,-9.339855194091797,-2.6758196353912354
1761401363943169800,3.617169677734375,0.786420464515686,-9.3689603805542,-2.680084228515625
1761401363953251600,3.62725146484375,0.8010101318359375,-9.397765159606934,-2.690558910369873
1761401363963343000,3.637343017578125,0.8023568391799927,-9.390807151794434,-2.717344045639038
1761401363973424600,3.647424560546875,0.7841758728027344,-9.374272346496582,-2.711583137512207
1761401363983494000,3.657493896484375,0.7728782296180725,-9.358485221862793,-2.7038018703460693
1761401363993583900,3.667583984375,0.7591863870620728,-9.338210105895996,-2.6913819313049316
1761401364003648000,3.67764794921875,0.7799112200737,-9.328408241271973,-2.694823741912842
1761401364013748000,3.687748046875,0.7936778664588928,-9.346664428710938,-2.68487286567688
1761401364023829200,3.697829345703125,0.7803601026535034,-9.344943046569824,-2.6862943172454834
1761401364033910000,3.707909912109375,0.7782651782035828,-9.349806785583496,-2.7152493000030518
1761401364043991800,3.71799169921875,0.7753472328186035,-9.350255012512207,-2.7222073078155518
1761401364054060500,3.728060546875,0.7912836670875549,-9.370157241821289,-2.6979660987854004
1761401364064153900,3.73815380859375,0.7901613712310791,-9.380706787109375,-2.6740987300872803
1761401364074234600,3.748234619140625,0.7854477763175964,-9.349881172180176,-2.6648213863372803
1761401364084304600,3.7583046875,0.7849240899085999,-9.341426849365234,-2.6669909954071045
1761401364094385200,3.76838525390625,0.7678653597831726,-9.359907150268555,-2.7054479122161865
1761401364104477200,3.778477294921875,0.7766191959381104,-9.355118751525879,-2.73073673248291
1761401364114551000,3.788551025390625,0.7986907362937927,-9.333271980285645,-2.7460744380950928
1761401364124629500,3.79862939453125,0.7967454195022583,-9.324592590332031,-2.7042508125305176
1761401364134720500,3.808720458984375,0.7653963565826416,-9.33237361907959,-2.6699090003967285
1761401364144801500,3.818801513671875,0.7691373229026794,-9.31389331817627,-2.6931777000427246
1761401364154871000,3.82887109375,0.7936778664588928,-9.320103645324707,-2.738293409347534
1761401364164963600,3.838963623046875,0.8051251173019409,-9.327361106872559,-2.7789947986602783
1761401364175045400,3.84904541015625,0.8358756899833679,-9.350629806518555,-2.789095401763916
1761401364185126000,3.8591259765625,0.8372223973274231,-9.361403465270996,-2.7700912952423096
1761401364195198000,3.869197998046875,0.8155249357223511,-9.344494819641113,-2.754603862762451
1761401364205287700,3.87928759765625,0.7918822169303894,-9.338134765625,-2.740612745285034
1761401364215367000,3.889366943359375,0.7891139388084412,-9.349806785583496,-2.7070939540863037
1761401364225462500,3.899462646484375,0.7884405255317688,-9.360580444335938,-2.6699838638305664
1761401364235530500,3.909530517578125,0.7804349064826965,-9.35654067993164,-2.675520420074463
1761401364245611800,3.91961181640625,0.7942764163017273,-9.35893440246582,-2.7029788494110107
1761401364255694600,3.929694580078125,0.7992144823074341,-9.355268478393555,-2.706345796585083
1761401364265762600,3.939762451171875,0.7726537585258484,-9.348235130310059,-2.7153987884521484
1761401364275843600,3.949843505859375,0.775945782661438,-9.329380989074707,-2.718092203140259
1761401364285935900,3.959935791015625,0.7732523083686829,-9.311873435974121,-2.706420660018921
1761401364296030200,3.9700302734375,0.7445219159126282,-9.322946548461914,-2.7137527465820312
1761401364306098000,3.980097900390625,0.7432500123977661,-9.338358879089355,-2.7001357078552246
1761401364316179200,3.99017919921875,0.7830535769462585,-9.341726303100586,-2.6832268238067627
1761401364326249000,4.0002490234375,0.7737760543823242,-9.344494819641113,-2.679560661315918
1761401364336329700,4.010329833984375,0.7758709788322449,-9.363123893737793,-2.696993350982666
1761401364346412000,4.020412109375,0.7805097699165344,-9.362899780273438,-2.7165958881378174
1761401364356503600,4.030503662109375,0.7746738791465759,-9.37053108215332,-2.733205795288086
1761401364366572800,4.04057275390625,0.7719804048538208,-9.355118751525879,-2.7224318981170654
1761401364376665300,4.050665283203125,0.7726537585258484,-9.321450233459473,-2.712181568145752
1761401364386746600,4.06074658203125,0.768538773059845,-9.329530715942383,-2.709712505340576
1761401364396827100,4.0708271484375,0.7719804048538208,-9.329754829406738,-2.7176434993743896
1761401364406908200,4.080908203125,0.7799860239028931,-9.334842681884766,-2.7206361293792725
1761401364416969000,4.090968994140625,0.7928548455238342,-9.343222618103027,-2.743530750274658
1761401364427070000,4.101070068359375,0.8028057813644409,-9.359907150268555,-2.758270025253296
1761401364437151000,4.11115087890625,0.8067711591720581,-9.360280990600586,-2.749366521835327
1761401364447223000,4.12122314453125,0.8063222169876099,-9.372252464294434,-2.7298388481140137
1761401364457302800,4.131302734375,0.782529890537262,-9.379659652709961,-2.7219080924987793
1761401364467394300,4.141394287109375,0.7560440301895142,-9.37240219116211,-2.7216835021972656
1761401364477475600,4.1514755859375,0.7560440301895142,-9.330204010009766,-2.7254245281219482
1761401364487545300,4.16154541015625,0.7726537585258484,-9.294815063476562,-2.716371536254883
1761401364497626000,4.171626220703125,0.7858219146728516,-9.282020568847656,-2.728566884994507
1761401364507721000,4.181720947265625,0.7876923680305481,-9.294066429138184,-2.7561750411987305
1761401364517790500,4.19179052734375,0.7885153889656067,-9.318233489990234,-2.7755532264709473
1761401364527870200,4.2018701171875,0.7661445140838623,-9.337162017822266,-2.7854292392730713
1761401364537962000,4.2119619140625,0.7334487438201904,-9.31621265411377,-2.7871501445770264
1761401364548042200,4.222042236328125,0.7252934575080872,-9.324442863464355,-2.758270025253296
1761401364558113300,4.23211328125,0.7721300721168518,-9.352350234985352,-2.7083659172058105
1761401364568204500,4.24220458984375,0.7800608277320862,-9.388188362121582,-2.644470691680908
1761401364578286000,4.2522861328125,0.7863456010818481,-9.392229080200195,-2.637587308883667
1761401364588355600,4.26235546875,0.7924807667732239,-9.387290954589844,-2.6534488201141357
1761401364598448600,4.27244873046875,0.7770680785179138,-9.376367568969727,-2.665569543838501
1761401364608525800,4.28252587890625,0.7713818550109863,-9.36357307434082,-2.696320056915283
1761401364618609700,4.292609619140625,0.8019079566001892,-9.333645820617676,-2.7193641662597656
1761401364628680400,4.302680419921875,0.8059481382369995,-9.324143409729004,-2.733804225921631
1761401364638771700,4.312771728515625,0.7990648150444031,-9.313519477844238,-2.732607126235962
1761401364648853000,4.32285302734375,0.8163479566574097,-9.327361106872559,-2.7504141330718994
1761401364658922800,4.3329228515625,0.8463503122329712,-9.346963882446289,-2.7538557052612305
1761401364669015000,4.34301513671875,0.8352022767066956,-9.372252464294434,-2.726621627807617
1761401364679084800,4.353084716796875,0.8171709775924683,-9.373299598693848,-2.710909605026245
1761401364689176600,4.363176513671875,0.7949497699737549,-9.360730171203613,-2.681356191635132
1761401364699243500,4.373243408203125,0.7819313406944275,-9.362226486206055,-2.652700662612915
1761401364719420200,4.393420166015625,0.763301432132721,-9.360506057739258,-2.644096612930298
1761401364729496000,4.40349609375,0.7641992568969727,-9.363648414611816,-2.6559178829193115
1761401364739582500,4.41358251953125,0.7753472328186035,-9.359158515930176,-2.6910078525543213
1761401364749648000,4.42364794921875,0.7934533953666687,-9.329306602478027,-2.706345796585083
1761401364759744300,4.433744140625,0.7974188327789307,-9.326014518737793,-2.724302291870117
1761401364769824500,4.443824462890625,0.7789385318756104,-9.3358154296875,-2.742932081222534
1761401364779894800,4.453894775390625,0.781033456325531,-9.341501235961914,-2.7385177612304688
1761401364789975300,4.463975341796875,0.7903110384941101,-9.3590087890625,-2.7131543159484863
1761401364800068400,4.474068359375,0.7891887426376343,-9.352799415588379,-2.7012581825256348
1761401364810144500,4.48414453125,0.8074445128440857,-9.349357604980469,-2.7029788494110107
1761401364820218600,4.494218505859375,0.8117091655731201,-9.332223892211914,-2.7165210247039795
1761401364830311200,4.504311279296875,0.832059919834137,-9.316961288452148,-2.7396399974823
1761401364840392400,4.514392333984375,0.8447791337966919,-9.317784309387207,-2.739490509033203
1761401364850462000,4.5244619140625,0.8438064455986023,-9.342549324035645,-2.741286039352417
1761401364860555300,4.53455517578125,0.8158990740776062,-9.36349868774414,-2.743680238723755
1761401364870634500,4.544634521484375,0.802880585193634,-9.36005687713623,-2.7213094234466553
1761401364880712400,4.55471240234375,0.7901613712310791,-9.356689453125,-2.7385926246643066
1761401364890797300,4.56479736328125,0.7778910994529724,-9.338134765625,-2.7525837421417236
1761401364900879000,4.574879150390625,0.7693617343902588,-9.327884674072266,-2.7789947986602783
1761401364910960400,4.58496044921875,0.7790133953094482,-9.318083763122559,-2.7864766120910645
1761401364921041000,4.595041015625,0.7915829420089722,-9.305289268493652,-2.759990930557251
1761401364931121200,4.60512109375,0.8049755096435547,-9.321450233459473,-2.725050449371338
1761401364941191200,4.615191162109375,0.8182932734489441,-9.340603828430176,-2.694000720977783
1761401364951272200,4.625272216796875,0.8224831223487854,-9.365668296813965,-2.6991631984710693
1761401364961364500,4.635364501953125,0.8096142411231995,-9.37397289276123,-2.7036523818969727
1761401364971445500,4.645445556640625,0.7979425191879272,-9.37008285522461,-2.7462241649627686
1761401364981526800,4.65552685546875,0.7660697102546692,-9.33237361907959,-2.7807157039642334
1761401364991607600,4.665607666015625,0.7588123083114624,-9.302820205688477,-2.7816882133483887
1761401365001689000,4.675689208984375,0.7771428823471069,-9.312472343444824,-2.740163803100586
1761401365011765200,4.68576513671875,0.7649474143981934,-9.33469295501709,-2.6974422931671143
1761401365021850600,4.6958505859375,0.7459434866905212,-9.340678215026855,-2.6910078525543213
1761401365031932200,4.70593212890625,0.7798363566398621,-9.330353736877441,-2.711508274078369
1761401365042000100,4.716000244140625,0.8011597394943237,-9.334918022155762,-2.724377155303955
1761401365052094500,4.726094482421875,0.8062474131584167,-9.320701599121094,-2.7444286346435547
1761401365062160400,4.736160400390625,0.8084920048713684,-9.324966430664062,-2.7410616874694824
1761401365072245000,4.746244873046875,0.8143278360366821,-9.346738815307617,-2.699462413787842
1761401365082337000,4.7563369140625,0.8076689839363098,-9.38048267364502,-2.694823741912842
1761401365092408600,4.76640869140625,0.8049755096435547,-9.392229080200195,-2.688239574432373
1761401365102509300,4.77650927734375,0.8005611896514893,-9.38205337524414,-2.699462413787842
1761401365112560000,4.78656005859375,0.778564453125,-9.363798141479492,-2.708141326904297
1761401365122660900,4.796660888671875,0.7757961750030518,-9.346738815307617,-2.71689510345459
1761401365132740000,4.806739990234375,0.7754220962524414,-9.345466613769531,-2.695796251296997
1761401365142823400,4.816823486328125,0.7787889242172241,-9.320103645324707,-2.6931777000427246
1761401365152904200,4.826904296875,0.7826794981956482,-9.294066429138184,-2.699836492538452
1761401365162984700,4.836984619140625,0.7781903743743896,-9.290999412536621,-2.710460662841797
1761401365173066000,4.84706591796875,0.7841010689735413,-9.299078941345215,-2.7159225940704346
1761401365183137000,4.857136962890625,0.7829039692878723,-9.321599960327148,-2.727369785308838
1761401365193207600,4.86720751953125,0.7838765978813171,-9.369558334350586,-2.7245266437530518
1761401365203309300,4.877309326171875,0.8029553890228271,-9.382203102111816,-2.7206361293792725
1761401365213375500,4.88737548828125,0.8148515820503235,-9.389310836791992,-2.7008092403411865
1761401365223471000,4.89747119140625,0.823156476020813,-9.384073257446289,-2.711508274078369
1761401365233552400,4.907552490234375,0.7928548455238342,-9.38205337524414,-2.7200376987457275
1761401365243633200,4.917633056640625,0.7742998003959656,-9.332149505615234,-2.7118074893951416
1761401365253717200,4.92771728515625,0.7651718854904175,-9.315988540649414,-2.717867851257324
1761401365263795200,4.937795166015625,0.7866448760032654,-9.312097549438477,-2.7042508125305176
1761401365273876200,4.947876220703125,0.797792911529541,-9.34165096282959,-2.7042508125305176
1761401365283940900,4.95794091796875,0.8060229420661926,-9.335216522216797,-2.704475164413452
1761401365294038500,4.96803857421875,0.81672203540802,-9.334393501281738,-2.6991631984710693
1761401365304119300,4.978119384765625,0.7970446944236755,-9.351303100585938,-2.7032034397125244
1761401365314200600,4.98820068359375,0.7921066880226135,-9.343596458435059,-2.7025299072265625
1761401365324281600,4.998281494140625,0.7929296493530273,-9.354894638061523,-2.705148696899414
1761401365334362600,5.008362548828125,0.7808090448379517,-9.37389850616455,-2.7182419300079346
1761401365344443600,5.018443603515625,0.7792378067970276,-9.360506057739258,-2.7149498462677
1761401365354524400,5.0285244140625,0.8000374436378479,-9.345766067504883,-2.7235541343688965
1761401365364605700,5.038605712890625,0.817919135093689,-9.323769569396973,-2.7269957065582275
1761401365374686700,5.048686767578125,0.819340705871582,-9.327061653137207,-2.7259483337402344
1761401365384757000,5.058757080078125,0.8190414309501648,-9.347412109375,-2.716371536254883
1761401365394848300,5.06884814453125,0.8227075338363647,-9.371728897094727,-2.7198879718780518
1761401365404929500,5.078929443359375,0.8105869293212891,-9.35886001586914,-2.712705373764038
1761401365414998000,5.088998046875,0.8013094067573547,-9.333720207214355,-2.735974073410034
1761401365425091000,5.099091064453125,0.8089408874511719,-9.343072891235352,-2.7212347984313965
1761401365435172900,5.1091728515625,0.8232312798500061,-9.330204010009766,-2.747047185897827
1761401365445232600,5.119232666015625,0.8242039084434509,-9.30573844909668,-2.7463738918304443
1761401365455334700,5.129334716796875,0.7989152073860168,-9.323320388793945,-2.7041759490966797
1761401365465415400,5.13941552734375,0.8044517636299133,-9.34389591217041,-2.716296672821045
1761401365475490000,5.149489990234375,0.8040028810501099,-9.347711563110352,-2.7358992099761963
1761401365485566500,5.15956640625,0.8200140595436096,-9.324666976928711,-2.7368717193603516
1761401365495671600,5.169671630859375,0.8462006449699402,-9.32309627532959,-2.745326280593872
1761401365505740300,5.179740234375,0.8679729104042053,-9.354669570922852,-2.7294647693634033
1761401365515817700,5.189817626953125,0.8471733331680298,-9.353472709655762,-2.702155828475952
1761401365525902000,5.199902099609375,0.8259247541427612,-9.357662200927734,-2.6895864009857178
1761401365535982800,5.20998291015625,0.8054243922233582,-9.359084129333496,-2.679635524749756
1761401365546052400,5.22005224609375,0.7805845737457275,-9.367837905883789,-2.691157579421997
1761401365556144000,5.23014404296875,0.7814075946807861,-9.373748779296875,-2.7043256759643555
1761401365566226000,5.240225830078125,0.767341673374176,-9.371054649353027,-2.7008092403411865
1761401365576306700,5.250306640625,0.7832032442092896,-9.366042137145996,-2.6928036212921143
1761401365586391800,5.260391845703125,0.7933037877082825,-9.340827941894531,-2.697517156600952
1761401365596469200,5.27046923828125,0.8109610080718994,-9.298405647277832,-2.7052981853485107
1761401365606550000,5.280550048828125,0.8066214919090271,-9.287034034729004,-2.694748878479004
1761401365616620300,5.290620361328125,0.8186673521995544,-9.320103645324707,-2.706270933151245
1761401365626714000,5.300714111328125,0.8216601014137268,-9.354146003723145,-2.6973674297332764
1761401365636792000,5.3107919921875,0.8081178665161133,-9.36925983428955,-2.701108455657959
1761401365646873900,5.320873779296875,0.7968950867652893,-9.371354103088379,-2.6989386081695557
1761401365656943900,5.33094384765625,0.7947252988815308,-9.387141227722168,-2.6966941356658936
1761401365667036000,5.341035888671875,0.7822306156158447,-9.38863754272461,-2.698863983154297
1761401365677117200,5.3511171875,0.7725789546966553,-9.35893440246582,-2.7049989700317383
1761401365687198000,5.361197998046875,0.7884405255317688,-9.331700325012207,-2.710909605026245
1761401365697279200,5.371279296875,0.7917325496673584,-9.308731079101562,-2.7158477306365967
1761401365707361300,5.381361328125,0.7945008873939514,-9.310227394104004,-2.7323079109191895
1761401365717441500,5.391441650390625,0.7970446944236755,-9.328408241271973,-2.7224318981170654
1761401365727515400,5.401515380859375,0.8276455998420715,-9.350330352783203,-2.7263224124908447
1761401365737603800,5.411603759765625,0.8159738779067993,-9.349058151245117,-2.7152493000030518
1761401365747684900,5.421684814453125,0.8144775032997131,-9.341501235961914,-2.7247512340545654
1761401365757762600,5.431762451171875,0.8046762347221375,-9.33806037902832,-2.7067947387695312
1761401365767847000,5.441846923828125,0.7912088632583618,-9.34965705871582,-2.7117326259613037
1761401365777927200,5.45192724609375,0.7742998003959656,-9.357213973999023,-2.7189900875091553
1761401365787998000,5.461998046875,0.778564453125,-9.361627578735352,-2.7094881534576416
1761401365798068000,5.47206787109375,0.7892635464668274,-9.356839179992676,-2.713453531265259
1761401365808168200,5.482168212890625,0.8059481382369995,-9.357064247131348,-2.711059331893921
1761401365818252500,5.49225244140625,0.8343044519424438,-9.354445457458496,-2.6821792125701904
1761401365828319500,5.502319580078125,0.8202385306358337,-9.344419479370117,-2.6832268238067627
1761401365838413300,5.512413330078125,0.7841758728027344,-9.318307876586914,-2.713902473449707
1761401365848494000,5.522494140625,0.7740005254745483,-9.322572708129883,-2.7451767921447754
1761401365858564000,5.532564208984375,0.7713070511817932,-9.331999778747559,-2.754753589630127
1761401365868656600,5.54265673828125,0.7762450575828552,-9.336862564086914,-2.7689690589904785
1761401365878738000,5.552738037109375,0.812981128692627,-9.320253372192383,-2.748319149017334
1761401365888830700,5.562830810546875,0.8264485001564026,-9.344345092773438,-2.7012581825256348
1761401365898888200,5.57288818359375,0.7992892861366272,-9.354519844055176,-2.7189900875091553
1761401365908969700,5.5829697265625,0.7915829420089722,-9.353696823120117,-2.759916067123413
1761401365919061800,5.593061767578125,0.8124573826789856,-9.334842681884766,-2.7840824127197266
1761401365929142800,5.603142822265625,0.8041524887084961,-9.321375846862793,-2.7922377586364746
1761401365939219500,5.613219482421875,0.8328080773353577,-9.324816703796387,-2.7766005992889404
1761401365949307400,5.623307373046875,0.8380454182624817,-9.335591316223145,-2.7540054321289062
1761401365959386000,5.63338623046875,0.8259247541427612,-9.345766067504883,-2.758718967437744
1761401365969461800,5.643461669921875,0.8126070499420166,-9.341277122497559,-2.7636568546295166
1761401365979547600,5.653547607421875,0.8286930918693542,-9.342025756835938,-2.7561750411987305
1761401365989628400,5.66362841796875,0.8178443312644958,-9.351377487182617,-2.733130931854248
1761401365999698700,5.67369873046875,0.7999626398086548,-9.360356330871582,-2.715623378753662
1761401366009791200,5.683791259765625,0.7977181077003479,-9.352275848388672,-2.6989386081695557
1761401366019860200,5.693860107421875,0.7924059629440308,-9.324966430664062,-2.6763434410095215
1761401366029967400,5.70396728515625,0.7691373229026794,-9.336564064025879,-2.670881748199463
1761401366040033800,5.71403369140625,0.7595604658126831,-9.350929260253906,-2.6773159503936768
1761401366050115600,5.724115478515625,0.7518541812896729,-9.353472709655762,-2.6797850131988525
1761401366060196400,5.7341962890625,0.765770435333252,-9.356315612792969,-2.6773159503936768
1761401366070276900,5.74427685546875,0.7605331540107727,-9.353921890258789,-2.6681132316589355
1761401366080338000,5.754337890625,0.7931541204452515,-9.358560562133789,-2.677839756011963
1761401366090438700,5.764438720703125,0.7958475947380066,-9.339780807495117,-2.6845734119415283
1761401366100522000,5.77452197265625,0.7757213711738586,-9.319878578186035,-2.696993350982666
1761401366110598700,5.7845986328125,0.8132055997848511,-9.336264610290527,-2.6996121406555176
1761401366120687600,5.7946875,0.8295160531997681,-9.352873802185059,-2.6991631984710693
1761401366130762800,5.8047626953125,0.8403648138046265,-9.362975120544434,-2.7164463996887207
1761401366140844500,5.814844482421875,0.8259247541427612,-9.38744068145752,-2.7095630168914795
1761401366150914600,5.82491455078125,0.809015691280365,-9.368436813354492,-2.719064950942993
1761401366161006000,5.835006103515625,0.7763199210166931,-9.324518203735352,-2.728566884994507
1761401366171086600,5.845086669921875,0.7760206460952759,-9.314492225646973,-2.7467479705810547
1761401366181169200,5.855169189453125,0.7646481394767761,-9.316512107849121,-2.73769474029541
1761401366191212500,5.865212646484375,0.7637503147125244,-9.330653190612793,-2.717493772506714
1761401366208869000,5.882869140625,0.803928017616272,-9.375469207763672,-2.674398183822632
1761401366218972400,5.892972412109375,0.8037784099578857,-9.38976001739502,-2.7126305103302
1761401366229053200,5.90305322265625,0.8156746029853821,-9.352649688720703,-2.741360902786255
1761401366239135200,5.91313525390625,0.8013094067573547,-9.315614700317383,-2.7519853115081787
1761401366249215500,5.923215576171875,0.8120833039283752,-9.304840087890625,-2.759242534637451
1761401366259274800,5.933274658203125,0.8240543007850647,-9.321524620056152,-2.7329812049865723
1761401366269355500,5.94335546875,0.8122329115867615,-9.359831809997559,-2.7007343769073486
1761401366279436000,5.95343603515625,0.8099135160446167,-9.400533676147461,-2.669684648513794
1761401366289539800,5.963539794921875,0.8061726093292236,-9.391031265258789,-2.6815059185028076
1761401366299621000,5.97362109375,0.7821557521820068,-9.343297004699707,-2.7171945571899414
1761401366309702100,5.9837021484375,0.7774421572685242,-9.315838813781738,-2.70761775970459
1761401366319759600,5.993759521484375,0.8038532137870789,-9.322946548461914,-2.655169725418091
1761401366329844000,6.003843994140625,0.7537246346473694,-9.332747459411621,-2.63826060295105
1761401366339945200,6.0139453125,0.7476642727851868,-9.347038269042969,-2.6752212047576904
1761401366350026000,6.02402587890625,0.7809586524963379,-9.342100143432617,-2.7052981853485107
1761401366360106200,6.034106201171875,0.7893383502960205,-9.349207878112793,-2.7124807834625244
1761401366370188300,6.044188232421875,0.8153753280639648,-9.369483947753906,-2.7341034412384033
1761401366380268800,6.054268798828125,0.834528923034668,-9.364620208740234,-2.740088939666748
1761401366390350300,6.064350341796875,0.8619874119758606,-9.354894638061523,-2.7426328659057617
1761401366400423700,6.074423583984375,0.8656535744667053,-9.358485221862793,-2.7223570346832275
1761401366410489000,6.084489013671875,0.8393921256065369,-9.352649688720703,-2.7066450119018555
1761401366420593000,6.094593017578125,0.8035539388656616,-9.331326484680176,-2.7052981853485107
1761401366430674400,6.10467431640625,0.7665186524391174,-9.336264610290527,-2.7171196937561035
1761401366440756500,6.114756591796875,0.7462427616119385,-9.354220390319824,-2.7026796340942383
1761401366450836200,6.124836181640625,0.733972430229187,-9.35197639465332,-2.7001357078552246
1761401366460917000,6.1349169921875,0.7471405863761902,-9.35077953338623,-2.7013328075408936
1761401366470997800,6.144997802734375,0.7769932746887207,-9.349431991577148,-2.713453531265259
1761401366481079000,6.1550791015625,0.7901613712310791,-9.36013126373291,-2.706345796585083
1761401366491160600,6.16516064453125,0.8080430626869202,-9.334992408752441,-2.708814859390259
1761401366501241900,6.175241943359375,0.8093149662017822,-9.331400871276855,-2.702829360961914
1761401366511323100,6.1853232421875,0.7842506766319275,-9.318382263183594,-2.6954970359802246
1761401366521403100,6.195403076171875,0.7901613712310791,-9.338658332824707,-2.6979660987854004
1761401366531484700,6.205484619140625,0.8035539388656616,-9.343222618103027,-2.704101085662842
1761401366541565700,6.215565673828125,0.7939771413803101,-9.340903282165527,-2.7159974575042725
1761401366551647000,6.22564697265625,0.7879168391227722,-9.346888542175293,-2.7327568531036377
1761401366561728000,6.23572802734375,0.8034791350364685,-9.370680809020996,-2.7268459796905518
1761401366571793200,6.245793212890625,0.796371340751648,-9.370756149291992,-2.7172691822052
1761401366581889300,6.25588916015625,0.8011597394943237,-9.355193138122559,-2.7064952850341797
1761401366591949000,6.265948974609375,0.7748983502388,-9.338583946228027,-2.701632261276245
1761401366602051800,6.2760517578125,0.7617302536964417,-9.344643592834473,-2.7170448303222656
1761401366612119600,6.28611962890625,0.7463175654411316,-9.355268478393555,-2.749366521835327
1761401366622214000,6.2962138671875,0.7714566588401794,-9.36117935180664,-2.7292404174804688
1761401366632295400,6.30629541015625,0.7966706156730652,-9.347935676574707,-2.697068214416504
1761401366642375700,6.316375732421875,0.8063222169876099,-9.345541954040527,-2.6815807819366455
1761401366652423200,6.326423095703125,0.8241291046142578,-9.37053108215332,-2.6984150409698486
1761401366662537500,6.336537353515625,0.8073697090148926,-9.362226486206055,-2.717418909072876
1761401366672618500,6.346618408203125,0.7763199210166931,-9.332523345947266,-2.725648880004883
1761401366682699800,6.35669970703125,0.7667431235313416,-9.30386734008789,-2.724377155303955
1761401366692740900,6.366740966796875,0.7691373229026794,-9.32302188873291,-2.7100119590759277
1761401366702861800,6.37686181640625,0.7739257216453552,-9.388711929321289,-2.701781749725342
1761401366712920300,6.38692041015625,0.7763199210166931,-9.398214340209961,-2.6922049522399902
1761401366723003600,6.397003662109375,0.759635329246521,-9.375618934631348,-2.704101085662842
1761401366733103900,6.407103759765625,0.7630769610404968,-9.342100143432617,-2.7422587871551514
1761401366743186200,6.417186279296875,0.7821557521820068,-9.322872161865234,-2.768669843673706
1761401366753268000,6.42726806640625,0.7953238487243652,-9.303718566894531,-2.7531824111938477
1761401366763348500,6.437348388671875,0.7716063261032104,-9.318233489990234,-2.6909329891204834
1761401366773429000,6.447428955078125,0.782380223274231,-9.339706420898438,-2.6910078525543213
1761401366783520800,6.457520751953125,0.8037784099578857,-9.33237361907959,-2.7149498462677
1761401366793591000,6.467591064453125,0.7989152073860168,-9.321599960327148,-2.7567737102508545
1761401366803672800,6.4776728515625,0.8024316430091858,-9.344269752502441,-2.7747302055358887
1761401366813752000,6.487751953125,0.8072949051856995,-9.370606422424316,-2.7472715377807617
1761401366823834000,6.497834228515625,0.7989152073860168,-9.374197006225586,-2.736497640609741
1761401366833915100,6.5079150390625,0.7822306156158447,-9.348011016845703,-2.7304375171661377
1761401366843995600,6.51799560546875,0.7942016124725342,-9.340753555297852,-2.7281179428100586
1761401366854077000,6.528076904296875,0.7872434258460999,-9.351527214050293,-2.7114334106445312
1761401366864158500,6.538158447265625,0.7669675350189209,-9.332523345947266,-2.693402051925659
1761401366874239700,6.54823974609375,0.7740753293037415,-9.316961288452148,-2.7100865840911865
1761401366884300000,6.558300048828125,0.781183123588562,-9.324069023132324,-2.7245266437530518
1761401366894378500,6.56837841796875,0.7978677153587341,-9.334768295288086,-2.7341034412384033
1761401366904459300,6.578459228515625,0.8182184100151062,-9.345392227172852,-2.740238666534424
1761401366914540300,6.588540283203125,0.8217349052429199,-9.3358154296875,-2.7462241649627686
1761401366924621000,6.59862109375,0.7978677153587341,-9.326388359069824,-2.7460744380950928
1761401366934691000,6.608691162109375,0.7945008873939514,-9.33469295501709,-2.7246015071868896
1761401366944791000,6.618791015625,0.8004863858222961,-9.345466613769531,-2.7055227756500244
1761401366954872600,6.62887255859375,0.7885153889656067,-9.339481353759766,-2.7257986068725586
1761401366964953900,6.638953857421875,0.7909095883369446,-9.328782081604004,-2.7293899059295654
1761401366975050000,6.649050048828125,0.7789385318756104,-9.321674346923828,-2.720935344696045
1761401366985112600,6.659112548828125,0.7754220962524414,-9.326462745666504,-2.7149498462677
1761401366995211800,6.669211669921875,0.7885153889656067,-9.338358879089355,-2.721010208129883
1761401367005302000,6.679302001953125,0.7968950867652893,-9.347861289978027,-2.7222821712493896
1761401367015374000,6.6893740234375,0.8156746029853821,-9.353846549987793,-2.741360902786255
1761401367025454000,6.6994541015625,0.8084920048713684,-9.357438087463379,-2.740088939666748
1761401367035532000,6.709531982421875,0.8109610080718994,-9.344269752502441,-2.7281928062438965
1761401367045617000,6.719616943359375,0.8025813102722168,-9.32997989654541,-2.720935344696045
1761401367055675100,6.729675048828125,0.8229320049285889,-9.33229923248291,-2.711508274078369
1761401367065778700,6.73977880859375,0.8254010081291199,-9.345466613769531,-2.694748878479004
1761401367075859200,6.749859130859375,0.8038532137870789,-9.358710289001465,-2.6863691806793213
1761401367085941200,6.759941162109375,0.7823054194450378,-9.373149871826172,-2.701781749725342
1761401367096021000,6.77002099609375,0.7595604658126831,-9.36245059967041,-2.70761775970459
1761401367106103000,6.78010302734375,0.7440729737281799,-9.345766067504883,-2.711134195327759
1761401367116183800,6.790183837890625,0.7392845749855042,-9.350629806518555,-2.6979660987854004
1761401367126250000,6.80025,0.7656208276748657,-9.338583946228027,-2.6933271884918213
1761401367136346400,6.810346435546875,0.7955483198165894,-9.359907150268555,-2.6886885166168213
1761401367146428000,6.820427978515625,0.801459014415741,-9.344345092773438,-2.6886885166168213
1761401367156482300,6.830482421875,0.7846248149871826,-9.345616340637207,-2.723254680633545
1761401367166589700,6.840589599609375,0.777367353439331,-9.325265884399414,-2.751910448074341
1761401367176669200,6.850669189453125,0.7903110384941101,-9.32893180847168,-2.750638484954834
1761401367186750500,6.86075048828125,0.81672203540802,-9.337237358093262,-2.700584650039673
1761401367196831700,6.870831787109375,0.8084920048713684,-9.359981536865234,-2.6563668251037598
1761401367206891000,6.88089111328125,0.7940519452095032,-9.370830535888672,-2.675445556640625
1761401367216994000,6.890994140625,0.8119336366653442,-9.368287086486816,-2.700584650039673
1761401367227074600,6.901074462890625,0.8022820353507996,-9.352799415588379,-2.7268459796905518
1761401367237155600,6.911155517578125,0.8034791350364685,-9.349207878112793,-2.7375452518463135
1761401367247214300,6.92121435546875,0.8070704340934753,-9.346814155578613,-2.7316346168518066
1761401367257318400,6.931318359375,0.8203133344650269,-9.349133491516113,-2.7065701484680176
1761401367267398400,6.9413984375,0.81672203540802,-9.352724075317383,-2.696993350982666
1761401367277480200,6.951480224609375,0.8286930918693542,-9.350330352783203,-2.693476915359497
1761401367287561200,6.961561279296875,0.81440269947052,-9.352799415588379,-2.6838252544403076
1761401367297642000,6.97164208984375,0.7905354499816895,-9.364845275878906,-2.671854257583618
1761401367307722800,6.98172265625,0.7894132137298584,-9.38280200958252,-2.6443209648132324
1761401367317804300,6.99180419921875,0.7965958118438721,-9.392303466796875,-2.63362193107605
1761401367327885300,7.00188525390625,0.7726537585258484,-9.38048267364502,-2.655019998550415
1761401367337966300,7.01196630859375,0.7726537585258484,-9.372102737426758,-2.6502315998077393
1761401367348046600,7.022046630859375,0.7727286219596863,-9.38167953491211,-2.632349967956543
1761401367358128600,7.032128662109375,0.7583633661270142,-9.372177124023438,-2.632275104522705
1761401367368211200,7.042211181640625,0.7583633661270142,-9.368586540222168,-2.64057993888855
1761401367378291000,7.052291015625,0.7641992568969727,-9.347038269042969,-2.676492929458618
1761401367388371500,7.062371337890625,0.7737012505531311,-9.339780807495117,-2.703951597213745
1761401367398429700,7.0724296875,0.8071452379226685,-9.352799415588379,-2.7064952850341797
1761401367408532700,7.08253271484375,0.8023568391799927,-9.357587814331055,-2.7112836837768555
1761401367418614800,7.09261474609375,0.7799112200737,-9.342025756835938,-2.7088894844055176
1761401367428671700,7.102671630859375,0.761954665184021,-9.321824073791504,-2.7183916568756104
1761401367438776300,7.1127763671875,0.7775170207023621,-9.330129623413086,-2.720860481262207
1761401367448856800,7.12285693359375,0.7667431235313416,-9.352873802185059,-2.7136778831481934
1761401367458938600,7.132938720703125,0.7823054194450378,-9.367164611816406,-2.7113585472106934
1761401367469019400,7.143019287109375,0.8013842105865479,-9.374197006225586,-2.7257986068725586
1761401367479100200,7.15310009765625,0.8013842105865479,-9.380183219909668,-2.718616008758545
1761401367489181700,7.163181640625,0.7918822169303894,-9.36708927154541,-2.7053730487823486
1761401367499262500,7.173262451171875,0.7940519452095032,-9.343297004699707,-2.682553291320801
1761401367509325800,7.183325927734375,0.8049007058143616,-9.336114883422852,-2.675445556640625
1761401367519424500,7.193424560546875,0.7784896492958069,-9.348160743713379,-2.6932525634765625
1761401367529505500,7.203505615234375,0.7604582905769348,-9.330278396606445,-2.730212926864624
1761401367539605500,7.21360546875,0.7484872937202454,-9.342249870300293,-2.7480945587158203
1761401367549666800,7.223666748046875,0.7665186524391174,-9.336264610290527,-2.7183167934417725
1761401367559748600,7.23374853515625,0.7857470512390137,-9.350554466247559,-2.672976493835449
1761401367569828900,7.243828857421875,0.7917325496673584,-9.38280200958252,-2.657489061355591
1761401367589969000,7.263968994140625,0.8040028810501099,-9.349133491516113,-2.6827778816223145
1761401367600072400,7.274072509765625,0.8111106157302856,-9.337087631225586,-2.717493772506714
1761401367610130400,7.28413037109375,0.802730917930603,-9.341876029968262,-2.7222073078155518
1761401367620235000,7.294235107421875,0.8015338182449341,-9.346664428710938,-2.7281928062438965
1761401367630314800,7.304314697265625,0.8171709775924683,-9.345466613769531,-2.6816556453704834
1761401367640396500,7.314396484375,0.7741501331329346,-9.337311744689941,-2.6826281547546387
1761401367650477600,7.3244775390625,0.7859715223312378,-9.319280624389648,-2.7388172149658203
1761401367660558600,7.33455859375,0.8071452379226685,-9.312023162841797,-2.789095401763916
1761401367670617000,7.3446171875,0.7962965369224548,-9.325191497802734,-2.816478967666626
1761401367680721400,7.354721435546875,0.8012345433235168,-9.33349609375,-2.7807157039642334
1761401367690801700,7.3648017578125,0.8191910982131958,-9.352575302124023,-2.7485435009002686
1761401367700883000,7.374883056640625,0.8192659020423889,-9.353846549987793,-2.7329812049865723
1761401367710963700,7.384963623046875,0.79899001121521,-9.376591682434082,-2.7222073078155518
1761401367721045000,7.395044921875,0.8001871109008789,-9.376591682434082,-2.7222073078155518
1761401367731126300,7.405126220703125,0.7786392569541931,-9.355193138122559,-2.7400143146514893
1761401367741207600,7.41520751953125,0.7690624594688416,-9.339706420898438,-2.7423336505889893
1761401367751265000,7.42526513671875,0.7834277153015137,-9.315764427185059,-2.7304375171661377
1761401367761368800,7.435368896484375,0.7834277153015137,-9.315689086914062,-2.743530750274658
1761401367771450000,7.4454501953125,0.7918074131011963,-9.318083763122559,-2.7340288162231445
1761401367781532700,7.45553271484375,0.7965958118438721,-9.306112289428711,-2.722132444381714
1761401367791612000,7.46561181640625,0.7930045127868652,-9.306112289428711,-2.7280433177948
1761401367801693400,7.475693359375,0.7941267490386963,-9.298930168151855,-2.749591112136841
1761401367811774700,7.485774658203125,0.8096142411231995,-9.310826301574707,-2.762759208679199
1761401367821854200,7.495854248046875,0.8045265674591064,-9.337237358093262,-2.776974678039551
1761401367831935500,7.505935546875,0.8141782283782959,-9.355118751525879,-2.7579708099365234
1761401367842016300,7.516016357421875,0.7950994372367859,-9.358784675598145,-2.744727849960327
1761401367852098300,7.526098388671875,0.7998130321502686,-9.343222618103027,-2.7543046474456787
1761401367862178600,7.536178466796875,0.7901613712310791,-9.319355010986328,-2.7876737117767334
1761401367872259600,7.546259521484375,0.7889642715454102,-9.322946548461914,-2.7900679111480713
1761401367882341400,7.55634130859375,0.8164227604866028,-9.327585220336914,-2.790217638015747
1761401367892380200,7.566380126953125,0.8403648138046265,-9.317934036254883,-2.7950809001922607
1761401367902502700,7.576502685546875,0.833331823348999,-9.303568840026855,-2.7962779998779297
1761401367912583700,7.586583740234375,0.8165724277496338,-9.306037902832031,-2.792611837387085
1761401367922643500,7.5966435546875,0.7999626398086548,-9.328857421875,-2.751910448074341
1761401367932746200,7.606746337890625,0.7869441509246826,-9.343297004699707,-2.7100865840911865
1761401367942827800,7.616827880859375,0.8037784099578857,-9.348011016845703,-2.6850972175598145
1761401367952908500,7.626908447265625,0.81806880235672,-9.36349868774414,-2.694674015045166
1761401367962988500,7.636988525390625,0.8025065064430237,-9.36589241027832,-2.700584650039673
1761401367973070600,7.647070556640625,0.8264485001564026,-9.349058151245117,-2.7007343769073486
1761401367983151600,7.657151611328125,0.8328080773353577,-9.347711563110352,-2.704475164413452
1761401367993233200,7.667233154296875,0.8387935757637024,-9.346514701843262,-2.6889877319335938
1761401368003313700,7.677313720703125,0.8292167782783508,-9.345392227172852,-2.686518669128418
1761401368013371400,7.687371337890625,0.8220341801643372,-9.368062019348145,-2.6925041675567627
1761401368023475700,7.697475830078125,0.8099883794784546,-9.382427215576172,-2.716371536254883
1761401368033556200,7.70755615234375,0.7992144823074341,-9.356165885925293,-2.7246763706207275
1761401368043637000,7.717636962890625,0.8051999807357788,-9.325116157531738,-2.740163803100586
1761401368053695500,7.727695556640625,0.844704270362854,-9.320178031921387,-2.7212347984313965
1761401368063799600,7.737799560546875,0.8361749649047852,-9.347786903381348,-2.6828527450561523
1761401368073881000,7.747881103515625,0.8170213103294373,-9.351452827453613,-2.697143077850342
1761401368083962000,7.757962158203125,0.8336310982704163,-9.33701229095459,-2.7294647693634033
1761401368094043000,7.76804296875,0.7953238487243652,-9.322872161865234,-2.744802713394165
1761401368104123600,7.77812353515625,0.7965209484100342,-9.3311767578125,-2.7531824111938477
1761401368114190600,7.788190673828125,0.8239794969558716,-9.3358154296875,-2.764030933380127
1761401368124285000,7.798284912109375,0.8143278360366821,-9.337087631225586,-2.7783963680267334
1761401368134366200,7.8083662109375,0.7903858423233032,-9.32997989654541,-2.793808937072754
1761401368144447500,7.818447509765625,0.8238298296928406,-9.320253372192383,-2.7998692989349365
1761401368154536200,7.8285361328125,0.8358756899833679,-9.332223892211914,-2.7700912952423096
1761401368164578800,7.838578857421875,0.8443301916122437,-9.354894638061523,-2.7403135299682617
1761401368174690600,7.848690673828125,0.8325088024139404,-9.354969024658203,-2.715099573135376
1761401368184771600,7.858771484375,0.8050503134727478,-9.346738815307617,-2.7090392112731934
1761401368194852400,7.868852294921875,0.7882909178733826,-9.339631080627441,-2.7113585472106934
1761401368204910600,7.87891064453125,0.7595604658126831,-9.337387084960938,-2.7207858562469482
1761401368215015700,7.889015625,0.7774421572685242,-9.334842681884766,-2.7304375171661377
1761401368225095700,7.899095703125,0.8157494068145752,-9.33588981628418,-2.7257986068725586
1761401368235177000,7.909177001953125,0.8432827591896057,-9.328632354736328,-2.7067947387695312
1761401368245257500,7.919257568359375,0.8384943008422852,-9.353772163391113,-2.6960208415985107
1761401368255338500,7.92933837890625,0.8182184100151062,-9.349058151245117,-2.688763380050659
1761401368265419500,7.93941943359375,0.7895628213882446,-9.346814155578613,-2.6886136531829834
1761401368275500500,7.94950048828125,0.7632266283035278,-9.342175483703613,-2.696918487548828
1761401368285582600,7.95958251953125,0.7775918245315552,-9.331326484680176,-2.698115587234497
1761401368295662800,7.969662841796875,0.7895628213882446,-9.339631080627441,-2.6910078525543213
1761401368305744000,7.979743896484375,0.7882909178733826,-9.359981536865234,-2.7029788494110107
1761401368315825000,7.989824951171875,0.8037784099578857,-9.364620208740234,-2.7126305103302
1761401368325905200,7.9999052734375,0.7918822169303894,-9.377863883972168,-2.7042508125305176
1761401368335987700,8.00998779296875,0.7740005254745483,-9.368361473083496,-2.693402051925659
1761401368356148200,8.030148193359375,0.7954735159873962,-9.319280624389648,-2.716146945953369
1761401368366229800,8.040229736328126,0.8133552074432373,-9.33357048034668,-2.716221809387207
1761401368376311300,8.050311279296874,0.8074445128440857,-9.33237361907959,-2.7006595134735107
1761401368386389800,8.0603896484375,0.8062474131584167,-9.357512474060059,-2.698265314102173
1761401368396473900,8.070473876953125,0.8085668087005615,-9.36581802368164,-2.7126305103302
1761401368406553900,8.080553955078125,0.8167968988418579,-9.358560562133789,-2.7485435009002686
1761401368416635100,8.09063525390625,0.8060229420661926,-9.349058151245117,-2.767622232437134
1761401368426715100,8.100715087890626,0.8108113408088684,-9.33229923248291,-2.7556512355804443
1761401368436822000,8.110822021484376,0.8301146030426025,-9.320327758789062,-2.7210850715637207
1761401368446878500,8.12087841796875,0.8264485001564026,-9.33349609375,-2.7246763706207275
1761401368456958500,8.13095849609375,0.79899001121521,-9.338358879089355,-2.7269208431243896
1761401368467039500,8.14103955078125,0.7786392569541931,-9.344419479370117,-2.745924949645996
1761401368477122000,8.1511220703125,0.7677905559539795,-9.324143409729004,-2.7614123821258545
1761401368487202600,8.16120263671875,0.8061726093292236,-9.322796821594238,-2.7329063415527344
1761401368497283600,8.17128369140625,0.8074445128440857,-9.343147277832031,-2.695871114730835
1761401368507364600,8.181364501953125,0.8133552074432373,-9.340753555297852,-2.7126305103302
1761401368517433000,8.19143310546875,0.8479214906692505,-9.342923164367676,-2.735525131225586
1761401368527526700,8.201526611328125,0.8263736963272095,-9.331027030944824,-2.756923198699951
1761401368537607700,8.211607666015626,0.79764324426651,-9.339556694030762,-2.7830350399017334
1761401368547666200,8.221666259765625,0.8286930918693542,-9.360879898071289,-2.7724854946136475
1761401368557771300,8.231771240234375,0.8096891045570374,-9.356241226196289,-2.7472715377807617
1761401368567850200,8.241850341796875,0.8098387122154236,-9.36821174621582,-2.7019314765930176
1761401368577931300,8.25193115234375,0.8122329115867615,-9.355118751525879,-2.6851720809936523
1761401368588014600,8.2620146484375,0.8038532137870789,-9.338358879089355,-2.7102363109588623
1761401368598093800,8.27209375,0.7870190143585205,-9.33005428314209,-2.725648880004883
1761401368608175600,8.282175537109374,0.7965958118438721,-9.322872161865234,-2.719738245010376
1761401368618256000,8.292255859375,0.7835025191307068,-9.342025756835938,-2.7160720825195312
1761401368628336600,8.302336669921875,0.7861211895942688,-9.355043411254883,-2.718616008758545
1761401368638417200,8.312417236328125,0.7742249965667725,-9.340827941894531,-2.698265314102173
1761401368648498700,8.322498779296875,0.784998893737793,-9.343147277832031,-2.6983401775360107
1761401368658568000,8.33256787109375,0.782529890537262,-9.339556694030762,-2.7222073078155518
1761401368668661200,8.3426611328125,0.7861211895942688,-9.351452827453613,-2.7281928062438965
1761401368678741000,8.352740966796874,0.7873182892799377,-9.355043411254883,-2.7269957065582275
1761401368688804600,8.3628046875,0.7980921864509583,-9.33588981628418,-2.715099573135376
1761401368698903600,8.372903564453125,0.7837269902229309,-9.33237361907959,-2.717418909072876
1761401368708984600,8.382984619140625,0.7715315222740173,-9.321749687194824,-2.7183916568756104
1761401368719065900,8.39306591796875,0.7703344225883484,-9.32893180847168,-2.725574254989624
1761401368729146400,8.403146484375,0.7786392569541931,-9.336039543151855,-2.725648880004883
1761401368739227600,8.4132275390625,0.8061726093292236,-9.337162017822266,-2.7329063415527344
1761401368749308700,8.42330859375,0.8288426995277405,-9.348983764648438,-2.731858968734741
1761401368759390000,8.433389892578125,0.816871702671051,-9.339481353759766,-2.7496657371520996
1761401368769470000,8.443469970703125,0.8037036061286926,-9.3311767578125,-2.7579708099365234
1761401368779551700,8.4535517578125,0.7940519452095032,-9.328782081604004,-2.769866943359375
1761401368789613800,8.46361376953125,0.7928548455238342,-9.344419479370117,-2.7400143146514893
1761401368799713500,8.473713623046875,0.8108113408088684,-9.337162017822266,-2.7305121421813965
1761401368809788400,8.483788330078125,0.8060229420661926,-9.33125114440918,-2.7245266437530518
1761401368819875800,8.493875732421875,0.8011597394943237,-9.345541954040527,-2.745999813079834
1761401368829957000,8.50395703125,0.7998878359794617,-9.346738815307617,-2.7638814449310303
1761401368840037600,8.51403759765625,0.8083423376083374,-9.346738815307617,-2.7519853115081787
1761401368850118100,8.5241181640625,0.8191910982131958,-9.319205284118652,-2.7329063415527344
1761401368860199700,8.53419970703125,0.8274959921836853,-9.326313018798828,-2.734178304672241
1761401368870280700,8.54428076171875,0.8274211287498474,-9.337162017822266,-2.7281179428100586
1761401368880361700,8.55436181640625,0.8105869293212891,-9.352724075317383,-2.742408514022827
1761401368890443000,8.564443115234376,0.795024573802948,-9.352799415588379,-2.7543046474456787
1761401368900501200,8.574501220703125,0.772279679775238,-9.337311744689941,-2.775702714920044
1761401368910582500,8.58458251953125,0.795024573802948,-9.328857421875,-2.772186279296875
1761401368920685300,8.594685302734375,0.8178443312644958,-9.324069023132324,-2.7340288162231445
1761401368930748000,8.604747802734375,0.7964461445808411,-9.343297004699707,-2.6909329891204834
1761401368940848400,8.614848388671875,0.7821557521820068,-9.35654067993164,-2.677764892578125
1761401368950929200,8.62492919921875,0.8135048747062683,-9.357512474060059,-2.673201084136963
1761401368961009400,8.635009521484376,0.7728034257888794,-9.342100143432617,-2.698115587234497
1761401368971091500,8.645091552734375,0.79899001121521,-9.324069023132324,-2.718541145324707
1761401368981149200,8.655149169921875,0.839616596698761,-9.321450233459473,-2.739041566848755
1761401368991253000,8.6652529296875,0.8335562944412231,-9.307159423828125,-2.75812029838562
1761401369001333800,8.675333740234375,0.8310872912406921,-9.323843955993652,-2.7771992683410645
1761401369011415600,8.68541552734375,0.8322843909263611,-9.357288360595703,-2.778470993041992
1761401369021496600,8.69549658203125,0.7964461445808411,-9.357438087463379,-2.762759208679199
1761401369031577000,8.7055771484375,0.7778910994529724,-9.36701488494873,-2.7210850715637207
1761401369041657600,8.71565771484375,0.7600842118263245,-9.36469554901123,-2.6850972175598145
1761401369051739100,8.7257392578125,0.7816320657730103,-9.349133491516113,-2.66369891166687
1761401369061820200,8.735820068359375,0.7948001623153687,-9.338284492492676,-2.6721534729003906
1761401369071901000,8.74590087890625,0.8114847540855408,-9.323843955993652,-2.6925041675567627
1761401369081982200,8.755982177734374,0.7863456010818481,-9.319205284118652,-2.7043256759643555
1761401369092063200,8.766063232421875,0.7886649966239929,-9.321524620056152,-2.716296672821045
1761401369102143700,8.776143798828125,0.7981669902801514,-9.323919296264648,-2.7270705699920654
1761401369112225300,8.786225341796875,0.7728782296180725,-9.343147277832031,-2.743680238723755
1761401369122305800,8.796305908203125,0.7884405255317688,-9.356241226196289,-2.741360902786255
1761401369132365600,8.806365478515625,0.7873182892799377,-9.364620208740234,-2.711508274078369
1761401369142467000,8.816467041015626,0.8052747845649719,-9.37053108215332,-2.711583137512207
1761401369152549600,8.826549560546875,0.8315361738204956,-9.362076759338379,-2.709263563156128
1761401369162630100,8.836630126953125,0.8387187719345093,-9.332149505615234,-2.711657762527466
1761401369172711700,8.846711669921875,0.8243535757064819,-9.313070297241211,-2.7211599349975586
1761401369182792000,8.8567919921875,0.8159738779067993,-9.315464973449707,-2.735450267791748
1761401369192873500,8.86687353515625,0.8070704340934753,-9.337237358093262,-2.7328317165374756
1761401369202954800,8.876954833984374,0.7855226397514343,-9.346888542175293,-2.748244285583496
1761401369213013500,8.887013427734376,0.7926303744316101,-9.371953010559082,-2.744727849960327
1761401369223080200,8.897080078125,0.8010849356651306,-9.365967750549316,-2.7268459796905518
1761401369233197800,8.90719775390625,0.8023568391799927,-9.344419479370117,-2.7088894844055176
1761401369243279400,8.917279296875,0.8178443312644958,-9.33357048034668,-2.7316346168518066
1761401369253360000,8.927360107421874,0.8153753280639648,-9.353921890258789,-2.7519853115081787
1761401369263440100,8.937440185546874,0.8070704340934753,-9.344419479370117,-2.7388172149658203
1761401369273521000,8.94752099609375,0.804077684879303,-9.328707695007324,-2.718690872192383
1761401369283579100,8.9575791015625,0.8017582893371582,-9.323993682861328,-2.6983401775360107
1761401369293683200,8.96768310546875,0.7957727909088135,-9.33357048034668,-2.6995372772216797
1761401369303764700,8.9777646484375,0.8112602829933167,-9.375245094299316,-2.711583137512207
1761401369313823200,8.9878232421875,0.802880585193634,-9.384896278381348,-2.7055976390838623
1761401369323926300,8.99792626953125,0.7897124886512756,-9.362226486206055,-2.713902473449707
1761401369334007000,9.008007080078125,0.7777414321899414,-9.337162017822266,-2.7341034412384033
1761401369344089000,9.018089111328125,0.7609820365905762,-9.333645820617676,-2.7376201152801514
1761401369354169600,9.028169677734375,0.79764324426651,-9.350480079650879,-2.699312686920166
1761401369364250000,9.03825,0.7618798613548279,-9.347038269042969,-2.660930633544922
1761401369374331100,9.0483310546875,0.779761552810669,-9.343372344970703,-2.681281328201294
1761401369384412700,9.05841259765625,0.8047510385513306,-9.322946548461914,-2.702903985977173
1761401369394493400,9.068493408203125,0.8261492252349854,-9.319205284118652,-2.7376201152801514
1761401369404555300,9.07855517578125,0.8224831223487854,-9.33237361907959,-2.767547607421875
1761401369414656300,9.08865625,0.8190414309501648,-9.369483947753906,-2.722132444381714
1761401369424736000,9.098736083984376,0.8167968988418579,-9.362300872802734,-2.677914619445801
1761401369434818300,9.108818359375,0.8097639083862305,-9.36589241027832,-2.6803088188171387
1761401369444876500,9.11887646484375,0.8132804036140442,-9.359907150268555,-2.6886885166168213
1761401369454979800,9.128979736328125,0.8071452379226685,-9.36701488494873,-2.7353005409240723
1761401369465060900,9.139060791015625,0.7927800416946411,-9.351602554321289,-2.749516248703003
1761401369475141600,9.1491416015625,0.7761702537536621,-9.348085403442383,-2.727968454360962
1761401369485223400,9.159223388671874,0.79899001121521,-9.33125114440918,-2.696993350982666
1761401369495304000,9.169303955078124,0.7930045127868652,-9.32534122467041,-2.6886136531829834
1761401369505385500,9.179385498046875,0.7750479578971863,-9.318233489990234,-2.702829360961914
1761401369515466500,9.189466552734375,0.7858219146728516,-9.320477485656738,-2.7280433177948
1761401369525547000,9.199547119140625,0.781033456325531,-9.333645820617676,-2.7411365509033203
1761401369535628800,9.20962890625,0.7703344225883484,-9.334918022155762,-2.726771354675293
1761401369545708800,9.219708740234376,0.7906851172447205,-9.358710289001465,-2.7125556468963623
1761401369555790000,9.2297900390625,0.7990648150444031,-9.368287086486816,-2.7078421115875244
1761401369575929300,9.249929443359376,0.7870938181877136,-9.357587814331055,-2.7137527465820312
1761401369586032600,9.26003271484375,0.7894132137298584,-9.325265884399414,-2.7328317165374756
1761401369596112400,9.2701123046875,0.7846248149871826,-9.318158149719238,-2.7268459796905518
1761401369606194400,9.2801943359375,0.7965958118438721,-9.33005428314209,-2.7257237434387207
1761401369616276500,9.2902763671875,0.8049007058143616,-9.3311767578125,-2.738891839981079
1761401369626357200,9.300357177734375,0.8096891045570374,-9.33357048034668,-2.738891839981079
1761401369636437500,9.3104375,0.7965209484100342,-9.344345092773438,-2.73769474029541
1761401369646519300,9.320519287109375,0.8025813102722168,-9.359831809997559,-2.721010208129883
1761401369656599800,9.330599853515626,0.8133552074432373,-9.349058151245117,-2.7054479122161865
1761401369666658000,9.340657958984375,0.8147019743919373,-9.349133491516113,-2.673201084136963
1761401369676761900,9.350761962890624,0.8202385306358337,-9.36357307434082,-2.675445556640625
1761401369686843100,9.360843017578125,0.8010849356651306,-9.364845275878906,-2.6909329891204834
1761401369696929000,9.370928955078124,0.7807341814041138,-9.332673072814941,-2.6955718994140625
1761401369707004700,9.381004638671875,0.7640495896339417,-9.32197380065918,-2.6966941356658936
1761401369717066000,9.39106591796875,0.7939771413803101,-9.349357604980469,-2.6645967960357666
1761401369727166700,9.401166748046874,0.8095394372940063,-9.368436813354492,-2.649109363555908
1761401369737249000,9.4112490234375,0.8203133344650269,-9.370756149291992,-2.6647465229034424
1761401369747328300,9.421328369140625,0.8022072315216064,-9.368361473083496,-2.704101085662842
1761401369757393200,9.43139306640625,0.7816320657730103,-9.366117477416992,-2.750488758087158
1761401369767468300,9.44146826171875,0.767192006111145,-9.364919662475586,-2.7719619274139404
1761401369777550000,9.451550048828125,0.7960720658302307,-9.355268478393555,-2.729090690612793
1761401369787653400,9.4616533203125,0.7867945432662964,-9.335142135620117,-2.638185739517212
1761401369797734700,9.471734619140625,0.7880664467811584,-9.344718933105469,-2.6215012073516846
1761401369807815700,9.481815673828125,0.8022820353507996,-9.35654067993164,-2.655019998550415
1761401369817881000,9.491881103515626,0.8068459630012512,-9.330204010009766,-2.7171196937561035
1761401369827955700,9.501955810546875,0.7816320657730103,-9.313519477844238,-2.7647793292999268
1761401369838058500,9.51205859375,0.8358756899833679,-9.3358154296875,-2.7748796939849854
1761401369848139000,9.522138916015624,0.8466495871543884,-9.350106239318848,-2.75580096244812
1761401369858222600,9.53222265625,0.8383446931838989,-9.363273620605469,-2.7426328659057617
1761401369868301600,9.542301513671875,0.819340705871582,-9.362152099609375,-2.717493772506714
1761401369878382800,9.5523828125,0.8073697090148926,-9.36940860748291,-2.715024709701538
1761401369888463400,9.56246337890625,0.7823054194450378,-9.369558334350586,-2.7053730487823486
1761401369898545000,9.572544921875,0.7692121267318726,-9.36005687713623,-2.6897358894348145
1761401369908625700,9.582625732421874,0.7752724289894104,-9.331326484680176,-2.6682629585266113
1761401369918684400,9.592684326171875,0.781183123588562,-9.321824073791504,-2.6622025966644287
1761401369928787500,9.602787353515625,0.7965958118438721,-9.3265380859375,-2.677839756011963
1761401369938868500,9.612868408203125,0.7893383502960205,-9.342100143432617,-2.702903985977173
1761401369948949000,9.622948974609375,0.8025065064430237,-9.353921890258789,-2.7089643478393555
1761401369959031000,9.633031005859374,0.7942016124725342,-9.376741409301758,-2.6850223541259766
1761401369969111800,9.64311181640625,0.7775170207023621,-9.392378807067871,-2.652700662612915
1761401369979191800,9.65319189453125,0.7644237279891968,-9.366117477416992,-2.657414197921753
1761401369989274600,9.663274658203125,0.7811083197593689,-9.36125373840332,-2.676642656326294
1761401369999354600,9.673354736328125,0.7882161140441895,-9.338508605957031,-2.6826281547546387
1761401370009436400,9.6834365234375,0.7572411298751831,-9.32197380065918,-2.654945135116577
1761401370019517000,9.693516845703124,0.7656956315040588,-9.338658332824707,-2.6227731704711914
1761401370029597400,9.703597412109374,0.7990648150444031,-9.353996276855469,-2.6599581241607666
1761401370039678700,9.7136787109375,0.7917325496673584,-9.358784675598145,-2.7172691822052
1761401370049760000,9.723760009765625,0.7880664467811584,-9.353996276855469,-2.7363481521606445
1761401370059841000,9.733841064453125,0.7867945432662964,-9.355193138122559,-2.751910448074341
1761401370069921800,9.743921875,0.7927800416946411,-9.346814155578613,-2.745924949645996
1761401370079979500,9.7539794921875,0.8001871109008789,-9.344345092773438,-2.7269208431243896
1761401370090084600,9.764084716796875,0.7931541204452515,-9.332448959350586,-2.6815059185028076
1761401370100129000,9.77412890625,0.7871686220169067,-9.358784675598145,-2.675520420074463
1761401370110218500,9.784218505859375,0.7644237279891968,-9.381529808044434,-2.6861445903778076
1761401370120302600,9.794302490234376,0.758438229560852,-9.374422073364258,-2.7052981853485107
1761401370130384600,9.804384521484375,0.7691373229026794,-9.351676940917969,-2.7148749828338623
1761401370140488000,9.814488037109374,0.7608324289321899,-9.321824073791504,-2.7136032581329346
1761401370150570800,9.82457080078125,0.7907599210739136,-9.322946548461914,-2.6862194538116455
1761401370160650200,9.834650146484375,0.8003367185592651,-9.356315612792969,-2.668412685394287
1761401370170732000,9.84473193359375,0.781183123588562,-9.371953010559082,-2.671929121017456
1761401370180812500,9.8548125,0.7476642727851868,-9.379210472106934,-2.6956467628479004
1761401370190852900,9.864852783203125,0.7535749673843384,-9.36245059967041,-2.7326819896698
1761401370200975600,9.8749755859375,0.7857470512390137,-9.345541954040527,-2.7531824111938477
1761401370211057000,9.885056884765625,0.7906851172447205,-9.337237358093262,-2.698190450668335
1761401370221114400,9.8951142578125,0.7561936378479004,-9.332673072814941,-2.6478374004364014
1761401370231217700,9.9052177734375,0.7514052391052246,-9.332673072814941,-2.6622025966644287
1761401370241299000,9.915298828125,0.7660697102546692,-9.328857421875,-2.694674015045166
1761401370251379500,9.92537939453125,0.7754969000816345,-9.335965156555176,-2.7317841053009033
1761401370261461500,9.93546142578125,0.7945008873939514,-9.358560562133789,-2.7498154640197754
1761401370271542800,9.945542724609375,0.7992892861366272,-9.387215614318848,-2.7486932277679443
1761401370281622500,9.95562255859375,0.8017582893371582,-9.37045669555664,-2.715174436569214
1761401370291703600,9.96570361328125,0.8006359934806824,-9.348983764648438,-2.7175686359405518
1761401370301761800,9.97576171875,0.7826794981956482,-9.33469295501709,-2.718690872192383
1761401370311866000,9.9858662109375,0.764723002910614,-9.33237361907959,-2.7305121421813965
1761401370321947100,9.995947021484374,0.760757565498352,-9.330204010009766,-2.724377155303955
1761401370332003600,10.006003662109375,0.7572411298751831,-9.343372344970703,-2.706420660018921
1761401370342109200,10.016109130859375,0.7453449368476868,-9.348235130310059,-2.677690029144287
1761401370352190000,10.02618994140625,0.7704092264175415,-9.36245059967041,-2.6933271884918213
1761401370362271500,10.036271484375,0.7775918245315552,-9.36117935180664,-2.6898107528686523
1761401370372352500,10.0463525390625,0.7787889242172241,-9.353996276855469,-2.693402051925659
1761401370382409000,10.056408935546875,0.7787889242172241,-9.348085403442383,-2.6814310550689697
1761401370392514600,10.0665146484375,0.7656956315040588,-9.349283218383789,-2.676567792892456
1761401370402594800,10.0765947265625,0.7858967185020447,-9.346888542175293,-2.656291961669922
1761401370412679200,10.08667919921875,0.8038532137870789,-9.36237621307373,-2.6552445888519287
1761401370422756900,10.0967568359375,0.7978677153587341,-9.36357307434082,-2.668337821960449
1761401370432838100,10.106838134765624,0.7918074131011963,-9.368361473083496,-2.6898107528686523
1761401370442919400,10.11691943359375,0.7905354499816895,-9.36357307434082,-2.701781749725342
1761401370453000200,10.127000244140625,0.7893383502960205,-9.36357307434082,-2.7160720825195312
1761401370463081500,10.13708154296875,0.7845499515533447,-9.348085403442383,-2.7112836837768555
1761401370473162200,10.147162353515625,0.777367353439331,-9.334918022155762,-2.726771354675293
1761401370483242800,10.15724267578125,0.7834277153015137,-9.336039543151855,-2.741211414337158
1761401370493324500,10.167324462890624,0.7823054194450378,-9.334842681884766,-2.7076923847198486
1761401370503405600,10.177405517578125,0.7907599210739136,-9.359981536865234,-2.676717519760132
1761401370513486300,10.187486328125,0.7705588340759277,-9.357662200927734,-2.650306463241577
1761401370523567400,10.1975673828125,0.7871686220169067,-9.356390953063965,-2.677914619445801
1761401370533648400,10.2076484375,0.778714120388031,-9.370756149291992,-2.7077672481536865
1761401370543730200,10.217730224609374,0.7811083197593689,-9.382652282714844,-2.693402051925659
1761401370553810000,10.227809814453124,0.7739257216453552,-9.377938270568848,-2.696993350982666
1761401370563891700,10.2378916015625,0.7728034257888794,-9.324143409729004,-2.701706886291504
1761401370573972000,10.247971923828125,0.7954735159873962,-9.312097549438477,-2.719738245010376
1761401370584053500,10.258053466796875,0.7942764163017273,-9.332448959350586,-2.701781749725342
1761401370594134800,10.268134765625,0.7740005254745483,-9.354071617126465,-2.695721387863159
1761401370604215800,10.2782158203125,0.7644237279891968,-9.345691680908203,-2.704101085662842
1761401370614296800,10.288296875,0.761954665184021,-9.352873802185059,-2.7159974575042725
1761401370624378000,10.298378173828125,0.7571662664413452,-9.379210472106934,-2.7124061584472656
1761401370634459000,10.308458984375,0.7979425191879272,-9.373075485229492,-2.674398183822632
1761401370644539100,10.3185390625,0.7693617343902588,-9.350554466247559,-2.6360161304473877
1761401370654621200,10.32862109375,0.7717559337615967,-9.333795547485352,-2.656291961669922
1761401370664701700,10.33870166015625,0.782380223274231,-9.344419479370117,-2.6886136531829834
1761401370674759700,10.348759765625,0.7703344225883484,-9.349283218383789,-2.7148749828338623
1761401370684865000,10.358864990234375,0.781033456325531,-9.352799415588379,-2.7376201152801514
1761401370694944300,10.3689443359375,0.8121581077575684,-9.36701488494873,-2.7222073078155518
1761401370705025500,10.379025634765625,0.820537805557251,-9.36701488494873,-2.6995372772216797
1761401370715106600,10.3891064453125,0.8098387122154236,-9.356241226196289,-2.697143077850342
1761401370725188000,10.39918798828125,0.8052747845649719,-9.348983764648438,-2.7198879718780518
1761401370735268600,10.4092685546875,0.7824550271034241,-9.356241226196289,-2.734178304672241
1761401370745350100,10.41935009765625,0.7538742423057556,-9.345616340637207,-2.720860481262207
1761401370755430000,10.429429931640625,0.7443722486495972,-9.331326484680176,-2.7052981853485107
1761401370765491500,10.439491455078125,0.767192006111145,-9.355193138122559,-2.669534921646118
1761401370775593000,10.449593017578126,0.7719056010246277,-9.370680809020996,-2.675595283508301
1761401370785673500,10.459673583984374,0.783801794052124,-9.381380081176758,-2.6839749813079834
1761401370795732200,10.469732177734375,0.7706336975097656,-9.362300872802734,-2.692279815673828
1761401370805836000,10.4798359375,0.7692121267318726,-9.32893180847168,-2.7052981853485107
1761401370815916300,10.489916259765625,0.7763199210166931,-9.315764427185059,-2.7136778831481934
1761401370825997600,10.49999755859375,0.7942016124725342,-9.347935676574707,-2.7245266437530518
1761401370836078600,10.51007861328125,0.7929296493530273,-9.358710289001465,-2.736497640609741
1761401370846160100,10.52016015625,0.8001123070716858,-9.349133491516113,-2.738891839981079
1761401370856242200,10.5302421875,0.7798363566398621,-9.356390953063965,-2.7352259159088135
1761401370866322400,10.540322509765625,0.7763947248458862,-9.340903282165527,-2.700509786605835
1761401370876403000,10.55040283203125,0.7787889242172241,-9.36237621307373,-2.676642656326294
1761401370886484200,10.560484130859376,0.7788637280464172,-9.368361473083496,-2.6623523235321045
1761401370896565500,10.5705654296875,0.803928017616272,-9.353921890258789,-2.6779894828796387
1761401370906646300,10.580646240234374,0.7966706156730652,-9.344345092773438,-2.7041759490966797
1761401370916726800,10.590726806640625,0.7894880175590515,-9.325265884399414,-2.720860481262207
1761401370926807800,10.600807861328125,0.7918822169303894,-9.309703826904297,-2.719663381576538
1761401370936890000,10.61089013671875,0.79899001121521,-9.314492225646973,-2.7340288162231445
1761401370946970000,10.62097021484375,0.7918074131011963,-9.334842681884766,-2.718541145324707
1761401370957052000,10.631052001953124,0.8084920048713684,-9.357438087463379,-2.7329812049865723
1761401370967112000,10.64111181640625,0.8330325484275818,-9.357512474060059,-2.749516248703003
1761401370977213000,10.651212890625,0.8258499503135681,-9.343222618103027,-2.7602901458740234
1761401370987293700,10.661293701171875,0.8126818537712097,-9.334918022155762,-2.7661259174346924
1761401370997374200,10.671374267578125,0.8114847540855408,-9.314566612243652,-2.756549119949341
1761401371007456500,10.68145654296875,0.8212111592292786,-9.309778213500977,-2.7159974575042725
1761401371017530600,10.691530517578125,0.8212111592292786,-9.330129623413086,-2.701706886291504
1761401371027618600,10.70161865234375,0.7996633648872375,-9.338583946228027,-2.7183167934417725
1761401371037698800,10.71169873046875,0.7935281991958618,-9.352873802185059,-2.7661259174346924
1761401371047780400,10.7217802734375,0.7912088632583618,-9.334918022155762,-2.800767183303833
1761401371057860000,10.731860107421875,0.8090905547142029,-9.322872161865234,-2.798447608947754
1761401371067943000,10.74194287109375,0.8272715210914612,-9.33005428314209,-2.7364230155944824
1761401371078023700,10.752023681640624,0.8177695274353027,-9.344419479370117,-2.7052981853485107
1761401371088066600,10.762066650390626,0.8153005242347717,-9.362300872802734,-2.7352259159088135
1761401371098187800,10.772187744140625,0.8343044519424438,-9.350255012512207,-2.7543795108795166
1761401371108266800,10.782266845703125,0.8175450563430786,-9.343147277832031,-2.775777578353882
1761401371118347500,10.792347412109375,0.8330325484275818,-9.344269752502441,-2.7818379402160645
1761401371128428500,10.802428466796876,0.8298901915550232,-9.304765701293945,-2.789170265197754
1761401371138509000,10.812509033203124,0.8358756899833679,-9.291597366333008,-2.787973165512085
1761401371148590800,10.8225908203125,0.8418611884117126,-9.315464973449707,-2.7676970958709717
1761401371158671600,10.832671630859375,0.8430582880973816,-9.353696823120117,-2.756998062133789
1761401371168753400,10.84275341796875,0.8239794969558716,-9.341800689697266,-2.7557260990142822
1761401371178834000,10.852833984375,0.7821557521820068,-9.324069023132324,-2.7626843452453613
1761401371188915000,10.8629150390625,0.7869441509246826,-9.33005428314209,-2.7590930461883545
1761401371198972700,10.87297265625,0.7905354499816895,-9.370680809020996,-2.740088939666748
1761401371209076700,10.88307666015625,0.7870190143585205,-9.369483947753906,-2.723329544067383
1761401371219143000,10.893142822265625,0.8133552074432373,-9.326388359069824,-2.718616008758545
1761401371229239600,10.903239501953125,0.7966706156730652,-9.301323890686035,-2.722057580947876
1761401371239319800,10.91331982421875,0.800261914730072,-9.301323890686035,-2.7101614475250244
1761401371249400600,10.923400634765626,0.8001871109008789,-9.322796821594238,-2.7341034412384033
1761401371259481000,10.933481201171874,0.7798363566398621,-9.318158149719238,-2.7399394512176514
1761401371269562600,10.943562744140625,0.7930045127868652,-9.320477485656738,-2.7316346168518066
1761401371289725200,10.96372509765625,0.7956231236457825,-9.365742683410645,-2.736647367477417
1761401371299806200,10.97380615234375,0.8004863858222961,-9.340678215026855,-2.7234792709350586
1761401371309886500,10.983886474609376,0.8172457814216614,-9.323843955993652,-2.716371536254883
1761401371319945200,10.9939453125,0.8112602829933167,-9.317934036254883,-2.7222821712493896
1761401371330048800,11.004048828125,0.8099883794784546,-9.325041770935059,-2.7438299655914307
1761401371340130600,11.014130615234375,0.803928017616272,-9.345392227172852,-2.75812029838562
1761401371350221000,11.024220947265626,0.8242787718772888,-9.377564430236816,-2.7451019287109375
1761401371360291800,11.034291748046876,0.7932289242744446,-9.362152099609375,-2.7329812049865723
1761401371370372600,11.04437255859375,0.8098387122154236,-9.349133491516113,-2.691157579421997
1761401371380454400,11.054454345703125,0.8350526690483093,-9.341876029968262,-2.668562173843384
1761401371390534700,11.06453466796875,0.8133552074432373,-9.334768295288086,-2.7222073078155518
1761401371400597800,11.07459765625,0.8238298296928406,-9.325041770935059,-2.7975499629974365
1761401371410674200,11.084674072265624,0.8261492252349854,-9.315464973449707,-2.82979679107666
1761401371420778000,11.094778076171876,0.7987655401229858,-9.314416885375977,-2.8081741333007812
1761401371430859000,11.10485888671875,0.8025065064430237,-9.319205284118652,-2.749591112136841
1761401371440940000,11.11493994140625,0.8062474131584167,-9.346738815307617,-2.694674015045166
1761401371451021600,11.125021484375,0.8000374436378479,-9.357662200927734,-2.675445556640625
1761401371461101800,11.135101806640625,0.8059481382369995,-9.346814155578613,-2.7052981853485107
1761401371471159800,11.145159912109374,0.8082675337791443,-9.333645820617676,-2.7411365509033203
1761401371481268700,11.155268798828125,0.8212860226631165,-9.319205284118652,-2.769866943359375
1761401371491344400,11.165344482421874,0.8366986513137817,-9.3119478225708,-2.8033857345581055
1761401371501426400,11.175426513671875,0.8415619134902954,-9.322722434997559,-2.7747302055358887
1761401371511507000,11.1855068359375,0.8189666271209717,-9.316885948181152,-2.7555766105651855
1761401371521587200,11.195587158203125,0.8177695274353027,-9.308506965637207,-2.7543046474456787
1761401371531668200,11.205668212890625,0.8217349052429199,-9.325041770935059,-2.762908697128296
1761401371541749200,11.215749267578126,0.8109610080718994,-9.331101417541504,-2.767622232437134
1761401371551830800,11.225830810546874,0.8349030017852783,-9.342923164367676,-2.7510125637054443
1761401371561911300,11.235911376953124,0.8624363541603088,-9.3404541015625,-2.723703622817993
1761401371571993000,11.2459931640625,0.8516624569892883,-9.338134765625,-2.72841739654541
1761401371582074000,11.25607421875,0.8468740582466125,-9.360804557800293,-2.733205795288086
1761401371592154600,11.266154541015625,0.8479962944984436,-9.342848777770996,-2.755875825881958
1761401371602230300,11.276230224609375,0.8157494068145752,-9.329830169677734,-2.7700912952423096
1761401371612317000,11.28631689453125,0.8035539388656616,-9.33357048034668,-2.7579708099365234
1761401371622398200,11.296398193359375,0.81440269947052,-9.328782081604004,-2.723329544067383
1761401371632479500,11.3064794921875,0.7977181077003479,-9.349207878112793,-2.7160720825195312
1761401371642559700,11.316559814453125,0.8084171414375305,-9.339556694030762,-2.716146945953369
1761401371652640500,11.326640625,0.8143278360366821,-9.313295364379883,-2.7388172149658203
1761401371662703600,11.33670361328125,0.8262240290641785,-9.319130897521973,-2.762833833694458
1761401371672802600,11.346802490234374,0.8084171414375305,-9.326462745666504,-2.7304375171661377
1761401371682884400,11.35688427734375,0.7906103134155273,-9.320552825927734,-2.6873416900634766
1761401371692964400,11.36696435546875,0.7985410690307617,-9.313145637512207,-2.666167974472046
1761401371703046400,11.37704638671875,0.830713152885437,-9.344045639038086,-2.6914567947387695
1761401371713130800,11.387130859375,0.8173954486846924,-9.363199234008789,-2.730886220932007
1761401371723207700,11.397207763671876,0.8161983489990234,-9.363199234008789,-2.732008695602417
1761401371733289500,11.40728955078125,0.8138789534568787,-9.342923164367676,-2.7212347984313965
1761401371743370200,11.417370361328125,0.8235305547714233,-9.341726303100586,-2.6914567947387695
1761401371753451300,11.427451171875,0.8163479566574097,-9.341726303100586,-2.6937761306762695
1761401371763532500,11.437532470703125,0.8043769598007202,-9.356091499328613,-2.6996867656707764
1761401371773590300,11.44759033203125,0.7830535769462585,-9.346963882446289,-2.7147254943847656
1761401371783693800,11.45769384765625,0.7770680785179138,-9.327884674072266,-2.7242274284362793
1761401371793775000,11.467775146484374,0.7878419756889343,-9.32661247253418,-2.731484889984131
1761401371803856400,11.4778564453125,0.8296657204627991,-9.347935676574707,-2.722132444381714
1761401371813938000,11.48793798828125,0.8488193154335022,-9.363423347473145,-2.7102363109588623
1761401371824018200,11.49801806640625,0.8488193154335022,-9.375394821166992,-2.7019314765930176
1761401371834099500,11.508099365234376,0.8608651757240295,-9.356241226196289,-2.6875662803649902
1761401371844181000,11.518180908203124,0.8321347236633301,-9.33005428314209,-2.6922049522399902
1761401371854261000,11.528260986328124,0.7820809483528137,-9.308731079101562,-2.706345796585083
1761401371864342000,11.538342041015625,0.7855974435806274,-9.338508605957031,-2.7183916568756104
1761401371874423300,11.54842333984375,0.796371340751648,-9.383923530578613,-2.7136778831481934
1761401371884504300,11.55850439453125,0.8035539388656616,-9.38744068145752,-2.6922049522399902
1761401371894585300,11.56858544921875,0.8072200417518616,-9.365967750549316,-2.6886136531829834
1761401371904666000,11.578666015625,0.8239046335220337,-9.339556694030762,-2.701781749725342
1761401371914748000,11.588747802734375,0.8107365369796753,-9.316961288452148,-2.719663381576538
1761401371924828400,11.598828369140625,0.7977181077003479,-9.3026704788208,-2.678961992263794
1761401371934909000,11.608908935546875,0.7898620963096619,-9.338358879089355,-2.675595283508301
1761401371944991000,11.618990966796876,0.7945756912231445,-9.356241226196289,-2.6840498447418213
1761401371955071500,11.629071533203126,0.8160486817359924,-9.344195365905762,-2.7067947387695312
1761401371965153300,11.6391533203125,0.8016834855079651,-9.347861289978027,-2.713902473449707
1761401371975233500,11.649233642578125,0.8075941801071167,-9.363348960876465,-2.7258734703063965
1761401371985281500,11.659281494140625,0.8279448747634888,-9.368062019348145,-2.7200376987457275
1761401371995395600,11.6693955078125,0.8172457814216614,-9.381230354309082,-2.704475164413452
1761401372005476400,11.679476318359375,0.7994388937950134,-9.388487815856934,-2.666167974472046
1761401372015557600,11.6895576171875,0.8114098906517029,-9.383699417114258,-2.6494834423065186
1761401372025638400,11.699638427734374,0.788739800453186,-9.371877670288086,-2.6505308151245117
1761401372035720000,11.709719970703125,0.7755717039108276,-9.348011016845703,-2.6552445888519287
1761401372045801200,11.71980126953125,0.786270797252655,-9.347935676574707,-2.668412685394287
1761401372055862000,11.729862060546875,0.7886649966239929,-9.356315612792969,-2.669684648513794
1761401372065962500,11.73996240234375,0.8089408874511719,-9.346664428710938,-2.6757447719573975
1761401372076043500,11.75004345703125,0.8220341801643372,-9.352575302124023,-2.6960954666137695
1761401372086103300,11.760103271484375,0.784998893737793,-9.345541954040527,-2.6983401775360107
1761401372096205600,11.77020556640625,0.7687631845474243,-9.344643592834473,-2.7026796340942383
1761401372106286000,11.7802861328125,0.7663689851760864,-9.349431991577148,-2.7002854347229004
1761401372116368400,11.790368408203125,0.7700351476669312,-9.360206604003906,-2.6919806003570557
1761401372126448600,11.80044873046875,0.756866991519928,-9.385345458984375,-2.6764183044433594
1761401372136530700,11.81053076171875,0.754547655582428,-9.361477851867676,-2.6751463413238525
1761401372146610400,11.8206103515625,0.7677157521247864,-9.339930534362793,-2.6716299057006836
1761401372156691000,11.83069091796875,0.7653215527534485,-9.342324256896973,-2.6680386066436768
1761401372166773000,11.84077294921875,0.7867945432662964,-9.35773754119873,-2.6657938957214355
1761401372176853800,11.850853759765625,0.7857470512390137,-9.363648414611816,-2.6598832607269287
1761401372186934500,11.8609345703125,0.779761552810669,-9.352949142456055,-2.675370693206787
1761401372197015800,11.871015869140624,0.7725041508674622,-9.362525939941406,-2.702829360961914
1761401372207097000,11.88109716796875,0.7617302536964417,-9.367314338684082,-2.7003602981567383
1761401372217155300,11.8911552734375,0.7665934562683105,-9.391180992126465,-2.683675765991211
1761401372227259100,11.901259033203125,0.7774421572685242,-9.38399887084961,-2.652625799179077
1761401372237317000,11.911317138671874,0.7798363566398621,-9.3851957321167,-2.6467151641845703
1761401372247420700,11.921420654296876,0.777367353439331,-9.374496459960938,-2.6669909954071045
1761401372257501700,11.931501708984374,0.7704092264175415,-9.356465339660645,-2.6933271884918213
1761401372267582500,11.94158251953125,0.7500584721565247,-9.340977668762207,-2.700435161590576
1761401372277664500,11.95166455078125,0.7500584721565247,-9.342175483703613,-2.700435161590576
1761401372287744800,11.961744873046875,0.763301432132721,-9.349283218383789,-2.6849474906921387
1761401372297803500,11.971803466796874,0.7799860239028931,-9.348085403442383,-2.6874165534973145
1761401372307907300,11.9819072265625,0.7954735159873962,-9.373075485229492,-2.692279815673828
1761401372317992700,11.99199267578125,0.7835025191307068,-9.36117935180664,-2.7137527465820312
1761401372328045300,12.00204541015625,0.7738508582115173,-9.349207878112793,-2.7375452518463135
1761401372338150400,12.012150390625,0.7741501331329346,-9.347861289978027,-2.7580454349517822
1761401372348235000,12.022235107421874,0.7683143019676208,-9.346738815307617,-2.734178304672241
1761401372358311700,12.032311767578125,0.7564181089401245,-9.357512474060059,-2.7030537128448486
1761401372368358700,12.042358642578124,0.7505074143409729,-9.349207878112793,-2.676717519760132
1761401372378474200,12.05247412109375,0.7529016137123108,-9.343222618103027,-2.6827030181884766
1761401372388555500,12.062555419921875,0.7277625203132629,-9.32302188873291,-2.696918487548828
1761401372398636300,12.07263623046875,0.747963547706604,-9.332448959350586,-2.7292404174804688
1761401372408717000,12.082717041015625,0.7682394981384277,-9.358634948730469,-2.7484686374664307
1761401372418775300,12.092775390625,0.7870190143585205,-9.359907150268555,-2.7340288162231445
1761401372428878800,12.10287890625,0.8062474131584167,-9.36581802368164,-2.692354679107666
1761401372438959900,12.1129599609375,0.7799860239028931,-9.370756149291992,-2.6910078525543213
1761401372449041400,12.12304150390625,0.7595604658126831,-9.369633674621582,-2.7159974575042725
1761401372459121700,12.13312158203125,0.7630769610404968,-9.365967750549316,-2.7339539527893066
1761401372469203000,12.143202880859375,0.7680150270462036,-9.35886001586914,-2.6861445903778076
1761401372479284700,12.15328466796875,0.7885153889656067,-9.350480079650879,-2.646790027618408
1761401372489343700,12.16334375,0.7801356315612793,-9.334918022155762,-2.6408045291900635
1761401372499446500,12.173446533203125,0.7872434258460999,-9.342025756835938,-2.673126220703125
1761401372509527000,12.183527099609375,0.7907599210739136,-9.351602554321289,-2.677914619445801
1761401372519608600,12.193608642578125,0.7704840302467346,-9.356465339660645,-2.675445556640625
1761401372529689000,12.203689208984375,0.7561188340187073,-9.345766067504883,-2.678961992263794
1761401372539735800,12.21373583984375,0.7357681393623352,-9.361403465270996,-2.681281328201294
1761401372549851400,12.223851318359374,0.7585130333900452,-9.374422073364258,-2.674173593521118
1761401372559932700,12.2339326171875,0.7597101330757141,-9.374422073364258,-2.676567792892456
1761401372569991000,12.243990966796876,0.7585130333900452,-9.375618934631348,-2.676567792892456
1761401372580093700,12.25409375,0.7728782296180725,-9.368436813354492,-2.673051357269287
1761401372590175200,12.26417529296875,0.7751976251602173,-9.340903282165527,-2.6874165534973145
1761401372600255700,12.274255859375,0.7656956315040588,-9.311050415039062,-2.6909329891204834
1761401372610306300,12.284306396484375,0.7476642727851868,-9.330278396606445,-2.708739995956421
1761401372620418800,12.294418701171875,0.7775170207023621,-9.356390953063965,-2.7064952850341797
1761401372630499000,12.3044990234375,0.7991396188735962,-9.369483947753906,-2.6827030181884766
1761401372640580000,12.314580078125,0.7907599210739136,-9.358784675598145,-2.673126220703125
1761401372650661600,12.32466162109375,0.8051251173019409,-9.332448959350586,-2.6791117191314697
1761401372660742100,12.3347421875,0.7956979870796204,-9.33125114440918,-2.6779894828796387
1761401372670824400,12.344824462890625,0.7729530334472656,-9.368361473083496,-2.6815059185028076
1761401372680900400,12.354900390625,0.7716811299324036,-9.377863883972168,-2.698190450668335
1761401372690985700,12.36498583984375,0.7538742423057556,-9.369633674621582,-2.679036855697632
1761401372701067300,12.3750673828125,0.7443722486495972,-9.35773754119873,-2.6467151641845703
1761401372711134700,12.385134765625,0.7575404047966003,-9.35886001586914,-2.6443958282470703
1761401372721228300,12.395228271484376,0.7921814918518066,-9.368287086486816,-2.644545316696167
1761401372731309800,12.405309814453124,0.7956979870796204,-9.36589241027832,-2.674398183822632
1761401372741390300,12.415390380859375,0.7778162956237793,-9.343147277832031,-2.7030537128448486
1761401372751471400,12.425471435546875,0.7789385318756104,-9.334768295288086,-2.7269208431243896
1761401372761553200,12.43555322265625,0.7394342422485352,-9.348085403442383,-2.7351510524749756
1761401372771632600,12.445632568359375,0.7623288035392761,-9.357587814331055,-2.677914619445801
1761401372781683700,12.45568359375,0.7529016137123108,-9.343372344970703,-2.6360161304473877
1761401372791795200,12.465795166015624,0.7421277165412903,-9.355342864990234,-2.649109363555908
1761401372801854000,12.47585400390625,0.787467896938324,-9.36701488494873,-2.673275947570801
1761401372811946800,12.48594677734375,0.8088660836219788,-9.344195365905762,-2.7032034397125244
1761401372822039300,12.496039306640625,0.823006808757782,-9.347786903381348,-2.7199628353118896
1761401372832120000,12.5061201171875,0.8074445128440857,-9.36694049835205,-2.7222821712493896
1761401372842199800,12.51619970703125,0.7764695286750793,-9.353996276855469,-2.717344045639038
1761401372852281600,12.526281494140624,0.7800608277320862,-9.373075485229492,-2.7054479122161865
1761401372862362600,12.536362548828125,0.7764695286750793,-9.374272346496582,-2.7006595134735107
1761401372872444200,12.546444091796875,0.7716811299324036,-9.36476993560791,-2.7101614475250244
1761401372882524400,12.5565244140625,0.7812579274177551,-9.356315612792969,-2.7077672481536865
1761401372892605400,12.56660546875,0.7980921864509583,-9.361104011535645,-2.670806884765625
1761401372902686500,12.5766865234375,0.781183123588562,-9.367238998413086,-2.6467151641845703
1761401372912745000,12.586744873046875,0.7775918245315552,-9.361329078674316,-2.6431238651275635
1761401372922807300,12.596807373046875,0.7477391362190247,-9.347112655639648,-2.635791540145874
1761401372932929500,12.606929443359375,0.7370400428771973,-9.349507331848145,-2.6310031414031982
1761401372943011000,12.617010986328125,0.723797082901001,-9.371054649353027,-2.64170241355896
1761401372953069000,12.627069091796875,0.7118260860443115,-9.379509925842285,-2.642899513244629
1761401372963172600,12.637172607421874,0.7274632453918457,-9.374646186828613,-2.6286089420318604
1761401372973254000,12.64725390625,0.7572411298751831,-9.376891136169434,-2.6490345001220703
1761401372983311000,12.65731103515625,0.7463923692703247,-9.369857788085938,-2.6512792110443115
1761401372993415700,12.667415771484375,0.7714566588401794,-9.369708061218262,-2.6478374004364014
1761401373003497200,12.677497314453126,0.7822306156158447,-9.369708061218262,-2.6419267654418945
1761401373013577500,12.687577392578126,0.7726537585258484,-9.354220390319824,-2.6490345001220703
1761401373023659000,12.697658935546874,0.7737760543823242,-9.332673072814941,-2.675295829772949
1761401373033720000,12.707719970703126,0.7582137584686279,-9.364995002746582,-2.6895864009857178
1761401373043820800,12.71782080078125,0.7426514625549316,-9.376965522766113,-2.6931028366088867
1761401373053901800,12.72790185546875,0.7509563565254211,-9.3590087890625,-2.7038767337799072
1761401373063983600,12.737983642578126,0.7658452391624451,-9.357587814331055,-2.698265314102173
1761401373074047700,12.7480478515625,0.7552210092544556,-9.379135131835938,-2.670732021331787
1761401373084145000,12.758144775390624,0.770858108997345,-9.397017478942871,-2.6385598182678223
1761401373094225400,12.768225341796875,0.7827543020248413,-9.38863754272461,-2.639756917953491
1761401373104306700,12.778306640625,0.7778910994529724,-9.36469554901123,-2.666018486022949
1761401373114388000,12.788387939453125,0.7492355108261108,-9.334918022155762,-2.6814310550689697
1761401373124447200,12.798447265625,0.7407809495925903,-9.32661247253418,-2.6921300888061523
1761401373134549800,12.8085498046875,0.7431751489639282,-9.319430351257324,-2.698115587234497
1761401373144617000,12.818616943359375,0.7659949064254761,-9.340903282165527,-2.6659436225891113
1761401373154712000,12.828712158203125,0.7814823985099792,-9.369483947753906,-2.666018486022949
1761401373164791800,12.838791748046875,0.7934533953666687,-9.400459289550781,-2.669684648513794
1761401373174874400,12.848874267578125,0.7646481394767761,-9.395819664001465,-2.691082715988159
1761401373184954400,12.858954345703125,0.7371896505355835,-9.352873802185059,-2.7088894844055176
1761401373195035400,12.869035400390626,0.7683143019676208,-9.325265884399414,-2.698190450668335
1761401373205117400,12.879117431640625,0.767192006111145,-9.344419479370117,-2.6659436225891113
1761401373215197700,12.88919775390625,0.7589619159698486,-9.343297004699707,-2.63130259513855
1761401373225278000,12.89927783203125,0.7597101330757141,-9.349431991577148,-2.6394577026367188
1761401373235359500,12.909359375,0.7668179273605347,-9.366117477416992,-2.658611297607422
1761401373245440800,12.919440673828126,0.7606827616691589,-9.361329078674316,-2.6944496631622314
1761401373255522600,12.9295224609375,0.7689876556396484,-9.346888542175293,-2.725574254989624
1761401373265602800,12.939602783203124,0.7869441509246826,-9.355193138122559,-2.7112836837768555
1761401373275687400,12.9496875,0.7882161140441895,-9.36117935180664,-2.6910078525543213
1761401373285764900,12.959764892578125,0.8013842105865479,-9.380257606506348,-2.6862943172454834
1761401373295824000,12.969823974609374,0.8145523071289062,-9.38856315612793,-2.6648213863372803
