time,seconds_elapsed,z,y,x
1761402185694125600,0.09912548828125,-0.04172039031982422,0.008870430290699005,0.018831901252269745
1761402185714287600,0.11928759765625,-0.0656280517578125,0.003662504255771637,0.017588570713996887
1761402185734450000,0.139449951171875,-0.04456043243408203,0.006011396646499634,0.023696422576904297
1761402185754586600,0.159586669921875,-0.04347801208496094,0.010849855840206146,0.02317441999912262
1761402185774774500,0.1797744140625,-0.052494049072265625,0.010257109999656677,0.019382856786251068
1761402185794936600,0.1999365234375,-0.04609107971191406,0.007865190505981445,0.01842576265335083
1761402185815099000,0.220098876953125,-0.05476665496826172,0.012902718037366867,0.020526088774204254
1761402185835261200,0.24026123046875,-0.05296516418457031,0.006282199174165726,0.019101984798908234
1761402185855424300,0.26042431640625,-0.04281425476074219,0.006235625594854355,0.025716401636600494
1761402185875585800,0.280585693359375,-0.045561790466308594,0.004033055156469345,0.022333934903144836
1761402185895748000,0.300748046875,-0.045739173889160156,0.005593147128820419,0.019567087292671204
1761402185915911000,0.320910888671875,-0.05092334747314453,0.006904400885105133,0.01773199439048767
1761402185936072400,0.341072509765625,-0.04801464080810547,0.010608937591314316,0.017098747193813324
1761402185956234200,0.361234130859375,-0.05083179473876953,0.011339250952005386,0.018451407551765442
1761402185976398000,0.381398193359375,-0.045853614807128906,0.009749695658683777,0.022725239396095276
1761402185996534300,0.4015341796875,-0.04571533203125,0.007586389780044556,0.021026290953159332
1761402186016722700,0.42172265625,-0.042201995849609375,0.009380176663398743,0.021781645715236664
1761402186036887800,0.4418876953125,-0.04790210723876953,0.007023230195045471,0.01614232361316681
1761402186057046300,0.46204638671875,-0.048004150390625,0.009688273072242737,0.0242856964468956
1761402186077228000,0.48222802734375,-0.044709205627441406,0.004443518817424774,0.021382495760917664
1761402186097362200,0.502362060546875,-0.050192832946777344,0.0072603896260261536,0.015010558068752289
1761402186117533200,0.522533203125,-0.04639244079589844,0.01070646196603775,0.020350195467472076
1761402186137660400,0.542660400390625,-0.053165435791015625,0.00769534707069397,0.02021123468875885
1761402186157858300,0.5628583984375,-0.044544219970703125,0.008141327649354935,0.017758332192897797
1761402186178015700,0.583015625,-0.043112754821777344,0.008990094065666199,0.018322892487049103
1761402186198174700,0.6031748046875,-0.051074981689453125,0.002658601850271225,0.018208421766757965
1761402186218312200,0.623312255859375,-0.049790382385253906,0.006569463759660721,0.021476246416568756
1761402186238481400,0.6434814453125,-0.050994873046875,0.007176976650953293,0.016083963215351105
1761402186258669600,0.663669677734375,-0.048038482666015625,0.002590365707874298,0.02107621729373932
1761402186278811100,0.68381103515625,-0.05348014831542969,0.009094491600990295,0.01841004192829132
1761402186298994000,0.703993896484375,-0.051743507385253906,0.007235109806060791,0.01991092413663864
1761402186319157000,0.724156982421875,-0.0498199462890625,0.009012408554553986,0.018695853650569916
1761402186339281000,0.744281005859375,-0.04871177673339844,0.006727732717990875,0.02051207423210144
1761402186359476500,0.7644765625,-0.045116424560546875,0.01053261011838913,0.016183927655220032
1761402186379643000,0.784642822265625,-0.04990863800048828,0.0077424682676792145,0.021848522126674652
1761402186399780000,0.804780029296875,-0.048542022705078125,0.006147913634777069,0.017339013516902924
1761402186419942400,0.8249423828125,-0.043209075927734375,0.002390515059232712,0.02169424295425415
1761402186440129500,0.845129638671875,-0.05448150634765625,0.0025747232139110565,0.02284294366836548
1761402186460292000,0.8652919921875,-0.05730152130126953,0.007382575422525406,0.01688104122877121
1761402186480428800,0.8854287109375,-0.043036460876464844,0.005202297121286392,0.018446214497089386
1761402186500617000,0.905616943359375,-0.04727935791015625,0.008882280439138412,0.019935905933380127
1761402186520786400,0.925786376953125,-0.04916954040527344,0.006860055029392242,0.019218772649765015
1761402186540941800,0.94594189453125,-0.05067157745361328,0.004294220358133316,0.019191928207874298
1761402186561104000,0.966103759765625,-0.05673980712890625,0.007466726005077362,0.01856326311826706
1761402186581266400,0.986266357421875,-0.04945087432861328,0.0027798376977443695,0.023450560867786407
1761402186601425700,1.00642578125,-0.04697608947753906,0.006772302091121674,0.01888619363307953
1761402186621564700,1.026564697265625,-0.04781627655029297,0.005496691912412643,0.018981195986270905
1761402186641752600,1.046752685546875,-0.04454326629638672,0.001880347728729248,0.017981640994548798
1761402186661894100,1.06689404296875,-0.04883575439453125,0.006714541465044022,0.016111038625240326
1761402186682073600,1.087073486328125,-0.04921245574951172,0.004046224057674408,0.015637919306755066
1761402186702260500,1.107260498046875,-0.056679725646972656,0.0033878423273563385,0.02005300670862198
1761402186722376700,1.127376708984375,-0.05164146423339844,0.00508720800280571,0.020968124270439148
1761402186742560000,1.14756005859375,-0.04646778106689453,0.006085958331823349,0.017629191279411316
1761402186762726100,1.16772607421875,-0.04998302459716797,0.00964859127998352,0.02434030920267105
1761402186782888200,1.18788818359375,-0.04409980773925781,0.0008077807724475861,0.016673922538757324
1761402186803047200,1.208047119140625,-0.04555797576904297,0.00961260125041008,0.015016652643680573
1761402186823188000,1.22818798828125,-0.04825019836425781,0.009176108986139297,0.016183145344257355
1761402186843375600,1.248375732421875,-0.04717063903808594,0.008800666779279709,0.01790548861026764
1761402186863537700,1.26853759765625,-0.052692413330078125,0.0044526346027851105,0.017301656305789948
1761402186883700000,1.288699951171875,-0.05039787292480469,0.006169110536575317,0.01887846738100052
1761402186903862000,1.308862060546875,-0.045551300048828125,0.007532689720392227,0.01802431046962738
1761402186924024300,1.3290244140625,-0.05378913879394531,0.0037889108061790466,0.011723227798938751
1761402186944187100,1.349187255859375,-0.053032875061035156,0.004035182297229767,0.014495328068733215
1761402186964348700,1.3693486328125,-0.049041748046875,0.005297515541315079,0.021641552448272705
1761402186984511000,1.389510986328125,-0.05327033996582031,0.005890246480703354,0.021443307399749756
1761402187004669200,1.409669189453125,-0.04120159149169922,0.005743060261011124,0.01820884644985199
1761402187024835600,1.429835693359375,-0.051166534423828125,0.0053235627710819244,0.02229636162519455
1761402187044998700,1.44999853515625,-0.048305511474609375,0.007230114191770554,0.01857297122478485
1761402187065161000,1.470160888671875,-0.04765129089355469,0.005165424197912216,0.02484346181154251
1761402187085322500,1.490322509765625,-0.053366661071777344,0.011369757354259491,0.020016074180603027
1761402187105484800,1.51048486328125,-0.05345726013183594,0.007291022688150406,0.021643199026584625
1761402187125647600,1.530647705078125,-0.054828643798828125,0.007715217769145966,0.015589512884616852
1761402187145784800,1.550784912109375,-0.046184539794921875,0.0015310980379581451,0.01842235028743744
1761402187165971500,1.570971435546875,-0.044915199279785156,0.002439122647047043,0.016456693410873413
1761402187186133800,1.5911337890625,-0.051529884338378906,0.007421523332595825,0.017866723239421844
1761402187206296000,1.611296142578125,-0.049350738525390625,0.007205989211797714,0.022950373589992523
1761402187226458600,1.631458740234375,-0.048554420471191406,0.007702406495809555,0.017567701637744904
1761402187246621700,1.65162158203125,-0.05341815948486328,0.007340956479310989,0.014543265104293823
1761402187266783200,1.671783203125,-0.05629920959472656,0.008769344538450241,0.015523560345172882
1761402187286923500,1.691923583984375,-0.049765586853027344,0.0012566372752189636,0.015257224440574646
1761402187307108000,1.712108154296875,-0.04730510711669922,0.0065222084522247314,0.01726362109184265
1761402187327270100,1.732270263671875,-0.05321025848388672,0.008746679872274399,0.018624521791934967
1761402187347433000,1.752432861328125,-0.052626609802246094,0.0035532116889953613,0.01273299753665924
1761402187367594200,1.77259423828125,-0.05472087860107422,0.0018292628228664398,0.014523617923259735
1761402187387756500,1.792756591796875,-0.05486869812011719,0.002667553722858429,0.01706019788980484
1761402187407918800,1.8129189453125,-0.05930042266845703,0.003975313156843185,0.01152317225933075
1761402187428077000,1.8330771484375,-0.049971580505371094,0.005904611200094223,0.01669875532388687
1761402187448251100,1.853251220703125,-0.047351837158203125,0.005407314747571945,0.014394164085388184
1761402187468406300,1.87340625,-0.049576759338378906,0.008209481835365295,0.017763227224349976
1761402187488568600,1.893568603515625,-0.040660858154296875,0.0026255808770656586,0.010698914527893066
1761402187508726500,1.9137265625,-0.04939460754394531,0.0006545707583427429,0.015584707260131836
1761402187528892400,1.933892333984375,-0.049060821533203125,0.01231979951262474,0.011857196688652039
1761402187549055000,1.954054931640625,-0.05568885803222656,0.003046184778213501,0.018109947443008423
1761402187569213400,1.97421337890625,-0.04948139190673828,-0.00028419122099876404,0.017532147467136383
1761402187589379600,1.994379638671875,-0.05229949951171875,0.005399622023105621,0.008784137666225433
1761402187609502000,2.014501953125,-0.04791259765625,0.005683671683073044,0.015794388949871063
1761402187629704200,2.0347041015625,-0.05737876892089844,0.009508945047855377,0.019621603190898895
1761402187649866500,2.054866455078125,-0.04469776153564453,0.00605924054980278,0.015447236597537994
1761402187670028500,2.075028564453125,-0.04645061492919922,0.009714342653751373,0.020317725837230682
1761402187690191000,2.095191162109375,-0.048956871032714844,0.008880570530891418,0.018814660608768463
1761402187710353200,2.115353271484375,-0.045332908630371094,0.0055376142263412476,0.01507604867219925
1761402187730516000,2.135515869140625,-0.054009437561035156,0.007077362388372421,0.014608852565288544
1761402187750674400,2.15567431640625,-0.055596351623535156,0.001987472176551819,0.018742211163043976
1761402187770840000,2.175840087890625,-0.05073833465576172,0.004706952720880508,0.014896959066390991
1761402187791002400,2.19600244140625,-0.05193901062011719,0.0042114779353141785,0.017657265067100525
1761402187811165000,2.2161650390625,-0.05643939971923828,0.00816546380519867,0.019663110375404358
1761402187831323000,2.236322998046875,-0.052547454833984375,0.0023092925548553467,0.01833062618970871
1761402187851489300,2.2564892578125,-0.050818443298339844,0.006048943847417831,0.018691889941692352
1761402187871651300,2.2766513671875,-0.04666900634765625,0.00767979770898819,0.01629278063774109
1761402187891810000,2.29681005859375,-0.0529632568359375,0.0013491101562976837,0.013722985982894897
1761402187911977000,2.31697705078125,-0.05615234375,0.004311695694923401,0.011120729148387909
1761402187932117500,2.337117431640625,-0.053450584411621094,0.0023894794285297394,0.01711178570985794
1761402187952300500,2.357300537109375,-0.052771568298339844,0.007100902497768402,0.013030879199504852
1761402187972462800,2.377462890625,-0.045357704162597656,0.007240306586027145,0.01565517485141754
1761402187992625200,2.397625244140625,-0.05152606964111328,0.006826344877481461,0.01944524049758911
1761402188012787500,2.417787353515625,-0.04955005645751953,0.006134402006864548,0.01687614619731903
1761402188032929500,2.437929443359375,-0.047008514404296875,0.007195048034191132,0.019856691360473633
1761402188053075000,2.458074951171875,-0.052285194396972656,0.008559338748455048,0.015726186335086823
1761402188073274400,2.4782744140625,-0.05276012420654297,0.009544670581817627,0.014721907675266266
1761402188093437000,2.49843701171875,-0.04333209991455078,0.003452971577644348,0.018166042864322662
1761402188113599000,2.518598876953125,-0.049414634704589844,0.0013644173741340637,0.017640799283981323
1761402188133736000,2.53873583984375,-0.052634239196777344,0.0010404102504253387,0.0134945809841156
1761402188153895200,2.558895263671875,-0.060311317443847656,0.004996810108423233,0.008940249681472778
1761402188174085600,2.579085693359375,-0.05207633972167969,0.007518798112869263,0.015917569398880005
1761402188194246400,2.599246337890625,-0.05697917938232422,-0.0015087909996509552,0.02379574626684189
1761402188214410800,2.61941064453125,-0.058577537536621094,0.002157021313905716,0.01573125272989273
1761402188234547500,2.63954736328125,-0.054279327392578125,0.006080497056245804,0.01328810304403305
1761402188254712600,2.659712646484375,-0.04312705993652344,0.005232185125350952,0.011249072849750519
1761402188274897200,2.679897216796875,-0.05183219909667969,0.004270751029253006,0.00885745882987976
1761402188295059500,2.7000595703125,-0.049373626708984375,0.0032611191272735596,0.01901812106370926
1761402188315242800,2.72024267578125,-0.04758453369140625,0.008644834160804749,0.01854093372821808
1761402188335384600,2.740384521484375,-0.05085563659667969,0.003404684364795685,0.016192972660064697
1761402188355546000,2.760546142578125,-0.055167198181152344,0.004411421716213226,0.014257319271564484
1761402188375686000,2.780685791015625,-0.05389595031738281,0.006137233227491379,0.011692896485328674
1761402188395870700,2.80087060546875,-0.049109458923339844,0.004406258463859558,0.015293456614017487
1761402188416033000,2.821032958984375,-0.04779529571533203,0.0016468875110149384,0.010455317795276642
1761402188436195300,2.8411953125,-0.04729747772216797,0.002658899873495102,0.01359211653470993
1761402188456357600,2.861357666015625,-0.05323505401611328,0.0015584193170070648,0.0176246240735054
1761402188476520400,2.8815205078125,-0.04509449005126953,0.0010398812592029572,0.01611202210187912
1761402188496657000,2.901656982421875,-0.04535198211669922,0.005776111036539078,0.01859743893146515
1761402188516844300,2.92184423828125,-0.05135345458984375,0.005645904690027237,0.01950213313102722
1761402188537007600,2.942007568359375,-0.051395416259765625,0.00636320561170578,0.016343936324119568
1761402188557169000,2.9621689453125,-0.055960655212402344,0.0032129213213920593,0.011443331837654114
1761402188577332000,2.98233203125,-0.04904460906982422,0.001819618046283722,0.017384834587574005
1761402188597459200,3.002459228515625,-0.050530433654785156,0.000015951693058013916,0.013180121779441833
1761402188617656600,3.022656494140625,-0.05014228820800781,-0.00010035187005996704,0.014091603457927704
1761402188637818000,3.042818115234375,-0.054012298583984375,0.003250475972890854,0.015606716275215149
1761402188657984500,3.062984619140625,-0.05289268493652344,0.0033459290862083435,0.015946179628372192
1761402188678139000,3.083138916015625,-0.05034351348876953,0.005144432187080383,0.01192948967218399
1761402188698329300,3.103329345703125,-0.050449371337890625,0.00682402029633522,0.014758974313735962
1761402188718428000,3.123427978515625,-0.05013751983642578,0.001073487102985382,0.017977021634578705
1761402188738629600,3.143629638671875,-0.048134803771972656,0.009758342057466507,0.018761254847049713
1761402188758791700,3.163791748046875,-0.04804515838623047,0.008937276899814606,0.01632138341665268
1761402188778954000,3.1839541015625,-0.050769805908203125,0.004645872861146927,0.014250539243221283
1761402188799091700,3.204091796875,-0.04770946502685547,0.001805625855922699,0.009409204125404358
1761402188819278800,3.22427880859375,-0.050963401794433594,0.004343017935752869,0.012975938618183136
1761402188839441000,3.24444091796875,-0.049030303955078125,0.008672736585140228,0.02235601842403412
1761402188859603500,3.264603515625,-0.052605628967285156,0.010740749537944794,0.01711532473564148
1761402188879765500,3.284765625,-0.04757976531982422,0.007352989166975021,0.020018093287944794
1761402188899927600,3.304927490234375,-0.04992485046386719,0.012186970561742783,0.012419156730175018
1761402188920086000,3.3250859375,-0.05071449279785156,0.006941601634025574,0.016544610261917114
1761402188940253000,3.3452529296875,-0.04521751403808594,0.00780511274933815,0.012804210186004639
1761402188960417300,3.365417236328125,-0.04802227020263672,0.014337077736854553,0.014864794909954071
1761402188980573000,3.385572998046875,-0.05103588104248047,0.006800256669521332,0.018932603299617767
1761402189000738800,3.40573876953125,-0.04623889923095703,0.0030818209052085876,0.01396758109331131
1761402189020901400,3.4259013671875,-0.048254966735839844,0.007254071533679962,0.016003988683223724
1761402189041059800,3.446059814453125,-0.050026893615722656,0.0038208402693271637,0.014920532703399658
1761402189061226000,3.46622607421875,-0.05075359344482422,0.005518101155757904,0.010932393372058868
1761402189081388500,3.486388427734375,-0.04798412322998047,0.0025379955768585205,0.01048799604177475
1761402189101550800,3.50655078125,-0.04913902282714844,0.0048139020800590515,0.014161325991153717
1761402189121713200,3.526713134765625,-0.04831504821777344,0.004836034029722214,0.010856181383132935
1761402189141901800,3.54690185546875,-0.04761028289794922,0.010987464338541031,0.012201622128486633
1761402189162037500,3.56703759765625,-0.05132293701171875,0.002995353192090988,0.012355759739875793
1761402189182199600,3.587199462890625,-0.04750823974609375,0.004282031208276749,0.018183372914791107
1761402189202362000,3.607362060546875,-0.05481719970703125,0.0017106309533119202,0.013917617499828339
1761402189222524400,3.6275244140625,-0.048244476318359375,0.005585700273513794,0.016529016196727753
1761402189242683000,3.647682861328125,-0.047295570373535156,0.007076818495988846,0.014983199536800385
1761402189262868200,3.6678681640625,-0.04836273193359375,0.004987739026546478,0.014320090413093567
1761402189283011000,3.688010986328125,-0.043770790100097656,0.00651077926158905,0.003963984549045563
1761402189303169300,3.708169189453125,-0.051975250244140625,0.0027094222605228424,0.010563753545284271
1761402189323336200,3.728336181640625,-0.052117347717285156,0.01072489470243454,0.011495597660541534
1761402189343498000,3.748498046875,-0.04923248291015625,0.0033927708864212036,0.006360992789268494
1761402189363656200,3.76865625,-0.05083751678466797,0.002755105495452881,0.013524770736694336
1761402189383799800,3.7887998046875,-0.05583953857421875,0.006533049046993256,0.01033833622932434
1761402189403984600,3.808984619140625,-0.056067466735839844,0.002734646201133728,0.011214062571525574
1761402189424147000,3.82914697265625,-0.05907726287841797,0.003036748617887497,0.010965906083583832
1761402189444310000,3.84931005859375,-0.051596641540527344,0.009144403040409088,0.017715230584144592
1761402189464471800,3.869471923828125,-0.042372703552246094,0.004384778439998627,0.013463303446769714
1761402189484634400,3.88963427734375,-0.047324180603027344,0.01063777506351471,0.018246322870254517
1761402189504796200,3.909796142578125,-0.04994678497314453,0.007393363863229752,0.014889709651470184
1761402189524934700,3.9299345703125,-0.051194190979003906,0.006242323666810989,0.01492810994386673
1761402189545121000,3.95012109375,-0.04806232452392578,0.006521493196487427,0.013029627501964569
1761402189565283600,3.97028369140625,-0.05036449432373047,0.005760747939348221,0.007653437554836273
1761402189585446000,3.99044580078125,-0.056084632873535156,0.0025707483291625977,0.014729991555213928
1761402189605607700,4.010607666015625,-0.05228996276855469,0.006204068660736084,0.013208560645580292
1761402189625770500,4.0307705078125,-0.04628753662109375,0.004107657819986343,0.011298246681690216
1761402189645953000,4.050953125,-0.04759407043457031,0.00759158656001091,0.015286378562450409
1761402189666094600,4.071094482421875,-0.04662513732910156,0.005519017577171326,0.010478392243385315
1761402189686256600,4.091256591796875,-0.046642303466796875,0.003218565136194229,0.009600847959518433
1761402189706419200,4.111419189453125,-0.050375938415527344,0.0007229521870613098,0.010744892060756683
1761402189726581500,4.13158154296875,-0.04907035827636719,0.004951659590005875,0.011303253471851349
1761402189746744600,4.15174462890625,-0.049877166748046875,0.000370074063539505,0.01184719055891037
1761402189766905900,4.17190576171875,-0.044196128845214844,0.004123494029045105,0.011821269989013672
1761402189787068200,4.192068115234375,-0.048725128173828125,0.003087542951107025,0.014071621000766754
1761402189807230500,4.21223046875,-0.046776771545410156,0.005212046205997467,0.01279573142528534
1761402189827392800,4.232392822265625,-0.050708770751953125,0.00835312157869339,0.01130262017250061
1761402189847532800,4.25253271484375,-0.04529380798339844,0.0073715560138225555,0.01334671676158905
1761402189867717000,4.272717041015625,-0.046001434326171875,0.01284969225525856,0.016578659415245056
1761402189887879400,4.29287939453125,-0.049256324768066406,0.002926591783761978,0.012288860976696014
1761402189908040000,4.3130400390625,-0.04536628723144531,0.008571472018957138,0.009447231888771057
1761402189928202500,4.333202392578125,-0.04635810852050781,0.003473173826932907,0.010590873658657074
1761402189948367000,4.3533671875,-0.04727458953857422,0.00933116301894188,0.01073060929775238
1761402189968529200,4.373529052734375,-0.05579662322998047,0.010191220790147781,0.014995425939559937
1761402189988691000,4.39369091796875,-0.054129600524902344,0.0009113550186157227,0.015967920422554016
1761402190008853000,4.41385302734375,-0.047992706298828125,0.006118126213550568,0.015536703169345856
1761402190029015800,4.434015869140625,-0.043277740478515625,0.0009192973375320435,0.008296526968479156
1761402190049177900,4.454177734375,-0.04456520080566406,0.005725588649511337,0.014569349586963654
1761402190069307600,4.4743076171875,-0.053505897521972656,0.005007829517126083,0.017720304429531097
1761402190089502500,4.49450244140625,-0.05675697326660156,0.0034627877175807953,0.008838094770908356
1761402190109683500,4.514683349609375,-0.05490875244140625,0.0085279680788517,0.015031024813652039
1761402190129789200,4.5347890625,-0.04637718200683594,0.0009793639183044434,0.009951271116733551
1761402190149989400,4.5549892578125,-0.050994873046875,0.001719832420349121,0.010787516832351685
1761402190170141400,4.575141357421875,-0.0462493896484375,0.003715645521879196,0.013141565024852753
1761402190190314500,4.595314453125,-0.04986000061035156,0.000750318169593811,0.005193829536437988
1761402190210477000,4.61547705078125,-0.04616069793701172,0.005495760589838028,0.011028699576854706
1761402190230638000,4.63563818359375,-0.049457550048828125,0.002125706523656845,0.012819677591323853
1761402190250800600,4.655800537109375,-0.047677040100097656,0.003433380275964737,0.014798931777477264
1761402190270939000,4.67593896484375,-0.051971435546875,0.002093873918056488,0.008761405944824219
1761402190291125200,4.696125244140625,-0.04266357421875,0.010653205215930939,0.012657344341278076
1761402190311266300,4.716266357421875,-0.04663276672363281,0.004558000713586807,0.007809057831764221
1761402190331449900,4.736449951171875,-0.050673484802246094,0.003391321748495102,0.009552806615829468
1761402190351612200,4.756612060546875,-0.05063056945800781,0.0032137297093868256,0.01100294291973114
1761402190371774200,4.776774169921875,-0.05294609069824219,0.0017951764166355133,0.009218938648700714
1761402190391932200,4.79693212890625,-0.048778533935546875,0.003734458237886429,0.009766392409801483
1761402190412099000,4.81709912109375,-0.042026519775390625,0.004911694675683975,0.00870821624994278
1761402190432261000,4.83726123046875,-0.05221843719482422,0.002589970827102661,0.003843836486339569
1761402190452397000,4.85739697265625,-0.050530433654785156,0.00657244399189949,0.010334476828575134
1761402190472585700,4.877585693359375,-0.05327320098876953,0.003006812185049057,0.007600896060466766
1761402190492747800,4.897747802734375,-0.05414772033691406,0.0031022876501083374,0.0030610188841819763
1761402190512910800,4.917910888671875,-0.051848411560058594,0.004730552434921265,0.0015211626887321472
1761402190533072600,4.93807275390625,-0.05073356628417969,0.00293944776058197,0.012539781630039215
1761402190553235000,4.95823486328125,-0.04871177673339844,-0.0002525337040424347,0.012845046818256378
1761402190573397800,4.978397705078125,-0.05326652526855469,0.001980256289243698,0.014722958207130432
1761402190593559600,4.9985595703125,-0.040596961975097656,0.0007489323616027832,0.007049389183521271
1761402190613721600,5.0187216796875,-0.04833698272705078,0.007269371300935745,0.0035749897360801697
1761402190633884200,5.03888427734375,-0.05093574523925781,0.006123039871454239,0.005440913140773773
1761402190654046700,5.059046630859375,-0.041304588317871094,0.005750790238380432,0.0069440752267837524
1761402190674209000,5.079208984375,-0.050545692443847656,0.0019464567303657532,0.011463485658168793
1761402190694371600,5.09937158203125,-0.04524040222167969,0.006024815142154694,0.01398378610610962
1761402190714533600,5.11953369140625,-0.04746437072753906,0.0038600489497184753,0.008407987654209137
1761402190734695400,5.1396953125,-0.0464630126953125,0.002572428435087204,0.007736518979072571
1761402190754858200,5.159858154296875,-0.044320106506347656,0.0006808266043663025,0.008953705430030823
1761402190775020000,5.18002001953125,-0.046054840087890625,0.005234729498624802,0.011411622166633606
1761402190795182300,5.200182373046875,-0.04859638214111328,0.0058574378490448,0.01129090040922165
1761402190815344400,5.220344482421875,-0.052341461181640625,0.004363805055618286,0.013164587318897247
1761402190835506700,5.240506591796875,-0.05701637268066406,0.00008164718747138977,0.01046735793352127
1761402190855669000,5.2606689453125,-0.05087089538574219,0.003967907279729843,0.008675903081893921
1761402190875831000,5.2808310546875,-0.050002098083496094,0.0071102529764175415,0.00896618515253067
1761402190895993600,5.30099365234375,-0.040863990783691406,0.004378862679004669,0.009489886462688446
1761402190916156000,5.321156005859375,-0.03660011291503906,0.0032145269215106964,0.01004473865032196
1761402190936318200,5.341318115234375,-0.05242156982421875,0.0015722140669822693,0.011473618447780609
1761402190956480500,5.36148046875,-0.049262046813964844,0.009776648133993149,0.009193047881126404
1761402190976642800,5.381642822265625,-0.05104255676269531,0.004766855388879776,0.014099270105361938
1761402190996804900,5.401804931640625,-0.05180644989013672,0.0016914010047912598,0.012414343655109406
1761402191016967200,5.42196728515625,-0.05311298370361328,0.0019446276128292084,0.0075479596853256226
1761402191037129500,5.44212939453125,-0.051484107971191406,0.008128359913825989,0.008777879178524017
1761402191057291800,5.462291748046875,-0.04484272003173828,0.005914904177188873,0.017325639724731445
1761402191077454000,5.4824541015625,-0.05631828308105469,0.0037150047719478607,0.010251186788082123
1761402191097617000,5.502616943359375,-0.057933807373046875,0.0038934797048568726,0.008929699659347534
1761402191117745000,5.522744873046875,-0.04998588562011719,0.003382578492164612,0.006739519536495209
1761402191137940700,5.542940673828125,-0.047043800354003906,-0.002223622053861618,0.00580257922410965
1761402191158077700,5.56307763671875,-0.04670143127441406,0.004556629806756973,0.01036497950553894
1761402191178265300,5.583265380859375,-0.04909229278564453,0.004059221595525742,0.008829750120639801
1761402191198428000,5.603427978515625,-0.04951000213623047,0.00919673964381218,0.006823964416980743
1761402191218586400,5.62358642578125,-0.04214191436767578,0.0008833929896354675,0.010631166398525238
1761402191238752500,5.64375244140625,-0.04950428009033203,0.0023010745644569397,0.01078198105096817
1761402191258889500,5.663889404296875,-0.053168296813964844,0.0020402371883392334,0.012791499495506287
1761402191279072800,5.68407275390625,-0.04734611511230469,0.00345708429813385,0.008238106966018677
1761402191299240400,5.704240478515625,-0.04433631896972656,0.0055000558495521545,0.01332593709230423
1761402191319401500,5.7244013671875,-0.04301929473876953,-0.0023194141685962677,0.007061906158924103
1761402191339563800,5.744563720703125,-0.04734325408935547,0.004902258515357971,0.010444879531860352
1761402191359684900,5.764684814453125,-0.04725360870361328,0.00014280900359153748,0.010912545025348663
1761402191379880000,5.7848798828125,-0.055678367614746094,0.008463248610496521,0.0087856724858284
1761402191400050400,5.805050537109375,-0.050078392028808594,0.005034424364566803,0.015147954225540161
1761402191420213500,5.825213623046875,-0.04490470886230469,0.0006653964519500732,0.0127381831407547
1761402191440375000,5.845375,-0.04968547821044922,0.0024652667343616486,0.010513119399547577
1761402191460537300,5.865537353515625,-0.053816795349121094,0.013376694172620773,0.008089140057563782
1761402191480696600,5.885696533203125,-0.049378395080566406,0.0009227953851222992,0.00822528451681137
1761402191500850400,5.905850341796875,-0.05359363555908203,0.006105899810791016,0.012939400970935822
1761402191521024000,5.92602392578125,-0.04618072509765625,0.009860258549451828,0.013436242938041687
1761402191541182500,5.946182373046875,-0.048198699951171875,0.007540680468082428,0.009287402033805847
1761402191561348600,5.9663486328125,-0.05181694030761719,0.006341222673654556,0.013589859008789062
1761402191581511400,5.986511474609375,-0.047926902770996094,-0.0011547170579433441,0.00736815482378006
1761402191601670000,6.006669921875,-0.049714088439941406,0.0024846047163009644,0.009677901864051819
1761402191621835500,6.02683544921875,-0.04946422576904297,0.0070523954927921295,0.007344163954257965
1761402191641973200,6.04697314453125,-0.055583953857421875,0.0042470768094062805,0.010252639651298523
1761402191662160000,6.067159912109375,-0.054882049560546875,0.004587728530168533,0.012577615678310394
1761402191682322400,6.087322509765625,-0.04677295684814453,0.0051355548202991486,0.010630369186401367
1761402191702485500,6.107485595703125,-0.04610157012939453,0.00812089815735817,0.013633228838443756
1761402191722647600,6.1276474609375,-0.04648876190185547,0.009803101420402527,0.0137338787317276
1761402191742788000,6.1477880859375,-0.04651069641113281,0.009407274425029755,0.012226708233356476
1761402191762971400,6.167971435546875,-0.047031402587890625,0.00646045058965683,0.010298997163772583
1761402191783133700,6.1881337890625,-0.04949760437011719,0.004974469542503357,0.01207020878791809
1761402191803292700,6.208292724609375,-0.045289039611816406,0.007454831153154373,0.011177964508533478
1761402191823459000,6.228458984375,-0.04827880859375,0.007967337965965271,0.018520064651966095
1761402191843595000,6.248594970703125,-0.054360389709472656,0.0061253830790519714,0.016189754009246826
1761402191863779000,6.268779052734375,-0.05440711975097656,0.00618467852473259,0.010122351348400116
1761402191883920000,6.288919921875,-0.05378246307373047,0.009117189794778824,0.015582755208015442
1761402191904107300,6.309107177734375,-0.04672718048095703,0.007829047739505768,0.01161298155784607
1761402191924266000,6.329265869140625,-0.04953289031982422,0.0021785497665405273,0.011519283056259155
1761402191944432400,6.349432373046875,-0.04387855529785156,0.0042443424463272095,0.008901998400688171
1761402191964597800,6.36959765625,-0.046547889709472656,0.002598430961370468,0.010111674666404724
1761402191984731100,6.389731201171875,-0.0478668212890625,-0.0020100735127925873,0.01676267385482788
1761402192004894000,6.40989404296875,-0.047148704528808594,0.0008171610534191132,0.012344218790531158
1761402192025080800,6.430080810546875,-0.047364234924316406,0.005184471607208252,0.011620745062828064
1761402192045235000,6.45023486328125,-0.049343109130859375,0.006795596331357956,0.011518463492393494
1761402192065406000,6.470406005859375,-0.042906761169433594,0.007085401564836502,0.012429773807525635
1761402192085567700,6.490567626953125,-0.05272483825683594,0.004428345710039139,0.009625822305679321
1761402192105730600,6.51073046875,-0.048071861267089844,0.004015251994132996,0.01278967410326004
1761402192125893600,6.5308935546875,-0.038794517517089844,0.008419156074523926,0.004174225032329559
1761402192146056200,6.55105615234375,-0.04641437530517578,0.00869700312614441,0.010145455598831177
1761402192166217000,6.571217041015625,-0.045044898986816406,0.0028482191264629364,0.008731819689273834
1761402192186379800,6.5913798828125,-0.0421905517578125,0.002195257693529129,0.011699914932250977
1761402192206541600,6.61154150390625,-0.048862457275390625,-0.0027610845863819122,0.011332273483276367
1761402192226704000,6.631703857421875,-0.04849052429199219,-0.001062057912349701,0.011626318097114563
1761402192246867000,6.651866943359375,-0.04785919189453125,0.005360104143619537,0.010037757456302643
1761402192267041800,6.672041748046875,-0.04710674285888672,0.011162739247083664,0.011496365070343018
1761402192287191000,6.69219091796875,-0.05539703369140625,0.0068966783583164215,0.01051313430070877
1761402192307352800,6.712352783203125,-0.04696369171142578,0.005818001925945282,0.00838828831911087
1761402192327515600,6.732515625,-0.046395301818847656,0.00796620175242424,0.008952707052230835
1761402192347678000,6.752677978515625,-0.04655265808105469,0.007837984710931778,0.009023994207382202
1761402192367839700,6.77283984375,-0.05031585693359375,0.0033080317080020905,0.007392846047878265
1761402192388000000,6.793,-0.04384899139404297,0.0019857212901115417,0.013421274721622467
1761402192408162300,6.813162353515625,-0.04954242706298828,0.005232907831668854,0.013471722602844238
1761402192428326400,6.833326416015625,-0.05678558349609375,0.00167803093791008,0.010485179722309113
1761402192448465200,6.853465087890625,-0.05481147766113281,0.003781970590353012,0.005426585674285889
1761402192468651000,6.873651123046875,-0.04915428161621094,0.0011150352656841278,0.006272539496421814
1761402192488813300,6.893813232421875,-0.04454612731933594,0.007592141628265381,0.01345730572938919
1761402192508975900,6.913975830078125,-0.042229652404785156,0.007430899888277054,0.01458723098039627
1761402192529138000,6.934137939453125,-0.049808502197265625,0.009229902178049088,0.008000671863555908
1761402192549300200,6.95430029296875,-0.05589103698730469,0.016568705439567566,0.00987078994512558
1761402192569462500,6.974462646484375,-0.05063152313232422,-0.00045449286699295044,0.015062958002090454
1761402192589607700,6.994607666015625,-0.05338287353515625,0.0034152045845985413,0.009146004915237427
1761402192609787000,7.014786865234375,-0.052849769592285156,0.007650662213563919,0.012832120060920715
1761402192629945600,7.034945556640625,-0.051362037658691406,0.007642000913619995,0.009683817625045776
1761402192650111500,7.055111572265625,-0.0470733642578125,0.0034831203520298004,0.005242802202701569
1761402192670258400,7.075258544921875,-0.04761981964111328,0.006713114678859711,0.010373696684837341
1761402192690432500,7.0954326171875,-0.049831390380859375,0.0024363435804843903,0.006386294960975647
1761402192710598400,7.115598388671875,-0.05397224426269531,0.004168633371591568,0.007344506680965424
1761402192730760700,7.1357607421875,-0.050689697265625,0.0036179758608341217,0.008804582059383392
1761402192750922800,7.1559228515625,-0.052969932556152344,0.0028990954160690308,0.01585724949836731
1761402192771085000,7.1760849609375,-0.04818916320800781,0.005373086780309677,0.00887329876422882
1761402192791247400,7.196247314453125,-0.04663848876953125,0.004088331013917923,0.012859374284744263
1761402192811409700,7.21640966796875,-0.046977996826171875,0.007061533629894257,0.006878934800624847
1761402192831572000,7.236572021484375,-0.046097755432128906,0.006841938942670822,0.00625978410243988
1761402192851734500,7.256734619140625,-0.05106163024902344,0.0032545216381549835,0.010939963161945343
1761402192871896000,7.27689599609375,-0.04836559295654297,0.0057985298335552216,0.010692991316318512
1761402192892080400,7.297080322265625,-0.04730224609375,0.0020930729806423187,0.01357133686542511
1761402192912221200,7.31722119140625,-0.052947044372558594,0.008869469165802002,0.01160401850938797
1761402192932358100,7.337358154296875,-0.053966522216796875,0.004332654178142548,0.011188395321369171
1761402192952542200,7.357542236328125,-0.051483154296875,-0.00023328885436058044,0.012032419443130493
1761402192972707800,7.377707763671875,-0.050896644592285156,-0.00004158914089202881,0.009384453296661377
1761402192992870100,7.3978701171875,-0.05190849304199219,0.004033725708723068,0.006375230848789215
1761402193013028600,7.418028564453125,-0.04970550537109375,-0.0012256130576133728,0.00811862200498581
1761402193033194500,7.438194580078125,-0.04640674591064453,0.002377539873123169,0.00867907702922821
1761402193053357000,7.458357177734375,-0.04769420623779297,0.004290636628866196,0.011072441935539246
1761402193073519000,7.47851904296875,-0.051276206970214844,0.0072078220546245575,0.00494123250246048
1761402193093681400,7.498681396484375,-0.04039192199707031,0.009949877858161926,0.011972129344940186
1761402193113836000,7.5188359375,-0.05189228057861328,0.009109720587730408,0.011699981987476349
1761402193134006000,7.539006103515625,-0.05297660827636719,0.0063404180109500885,0.008971251547336578
1761402193154168300,7.559168212890625,-0.05618095397949219,0.00029032304883003235,0.010192885994911194
1761402193174330600,7.57933056640625,-0.05510520935058594,0.002185363322496414,0.01589905470609665
1761402193194492700,7.59949267578125,-0.05277824401855469,0.006023474037647247,0.00809294730424881
1761402193214655200,7.6196552734375,-0.05249309539794922,0.005025781691074371,0.005785815417766571
1761402193234818000,7.639818115234375,-0.053862571716308594,0.002737179398536682,0.008308105170726776
1761402193254954200,7.659954345703125,-0.04598712921142578,0.008462172001600266,0.009894020855426788
1761402193275143400,7.680143310546875,-0.0439910888671875,0.006287410855293274,0.009465157985687256
1761402193295304200,7.70030419921875,-0.048427581787109375,0.007376633584499359,0.012111499905586243
1761402193315466200,7.72046630859375,-0.04687786102294922,0.007288005203008652,0.010139167308807373
1761402193335629300,7.74062939453125,-0.0429840087890625,0.004257921129465103,0.012367524206638336
1761402193355791600,7.76079150390625,-0.03846549987792969,0.00869658961892128,0.010270275175571442
1761402193375934000,7.780933837890625,-0.044574737548828125,0.009278986603021622,0.007241211831569672
1761402193396115500,7.801115478515625,-0.0422515869140625,0.0025513507425785065,0.0092385932803154
1761402193416277800,7.82127783203125,-0.046237945556640625,0.0016138218343257904,0.009906858205795288
1761402193436440300,7.8414404296875,-0.04948234558105469,0.003754138946533203,0.008286669850349426
1761402193456603000,7.861602783203125,-0.04166698455810547,0.0016321316361427307,0.009424477815628052
1761402193476765200,7.88176513671875,-0.04450416564941406,0.0065734051167964935,0.007831990718841553
1761402193496926700,7.9019267578125,-0.04405021667480469,0.0034321509301662445,0.005902975797653198
1761402193517089500,7.922089599609375,-0.04721546173095703,0.0038535408675670624,0.008795171976089478
1761402193537251300,7.942251220703125,-0.05041217803955078,0.0060875751078128815,0.007552638649940491
1761402193557413400,7.962413330078125,-0.051505088806152344,0.00763365626335144,0.006968274712562561
1761402193577576200,7.982576171875,-0.044350624084472656,0.005997408181428909,0.012973859906196594
1761402193597738200,8.00273828125,-0.04673957824707031,0.0007766559720039368,0.0071931034326553345
1761402193617900500,8.022900634765625,-0.04504680633544922,0.005889475345611572,0.011596962809562683
1761402193638037200,8.043037353515626,-0.04294395446777344,-0.0005017183721065521,0.007392212748527527
1761402193658223600,8.0632236328125,-0.04411888122558594,0.0039887987077236176,0.008395947515964508
1761402193678387500,8.083387451171875,-0.04693031311035156,0.0028869621455669403,0.010162249207496643
1761402193698549500,8.103549560546876,-0.04624652862548828,0.0003061257302761078,0.013924874365329742
1761402193718708200,8.123708251953126,-0.04713726043701172,0.0014551803469657898,0.008091486990451813
1761402193738874000,8.1438740234375,-0.05173492431640625,0.011589430272579193,0.004264310002326965
1761402193759011000,8.164010986328124,-0.048336029052734375,0.0018813833594322205,0.005286581814289093
1761402193779195000,8.18419482421875,-0.05037403106689453,0.0050177425146102905,0.005613610148429871
1761402193799361000,8.204361083984375,-0.04171562194824219,0.007771600037813187,0.00543627142906189
1761402193819493000,8.2244931640625,-0.05001640319824219,-0.0009791776537895203,0.008216172456741333
1761402193839681300,8.244681396484374,-0.049770355224609375,0.0039017535746097565,0.007946252822875977
1761402193859848000,8.264847900390626,-0.048003196716308594,0.006352502852678299,0.004726812243461609
1761402193880010000,8.285010009765625,-0.049419403076171875,0.0009602271020412445,0.011696413159370422
1761402193900171800,8.305171875,-0.05466461181640625,0.008866850286722183,0.01046627014875412
1761402193920334600,8.32533447265625,-0.055396080017089844,0.007953662425279617,0.00533033162355423
1761402193940497000,8.345496826171875,-0.04942035675048828,0.001247890293598175,0.0025196075439453125
1761402193960659000,8.365658935546875,-0.04193592071533203,0.0034041628241539,0.0036039426922798157
1761402193980821500,8.385821533203124,-0.04326915740966797,0.00045020878314971924,0.006836786866188049
1761402194000944400,8.4059443359375,-0.04671669006347656,0.0021315552294254303,0.006873875856399536
1761402194021145900,8.426145751953126,-0.04548072814941406,0.005685262382030487,0.00756082683801651
1761402194041304000,8.446303955078125,-0.045795440673828125,-0.004018675535917282,0.004978775978088379
1761402194061470500,8.466470458984375,-0.044404029846191406,-0.0013211965560913086,0.009605884552001953
1761402194081632500,8.486632568359376,-0.05368995666503906,0.010061044245958328,0.006892263889312744
1761402194101791000,8.506791015625,-0.039798736572265625,-0.0007287599146366119,0.009487181901931763
1761402194121941500,8.52694140625,-0.04759693145751953,-0.0006106086075305939,0.008778408169746399
1761402194142073000,8.547072998046875,-0.04574871063232422,0.006059911102056503,0.002701185643672943
1761402194162277400,8.56727734375,-0.0490264892578125,0.0053764283657073975,0.006534881889820099
1761402194182444000,8.587444091796876,-0.04713916778564453,0.0048276931047439575,0.006582677364349365
1761402194202606300,8.6076064453125,-0.05055046081542969,0.00366877019405365,0.005387410521507263
1761402194222768400,8.627768310546875,-0.04027366638183594,0.0024746209383010864,0.005996577441692352
1761402194242931000,8.647930908203126,-0.046950340270996094,-0.000864081084728241,0.007587552070617676
1761402194263094000,8.668093994140625,-0.04530906677246094,-0.006111714988946915,0.007769040763378143
1761402194283255600,8.688255615234375,-0.047489166259765625,-0.0010030046105384827,0.008153542876243591
1761402194303417600,8.70841748046875,-0.04356575012207031,-0.0019240155816078186,0.006870605051517487
1761402194323579600,8.72857958984375,-0.05095958709716797,-0.00125836580991745,0.007183641195297241
1761402194343742200,8.7487421875,-0.044525146484375,0.0014069192111492157,0.005604952573776245
1761402194363900200,8.768900146484375,-0.04550457000732422,-0.0016503408551216125,0.004289194941520691
1761402194384066600,8.789066650390625,-0.04524040222167969,0.0015955530107021332,0.005796879529953003
1761402194404228900,8.809228759765626,-0.045907020568847656,0.0015479028224945068,0.0005635619163513184
1761402194424391400,8.829391357421875,-0.04525947570800781,-0.003441687673330307,0.009402617812156677
1761402194444553700,8.8495537109375,-0.04681396484375,0.0030196942389011383,0.00012464821338653564
1761402194464715800,8.8697158203125,-0.04744529724121094,0.0037100128829479218,0.0016642287373542786
1761402194484853500,8.889853515625,-0.053633689880371094,0.007735822349786758,0.0110512375831604
1761402194505040000,8.910039794921875,-0.05161476135253906,0.0059229545295238495,0.008421368896961212
1761402194525202400,8.930202392578124,-0.04534721374511719,0.0013064965605735779,0.008164703845977783
1761402194545340200,8.950340087890625,-0.051250457763671875,0.005414392799139023,0.008757777512073517
1761402194565527300,8.97052734375,-0.04674720764160156,0.005197711288928986,0.009413182735443115
1761402194585689300,8.990689453125,-0.04009437561035156,0.004124380648136139,0.009593836963176727
1761402194605851600,9.0108515625,-0.04684162139892578,0.00602596253156662,0.00771506130695343
1761402194626013700,9.031013671875,-0.04841423034667969,0.002483360469341278,0.0006519630551338196
1761402194646176800,9.0511767578125,-0.04540252685546875,0.0020130015909671783,0.0007151290774345398
1761402194666338300,9.07133837890625,-0.050548553466796875,0.0022162720561027527,0.0022271722555160522
1761402194686480100,9.091480224609375,-0.04859733581542969,0.0036573149263858795,0.005497507750988007
1761402194706637800,9.111637939453125,-0.05324268341064453,-0.0011103823781013489,0.009782068431377411
1761402194726825200,9.1318251953125,-0.053788185119628906,-0.00010411813855171204,0.00812375545501709
1761402194746988300,9.15198828125,-0.04726886749267578,0.003931906074285507,0.012437798082828522
1761402194767149800,9.17214990234375,-0.05047416687011719,0.0034864917397499084,0.009554997086524963
1761402194787311600,9.1923115234375,-0.04293632507324219,-0.0006326623260974884,0.006809897720813751
1761402194807474700,9.212474609375,-0.04767417907714844,-0.0011909566819667816,0.007554054260253906
1761402194827636500,9.232636474609375,-0.04591941833496094,-0.00036872923374176025,0.007882155478000641
1761402194847770600,9.2527705078125,-0.053191184997558594,0.0009259842336177826,0.010446950793266296
1761402194867961300,9.27296142578125,-0.05084991455078125,-0.002768605947494507,0.009445533156394958
1761402194888119300,9.293119384765625,-0.05668449401855469,0.003089122474193573,0.013117916882038116
1761402194908285400,9.313285400390624,-0.051690101623535156,-0.0003201626241207123,0.003373175859451294
1761402194928438800,9.333438720703125,-0.04470634460449219,0.006942480802536011,0.006481572985649109
1761402194948610800,9.35361083984375,-0.04690742492675781,0.008047934621572495,0.0042344555258750916
1761402194968772000,9.373772216796874,-0.04553794860839844,0.0025711804628372192,0.004399731755256653
1761402194988935000,9.393934814453125,-0.04788017272949219,0.0013421662151813507,0.007528625428676605
1761402195009096700,9.4140966796875,-0.04583930969238281,0.004402413964271545,0.00857069343328476
1761402195029259000,9.434259033203125,-0.050281524658203125,0.0023734793066978455,0.007120974361896515
1761402195049421600,9.454421630859375,-0.04487419128417969,0.00017371401190757751,0.005911640822887421
1761402195069583600,9.47458349609375,-0.0437164306640625,0.004723504185676575,0.008298180997371674
1761402195089721000,9.49472119140625,-0.047659873962402344,0.0035442225635051727,0.014531195163726807
1761402195109897500,9.5148974609375,-0.04593944549560547,0.004296049475669861,0.004344470798969269
1761402195130070300,9.5350703125,-0.040035247802734375,0.004096552729606628,0.004799507558345795
1761402195150232600,9.555232666015625,-0.04063129425048828,0.0005600862205028534,0.007733359932899475
1761402195170395100,9.57539501953125,-0.04437255859375,0.0022829845547676086,0.007799975574016571
1761402195190553900,9.595553955078126,-0.05220985412597656,0.004839196801185608,0.004025891423225403
1761402195210720000,9.615719970703125,-0.04879570007324219,0.004917629063129425,0.008455194532871246
1761402195230856700,9.635856689453124,-0.04346752166748047,0.003798689693212509,0.00334293395280838
1761402195251041000,9.656041015625,-0.04435443878173828,0.005933728069067001,0.005746461451053619
1761402195271206000,9.676205810546875,-0.04387378692626953,0.00018582865595817566,0.008443869650363922
1761402195291368400,9.696368408203124,-0.04766845703125,0.00010716170072555542,0.004951499402523041
1761402195311531000,9.716531005859375,-0.04496192932128906,0.0021370090544223785,0.006403036415576935
1761402195331691000,9.73669091796875,-0.04354667663574219,-0.001300215721130371,0.004960872232913971
1761402195351822000,9.756822021484375,-0.04460334777832031,0.002121511846780777,-0.00013905763626098633
1761402195372017400,9.777017333984375,-0.04985332489013672,0.00257660448551178,0.005534611642360687
1761402195392157700,9.79715771484375,-0.05335521697998047,0.00483047217130661,0.005153961479663849
1761402195412342000,9.817342041015625,-0.051609039306640625,0.007224585860967636,0.005995705723762512
1761402195432504000,9.837504150390625,-0.04842853546142578,-0.0012319311499595642,0.006567724049091339
1761402195452666400,9.857666259765624,-0.047331809997558594,0.005065541714429855,0.006930232048034668
1761402195472828700,9.87782861328125,-0.049742698669433594,0.00558064877986908,0.010214418172836304
1761402195492966000,9.8979658203125,-0.04453468322753906,-0.0027159303426742554,0.005144201219081879
1761402195513135000,9.918135009765624,-0.04267692565917969,0.0008499063551425934,0.00836402177810669
1761402195533316000,9.938316162109375,-0.04918098449707031,0.0015005357563495636,0.005395635962486267
1761402195553452500,9.95845263671875,-0.050827980041503906,-0.003163345158100128,0.001597180962562561
1761402195573636000,9.978635986328126,-0.04929161071777344,-0.0009794719517230988,0.0007248222827911377
1761402195593777200,9.998777099609375,-0.05286693572998047,0.0041071027517318726,0.0012666508555412292
1761402195613939500,10.018939453125,-0.04931926727294922,-0.0025160498917102814,0.000506080687046051
1761402195634126600,10.039126708984375,-0.045745849609375,0.0014396868646144867,0.007430240511894226
1761402195654289000,10.059288818359375,-0.044887542724609375,0.0056895241141319275,0.005118273198604584
1761402195674451200,10.079451171875,-0.051703453063964844,0.003018505871295929,0.0029339343309402466
1761402195694614000,10.099614013671875,-0.048903465270996094,0.0066916681826114655,0.006810925900936127
1761402195714775800,10.11977587890625,-0.05018806457519531,-0.002208877354860306,0.007309705018997192
1761402195734938000,10.139938232421875,-0.055138587951660156,-0.001699145883321762,0.0032471641898155212
1761402195755100400,10.160100341796875,-0.04989814758300781,-0.0007080920040607452,-0.0015148669481277466
1761402195775262500,10.180262451171876,-0.04020404815673828,0.0000317208468914032,0.0028603747487068176
1761402195795424800,10.2004248046875,-0.04663372039794922,-0.0033160150051116943,0.0031939521431922913
1761402195815587000,10.220587158203125,-0.045654296875,-0.00024208426475524902,0.0037199854850769043
1761402195835750100,10.240750244140624,-0.05261802673339844,-0.0008306428790092468,0.00024346262216567993
1761402195855911700,10.26091162109375,-0.05077552795410156,0.002917703241109848,0.0035573840141296387
1761402195876048400,10.28104833984375,-0.04791069030761719,-0.0034877173602581024,0.007993534207344055
1761402195896236500,10.301236572265625,-0.0478973388671875,-0.00038573145866394043,0.003578692674636841
1761402195916398600,10.321398681640625,-0.03976154327392578,0.007171720266342163,0.007778823375701904
1761402195936560600,10.341560546875,-0.04812049865722656,0.00623856857419014,0.004009157419204712
1761402195956723000,10.361722900390625,-0.043346405029296875,0.005987517535686493,0.0030099302530288696
1761402195976885000,10.381885009765625,-0.04681110382080078,0.0024056732654571533,0.0008957013487815857
1761402195997024300,10.402024169921875,-0.04687786102294922,0.0016635321080684662,0.004383020102977753
1761402196017209600,10.422209716796875,-0.04444694519042969,-0.006409779191017151,0.008049331605434418
1761402196037371600,10.44237158203125,-0.04656982421875,0.000988241285085678,0.002587348222732544
1761402196057534200,10.4625341796875,-0.04888343811035156,0.00021129846572875977,0.0010537654161453247
1761402196077697000,10.482697021484375,-0.048259735107421875,0.000714130699634552,0.00038541853427886963
1761402196097858600,10.502858642578126,-0.051461219787597656,0.002154730260372162,0.009437493979930878
1761402196117996500,10.52299658203125,-0.05333995819091797,-0.0015970580279827118,0.005425535142421722
1761402196138181400,10.543181396484375,-0.04899406433105469,0.0016445331275463104,0.005302451550960541
1761402196158345200,10.56334521484375,-0.051138877868652344,0.0032526589930057526,0.003940574824810028
1761402196178507800,10.5835078125,-0.04741096496582031,0.002003878355026245,0.0029324963688850403
1761402196198669800,10.603669921875,-0.055171966552734375,0.0021845437586307526,0.00109756737947464
1761402196218832100,10.62383203125,-0.048297882080078125,0.006656937301158905,0.0052749961614608765
1761402196238994400,10.643994384765625,-0.053397178649902344,0.004670765250921249,0.0022558793425559998
1761402196259156500,10.664156494140625,-0.05152130126953125,0.0027235783636569977,0.005359642207622528
1761402196279315200,10.684315185546875,-0.04188346862792969,0.0015768446028232574,0.006168551743030548
1761402196299443000,10.70444287109375,-0.05507946014404297,0.0028940588235855103,0.0028823837637901306
1761402196319644000,10.724643798828126,-0.04868316650390625,-0.003192577511072159,0.002476342022418976
1761402196339802000,10.744802001953126,-0.042418479919433594,0.005346812307834625,0.0077838897705078125
1761402196359967700,10.7649677734375,-0.048023223876953125,-0.005635574460029602,0.007511615753173828
1761402196380130300,10.78513037109375,-0.047623634338378906,-0.001291230320930481,0.0024134591221809387
1761402196400288500,10.80528857421875,-0.043562889099121094,-0.000054970383644104004,0.009337075054645538
1761402196420455200,10.825455078125,-0.049698829650878906,0.0005976967513561249,0.006009295582771301
1761402196440617500,10.845617431640624,-0.048674583435058594,0.0022070370614528656,0.00389707088470459
1761402196460779300,10.865779296875,-0.04389190673828125,0.0010652430355548859,0.004708200693130493
1761402196480920000,10.885920166015625,-0.04838371276855469,-0.00038673728704452515,0.010439999401569366
1761402196501103900,10.906103759765625,-0.04774188995361328,0.006296150386333466,0.005126923322677612
1761402196521266400,10.926266357421875,-0.046581268310546875,-0.0045777298510074615,0.0035395249724388123
1761402196541429200,10.94642919921875,-0.05105876922607422,0.005934622138738632,0.004484005272388458
1761402196561591000,10.966591064453125,-0.04403972625732422,0.005287770181894302,0.002159208059310913
1761402196581727500,10.9867275390625,-0.048053741455078125,0.004781503230333328,0.0003173127770423889
1761402196601911000,11.0069111328125,-0.040375709533691406,0.005328070372343063,0.0076033249497413635
1761402196622057500,11.027057373046874,-0.047553062438964844,0.00021012872457504272,0.0029061511158943176
1761402196642239500,11.047239501953126,-0.051952362060546875,0.000674419105052948,0.006637394428253174
1761402196662398200,11.067398193359375,-0.049424171447753906,0.002628374844789505,0.0033760666847229004
1761402196682528500,11.087528564453125,-0.05183696746826172,0.004199903458356857,0.003919333219528198
1761402196702706000,11.107705810546875,-0.047532081604003906,0.004116173833608627,0.005550682544708252
1761402196722884600,11.127884521484376,-0.043750762939453125,0.006033707410097122,0.007597818970680237
1761402196743051000,11.148051025390625,-0.05035400390625,0.003537580370903015,0.009911946952342987
1761402196763213300,11.16821337890625,-0.05219459533691406,0.0019621439278125763,0.003525562584400177
1761402196783375000,11.188375,-0.04447650909423828,-0.0006921291351318359,0.004744403064250946
1761402196803537700,11.20853759765625,-0.0492401123046875,-0.001771826297044754,0.0028033480048179626
1761402196823700500,11.228700439453124,-0.04451465606689453,0.0018305815756320953,0.004655919969081879
1761402196843836400,11.24883642578125,-0.04577159881591797,0.0010719485580921173,0.0017671138048171997
1761402196864024300,11.2690244140625,-0.04835700988769531,0.0036157816648483276,0.00037238001823425293
1761402196884186400,11.289186279296874,-0.04800891876220703,-0.00039602071046829224,0.0040132030844688416
1761402196904348700,11.3093486328125,-0.04425811767578125,-0.00015500560402870178,0.00634533166885376
1761402196924507100,11.329507080078125,-0.048442840576171875,0.0003979019820690155,0.004576720297336578
1761402196944674000,11.349674072265625,-0.04425525665283203,-0.0006063282489776611,0.0022056102752685547
1761402196964835600,11.369835693359375,-0.04170417785644531,0.0021569915115833282,0.005023390054702759
1761402196984998100,11.389998046875,-0.04367637634277344,0.0063941143453121185,0.0028275474905967712
1761402197005158700,11.41015869140625,-0.04459953308105469,0.007371511310338974,0.0033043846487998962
1761402197025322200,11.430322265625,-0.046558380126953125,-0.0014946907758712769,0.006578758358955383
1761402197045461000,11.4504609375,-0.04388618469238281,-0.003528464585542679,-0.0027456507086753845
1761402197065646800,11.470646728515625,-0.04184436798095703,-0.006513617932796478,0.0014684498310089111
1761402197085809200,11.49080908203125,-0.04204559326171875,0.00030779093503952026,-0.00004328042268753052
1761402197105972000,11.510971923828125,-0.045551300048828125,0.004662681370973587,0.003097444772720337
1761402197126134000,11.531134033203125,-0.050505638122558594,0.005799252539873123,0.0028796568512916565
1761402197146296000,11.551296142578124,-0.049796104431152344,0.00122838094830513,0.003062300384044647
1761402197166457900,11.571457763671875,-0.05030632019042969,0.0013866275548934937,0.003315359354019165
1761402197186620200,11.5916201171875,-0.05878162384033203,0.00023228302597999573,0.0031819120049476624
1761402197206782500,11.611782470703124,-0.05247020721435547,0.0012702830135822296,0.00516393780708313
1761402197226919700,11.631919677734375,-0.04369354248046875,-0.006535761058330536,0.004323393106460571
1761402197247107800,11.65210791015625,-0.04989147186279297,0.0023808181285858154,0.0014149472117424011
1761402197267270100,11.672270263671875,-0.048714637756347656,0.002818763256072998,0.002815328538417816
1761402197287431700,11.692431640625,-0.051384925842285156,0.0009196698665618896,0.0003703311085700989
1761402197307594500,11.712594482421874,-0.05071830749511719,0.0005288682878017426,0.005359061062335968
1761402197327756800,11.7327568359375,-0.04928779602050781,-0.0007091015577316284,0.004848867654800415
1761402197347919000,11.752919189453126,-0.05041694641113281,0.0025897063314914703,0.0016612112522125244
1761402197368038100,11.7730380859375,-0.04567241668701172,0.0017285831272602081,0.0039078593254089355
1761402197388247000,11.7932470703125,-0.053917884826660156,-0.0011384300887584686,0.005356259644031525
1761402197408405500,11.813405517578126,-0.05009651184082031,0.0023228637874126434,0.004328981041908264
1761402197428563500,11.8335634765625,-0.05115032196044922,-0.001593228429555893,0.002376958727836609
1761402197448719600,11.8537197265625,-0.048966407775878906,-0.0013160966336727142,-0.0008864626288414001
1761402197468892700,11.873892578125,-0.045551300048828125,0.0018886849284172058,-0.001635618507862091
1761402197489050600,11.894050537109376,-0.04282855987548828,0.002421356737613678,0.004098169505596161
1761402197509216300,11.91421630859375,-0.050978660583496094,0.0036843381822109222,0.004177868366241455
1761402197529354500,11.9343544921875,-0.04709339141845703,-0.0032644905149936676,0.007725119590759277
1761402197549517800,11.954517822265625,-0.04870414733886719,-0.0017257817089557648,0.004821561276912689
1761402197569703000,11.974702880859375,-0.04990196228027344,0.00038575753569602966,0.005063652992248535
1761402197589865500,11.994865478515624,-0.04143238067626953,0.004300940781831741,0.007163234055042267
1761402197610027500,12.015027587890625,-0.046459197998046875,0.001504223793745041,0.0018406286835670471
1761402197630190000,12.035190185546876,-0.051545143127441406,0.0006154254078865051,0.0061177536845207214
1761402197650352400,12.055352294921875,-0.04933738708496094,0.0015351735055446625,0.0043888092041015625
1761402197670514700,12.0755146484375,-0.048279762268066406,-0.0000468231737613678,0.0025610923767089844
1761402197690632200,12.095632080078126,-0.053839683532714844,-0.0012573227286338806,0.0020873025059700012
1761402197710838800,12.1158388671875,-0.043028831481933594,-0.003682471811771393,0.005365349352359772
1761402197731001000,12.1360009765625,-0.0487213134765625,0.002762250602245331,0.003701716661453247
1761402197751159600,12.15615966796875,-0.05013751983642578,-0.0013184510171413422,0.008514650166034698
1761402197771326000,12.176325927734375,-0.04599189758300781,-0.001738864928483963,0.002527572214603424
1761402197791488500,12.196488525390626,-0.048099517822265625,0.0020962171256542206,0.007580950856208801
1761402197811646200,12.216646240234375,-0.05125904083251953,-0.00019068643450737,0.0016345903277397156
1761402197831812900,12.236812744140625,-0.04132366180419922,0.00004240497946739197,0.009196780622005463
1761402197851975200,12.25697509765625,-0.04840850830078125,-0.000418737530708313,0.001996167004108429
1761402197872137500,12.277137451171875,-0.047812461853027344,0.0021225959062576294,0.002369612455368042
1761402197892299000,12.297299072265625,-0.048249244689941406,0.003407854586839676,0.00881350040435791
1761402197912439800,12.317439697265625,-0.047890663146972656,0.003610663115978241,0.0033205002546310425
1761402197932623600,12.33762353515625,-0.04700183868408203,0.006729543209075928,0.00870583951473236
1761402197952785700,12.35778564453125,-0.05106544494628906,0.0038738884031772614,0.0039184242486953735
1761402197972948000,12.377947998046874,-0.050345420837402344,-0.0006603747606277466,0.003152616322040558
1761402197993110300,12.3981103515625,-0.05080223083496094,-0.005219884216785431,0.004520311951637268
1761402198013272600,12.4182724609375,-0.04751300811767578,0.0009322501718997955,0.0005869194865226746
1761402198033435000,12.438434814453124,-0.04003334045410156,0.0005121268332004547,0.001416124403476715
1761402198053597200,12.45859716796875,-0.04004859924316406,0.004423964768648148,0.0031371936202049255
1761402198073755100,12.478755126953125,-0.049767494201660156,0.006818514317274094,0.009298816323280334
1761402198093921500,12.498921630859375,-0.045449256896972656,-0.0037374086678028107,0.008174166083335876
1761402198114083600,12.51908349609375,-0.04658794403076172,0.006632275879383087,0.0037646591663360596
1761402198134242300,12.5392421875,-0.050612449645996094,0.0019867904484272003,0.005795203149318695
1761402198154408400,12.559408447265625,-0.04896259307861328,-0.0006237216293811798,0.002886079251766205
1761402198174570500,12.579570556640626,-0.03932762145996094,0.0013920217752456665,0.006987966597080231
1761402198194732800,12.59973291015625,-0.05377769470214844,-0.0009497366845607758,0.006483621895313263
1761402198214894800,12.619894775390625,-0.048702239990234375,-0.0009057484567165375,0.0048950910568237305
1761402198235057400,12.640057373046876,-0.047607421875,0.0022076666355133057,0.004976600408554077
1761402198255196000,12.66019580078125,-0.04538440704345703,0.003003198653459549,0.0014465004205703735
1761402198275382000,12.680382080078125,-0.04958820343017578,0.0019167065620422363,0.001744784414768219
1761402198295544000,12.7005439453125,-0.05331611633300781,0.0062681399285793304,-0.0009060204029083252
1761402198315706400,12.720706298828125,-0.050457000732421875,0.0003079250454902649,0.0052114129066467285
1761402198335868400,12.740868408203125,-0.0521392822265625,0.005231980234384537,0.0037755966186523438
1761402198356030700,12.76103076171875,-0.047725677490234375,0.001719638705253601,0.00513148307800293
1761402198376193300,12.781193359375,-0.04757404327392578,0.006754562258720398,0.003751911222934723
1761402198396355300,12.801355224609376,-0.043456077575683594,0.0016596056520938873,0.0038702785968780518
1761402198416517600,12.821517578125,-0.04072093963623047,0.0031198784708976746,0.0040288642048835754
1761402198436679700,12.8416796875,-0.04691028594970703,0.0034679099917411804,0.00741240382194519
1761402198456842500,12.861842529296876,-0.05345630645751953,0.0021502599120140076,0.0020509734749794006
1761402198477004500,12.882004638671875,-0.0555419921875,0.0007301010191440582,0.001474723219871521
1761402198497166600,12.90216650390625,-0.047568321228027344,0.00018696486949920654,0.005561985075473785
1761402198517328600,12.92232861328125,-0.05302906036376953,0.0006679520010948181,0.002109616994857788
1761402198537465600,12.942465576171875,-0.049556732177734375,-0.0034164637327194214,0.007086142897605896
1761402198557653200,12.9626533203125,-0.051512718200683594,-0.0012527741491794586,0.005558714270591736
1761402198577815300,12.982815185546874,-0.037285804748535156,-0.00037738680839538574,0.004571937024593353
1761402198597980000,13.00297998046875,-0.046009063720703125,0.0037846937775611877,0.002604171633720398
1761402198618136000,13.023135986328125,-0.04746532440185547,-0.00039426982402801514,0.0003771483898162842
1761402198638298000,13.043298095703125,-0.043392181396484375,0.00043220818042755127,-0.002350829541683197
1761402198658464500,13.063464599609375,-0.05495738983154297,0.005183130502700806,0.005031697452068329
1761402198678601700,13.083601806640624,-0.047226905822753906,0.0018449462950229645,0.003247089684009552
1761402198698763800,13.103763671875,-0.04705047607421875,0.007900431752204895,0.006671644747257233
1761402198718951000,13.123950927734375,-0.05038642883300781,0.004214689135551453,0.009041264653205872
1761402198739113200,13.14411328125,-0.040607452392578125,-0.00038285553455352783,0.004378557205200195
1761402198759275800,13.16427587890625,-0.04837226867675781,0.00398746132850647,0.004300236701965332
1761402198779437800,13.184437744140626,-0.04381752014160156,0.004639182239770889,0.008177511394023895
1761402198799580700,13.20458056640625,-0.05060005187988281,0.003426220268011093,0.007056824862957001
1761402198819762200,13.22476220703125,-0.04558753967285156,-0.0017090663313865662,0.006405584514141083
1761402198839921000,13.2449208984375,-0.04653453826904297,-0.0001567155122756958,0.005365088582038879
1761402198860087000,13.265087158203125,-0.04638195037841797,0.002477038651704788,0.006842225790023804
1761402198880249300,13.285249267578125,-0.04210662841796875,-0.004964862018823624,0.006304562091827393
1761402198900407600,13.305407470703125,-0.044142723083496094,-0.0014517568051815033,0.003909222781658173
1761402198920548600,13.325548583984375,-0.049526214599609375,0.0019932053983211517,0.0013061091303825378
1761402198940735700,13.34573583984375,-0.0486297607421875,0.0004056282341480255,0.0049752965569496155
1761402198960894200,13.365894287109375,-0.059708595275878906,0.0028380341827869415,-0.0004905089735984802
1761402198981060000,13.38606005859375,-0.05333995819091797,0.0057400912046432495,0.0022418051958084106
1761402199001222700,13.40622265625,-0.053432464599609375,0.0031096860766410828,0.0026664957404136658
1761402199021384700,13.426384765625,-0.045548439025878906,0.003474600613117218,0.006954677402973175
1761402199041547300,13.44654736328125,-0.04769134521484375,0.0034696273505687714,0.004406951367855072
1761402199061684200,13.466684326171874,-0.04561901092529297,0.004227086901664734,0.004963353276252747
1761402199081871400,13.486871337890625,-0.054080963134765625,0.00836450606584549,0.0004618912935256958
1761402199102033700,13.50703369140625,-0.046905517578125,0.003658849745988846,0.0008189380168914795
1761402199122196000,13.527196044921874,-0.04852104187011719,-0.00040255486965179443,0.007402829825878143
1761402199142333700,13.547333740234375,-0.04686450958251953,-0.0017708837985992432,0.0065285563468933105
1761402199162516700,13.567516845703125,-0.049696922302246094,0.002815965563058853,0.005833283066749573
1761402199182659800,13.587659912109375,-0.049030303955078125,0.0030643120408058167,-0.00010868161916732788
1761402199202821000,13.607821044921875,-0.04546928405761719,-0.00071706622838974,0.0035743489861488342
1761402199223003100,13.628003173828125,-0.043219566345214844,-0.0011724866926670074,0.006559304893016815
1761402199243169500,13.64816943359375,-0.045014381408691406,-0.0010862573981285095,-0.001005314290523529
1761402199263331600,13.66833154296875,-0.052367210388183594,0.001879718154668808,-0.0009929165244102478
1761402199283489800,13.68848974609375,-0.04819011688232422,-0.0021822378039360046,0.005013667047023773
1761402199303656000,13.708656005859375,-0.05226421356201172,-0.0003038160502910614,0.005270116031169891
1761402199323818200,13.728818359375,-0.0447998046875,0.004405606538057327,0.006569355726242065
1761402199343955200,13.748955078125,-0.055622100830078125,-0.001209016889333725,0.003093607723712921
1761402199364143000,13.76914306640625,-0.04601001739501953,0.0041836947202682495,0.004566848278045654
1761402199384305200,13.78930517578125,-0.04801368713378906,0.005557402968406677,0.0020401477813720703
1761402199404467500,13.809467529296874,-0.05385303497314453,0.0052073076367378235,-0.004342295229434967
1761402199424629500,13.82962939453125,-0.045706748962402344,0.0027032122015953064,-0.0002118423581123352
1761402199444792000,13.8497919921875,-0.05481529235839844,0.0011987648904323578,0.0019909143447875977
1761402199464954000,13.8699541015625,-0.050652503967285156,0.004149463027715683,-0.003314793109893799
1761402199485116400,13.890116455078125,-0.04775810241699219,0.005678016692399979,0.005969054996967316
1761402199505278500,13.910278564453124,-0.0499114990234375,-0.0011850744485855103,0.0048606619238853455
1761402199525415400,13.93041552734375,-0.04555988311767578,0.0054205358028411865,0.006661251187324524
1761402199545579800,13.950579833984374,-0.05502891540527344,0.0022294633090496063,-0.0002921298146247864
1761402199565765600,13.970765625,-0.0500640869140625,0.007035002112388611,0.006932318210601807
1761402199585927200,13.99092724609375,-0.04769611358642578,0.00276782363653183,0.006928101181983948
1761402199606089500,14.01108935546875,-0.05098247528076172,0.005792934447526932,0.008164867758750916
1761402199626252000,14.031251953125,-0.05100536346435547,0.0026007406413555145,0.0053127482533454895
1761402199646414300,14.051414306640625,-0.04827594757080078,-0.002437770366668701,0.01022288203239441
1761402199666540500,14.07154052734375,-0.04425525665283203,0.006676413118839264,0.0011847540736198425
1761402199686738700,14.09173876953125,-0.0489044189453125,0.004442255944013596,0.0055714622139930725
1761402199706900700,14.111900634765625,-0.04672718048095703,0.003563500940799713,0.006010107696056366
1761402199727063300,14.132063232421874,-0.043562889099121094,0.005116675049066544,0.004670672118663788
1761402199747225300,14.152225341796875,-0.048789024353027344,0.002967502921819687,-0.00003197789192199707
1761402199767387600,14.1723876953125,-0.04656505584716797,0.006739996373653412,0.0023244842886924744
1761402199787550000,14.192550048828124,-0.04468536376953125,0.002537820488214493,0.004156962037086487
1761402199807689200,14.212689208984376,-0.050927162170410156,0.0012201927602291107,0.0061249807476997375
1761402199827874300,14.232874267578126,-0.05055809020996094,0.005937226116657257,0.005257509648799896
1761402199848034600,14.25303466796875,-0.05111503601074219,0.0045185387134552,0.004103429615497589
1761402199868195300,14.2731953125,-0.04741954803466797,-0.0023874863982200623,0.007263638079166412
1761402199888361000,14.29336083984375,-0.052384376525878906,0.0002424679696559906,0.005096375942230225
1761402199908523300,14.313523193359375,-0.044727325439453125,0.0065706633031368256,-0.0028295740485191345
1761402199928685300,14.333685302734375,-0.05044746398925781,0.0048139020800590515,0.0017947107553482056
1761402199948847900,14.353847900390624,-0.052811622619628906,0.00227375328540802,0.0036000609397888184
1761402199969010200,14.37401025390625,-0.05205821990966797,0.00936765968799591,0.007415018975734711
1761402199989168600,14.394168701171875,-0.04876995086669922,0.005782578140497208,0.00883202999830246
1761402200009334800,14.414334716796875,-0.046631813049316406,0.0012199804186820984,0.0035116150975227356
1761402200029474000,14.43447412109375,-0.04557609558105469,0.002653270959854126,0.003344319760799408
1761402200049655000,14.454655029296875,-0.05123424530029297,0.005432773381471634,0.009717486798763275
1761402200069821200,14.4748212890625,-0.042494773864746094,0.004784241318702698,0.0024199336767196655
1761402200089983500,14.4949833984375,-0.048709869384765625,0.0005192011594772339,0.004609942436218262
1761402200110145800,14.515145751953124,-0.04283714294433594,-0.001382831484079361,0.004572644829750061
1761402200130285000,14.53528515625,-0.052135467529296875,-0.00022730231285095215,0.00349590927362442
1761402200150470100,14.55547021484375,-0.04815959930419922,0.0021691471338272095,0.0014913007616996765
1761402200170632200,14.575632080078124,-0.04887676239013672,0.003954268991947174,0.007051460444927216
1761402200190794500,14.59579443359375,-0.04728126525878906,0.0029478296637535095,0.007846973836421967
1761402200210956800,14.615956787109376,-0.04900932312011719,-0.000418689101934433,0.001905582845211029
1761402200231119000,14.636119140625,-0.04344463348388672,0.0023136138916015625,0.0037875548005104065
1761402200251281400,14.656281494140625,-0.05419731140136719,0.0035194754600524902,0.006242349743843079
1761402200271444000,14.67644384765625,-0.051665306091308594,0.005350269377231598,0.00040677934885025024
1761402200291580700,14.69658056640625,-0.04514884948730469,0.0013154596090316772,0.0025822818279266357
1761402200311764700,14.7167646484375,-0.04759407043457031,0.0008742399513721466,0.004986576735973358
1761402200331930400,14.736930419921874,-0.05077075958251953,-0.0019194334745407104,0.0033987388014793396
1761402200352092700,14.7570927734375,-0.050599098205566406,-0.0008395873010158539,0.004069589078426361
1761402200372250600,14.777250732421875,-0.049027442932128906,0.004830218851566315,0.004195511341094971
1761402200392417300,14.797417236328124,-0.04563140869140625,0.00227263942360878,0.0055125802755355835
1761402200412579000,14.8175791015625,-0.043148040771484375,0.0003689788281917572,0.00044836848974227905
1761402200432715800,14.8377158203125,-0.05355358123779297,-0.005198676139116287,0.0037006959319114685
1761402200452904000,14.857904052734375,-0.046278953552246094,-0.0023211240768432617,0.0052117109298706055
1761402200473066800,14.878066650390625,-0.04983711242675781,0.0023334361612796783,0.003469996154308319
1761402200493228800,14.898228759765624,-0.051361083984375,-0.002790898084640503,0.0006359592080116272
1761402200513390300,14.918390380859375,-0.04313945770263672,0.0034510083496570587,0.003550104796886444
1761402200533527300,14.93852734375,-0.04323101043701172,-0.001857515424489975,0.005618713796138763
1761402200553714700,14.958714599609374,-0.044493675231933594,0.00014465674757957458,0.0006338655948638916
1761402200573858600,14.978858642578125,-0.043251991271972656,0.003112390637397766,0.0031342580914497375
1761402200594039600,14.99903955078125,-0.0467529296875,-0.0011937320232391357,0.00536598265171051
1761402200614202000,15.0192021484375,-0.05600929260253906,0.0010361894965171814,0.003951840102672577
1761402200634360000,15.039360107421874,-0.041817665100097656,-0.003935571759939194,0.004499189555644989
1761402200654526000,15.05952587890625,-0.04769706726074219,0.0010752566158771515,0.004969015717506409
1761402200674688000,15.07968798828125,-0.047847747802734375,0.004107851535081863,0.007348410785198212
1761402200694850800,15.099850830078125,-0.04913902282714844,-0.0011995919048786163,0.005292393267154694
1761402200715012600,15.1200126953125,-0.04911041259765625,-0.007593993097543716,0.00010693073272705078
1761402200735175400,15.140175537109375,-0.05216503143310547,0.005541633814573288,0.0038961470127105713
1761402200755337500,15.16033740234375,-0.04338264465332031,0.001279875636100769,0.00393638014793396
1761402200775500000,15.1805,-0.05220794677734375,0.0007219240069389343,0.00046619027853012085
1761402200795661800,15.200661865234375,-0.04134941101074219,-0.006958726793527603,0.0006920844316482544
1761402200815823600,15.22082373046875,-0.05073261260986328,-0.008658748120069504,0.0034775957465171814
1761402200835986200,15.240986083984374,-0.051230430603027344,0.0027660541236400604,-0.0011134445667266846
1761402200856148200,15.261148193359375,-0.049327850341796875,-0.004185248166322708,-0.003110073506832123
1761402200876335000,15.281335205078125,-0.04764747619628906,-0.001114964485168457,0.004948601126670837
1761402200896447500,15.301447509765625,-0.04052734375,0.002550750970840454,0.008553653955459595
1761402200916618000,15.321617919921875,-0.050520896911621094,0.004368972033262253,-0.0021697506308555603
1761402200936774000,15.34177392578125,-0.04747962951660156,0.003530118614435196,-0.0010683685541152954
1761402200956959700,15.361959716796875,-0.04749870300292969,0.0007635541260242462,0.0019941702485084534
1761402200977121800,15.382121826171876,-0.050518035888671875,-0.004853162914514542,-0.0001845136284828186
1761402200997284000,15.4022841796875,-0.049266815185546875,0.0013625994324684143,-0.0015984401106834412
1761402201017446400,15.4224462890625,-0.04326915740966797,0.005098365247249603,0.0001338273286819458
1761402201037583000,15.4425830078125,-0.05331897735595703,0.0004857555031776428,0.0003965049982070923
1761402201057770500,15.4627705078125,-0.04854869842529297,-0.000925406813621521,0.0016096234321594238
1761402201077932800,15.482932861328125,-0.04661369323730469,-0.007477063685655594,0.0015350207686424255
1761402201098091000,15.503091064453125,-0.04724597930908203,-0.007245514541864395,0.004507511854171753
1761402201118257400,15.52325732421875,-0.04603099822998047,-0.001112673431634903,-0.001185774803161621
1761402201138415600,15.54341552734375,-0.04543876647949219,-0.002417083829641342,-0.0004800334572792053
1761402201158582300,15.563582275390624,-0.04671287536621094,0.0025588348507881165,0.002814970910549164
1761402201178720800,15.583720703125,-0.044724464416503906,0.001011967658996582,0.0009304285049438477
1761402201198902300,15.60390234375,-0.044956207275390625,0.0007070153951644897,0.002023756504058838
1761402201219068400,15.624068359375,-0.05163383483886719,0.0038535036146640778,0.004103034734725952
1761402201239230700,15.644230712890625,-0.04340362548828125,0.00005265325307846069,0.0033646300435066223
1761402201259393000,15.66439306640625,-0.04204368591308594,0.0038170218467712402,0.00011911988258361816
1761402201279555000,15.68455517578125,-0.05082511901855469,0.00267753005027771,-0.0021207332611083984
1761402201299717400,15.70471728515625,-0.04508018493652344,0.006048161536455154,0.0016996413469314575
1761402201319879400,15.72487939453125,-0.0554656982421875,-0.0007126294076442719,-0.0013841837644577026
1761402201340041200,15.745041259765625,-0.05018329620361328,-0.0006964057683944702,-0.002680569887161255
1761402201360204000,15.7652041015625,-0.050047874450683594,-0.006320454180240631,-0.000817425549030304
1761402201380366000,15.785365966796874,-0.04575538635253906,0.0005311109125614166,0.001903146505355835
1761402201400524500,15.805524658203124,-0.04939746856689453,0.0015652664005756378,0.004890702664852142
1761402201420690700,15.825690673828126,-0.049640655517578125,0.000008448958396911621,0.00016913563013076782
1761402201440852700,15.845852783203124,-0.04722309112548828,0.0018867254257202148,0.0003493577241897583
1761402201461011200,15.86601123046875,-0.04860115051269531,-0.002669908106327057,0.001452319324016571
1761402201481177300,15.88617724609375,-0.04729461669921875,-0.001406889408826828,0.005109645426273346
1761402201501340000,15.90633984375,-0.043219566345214844,-0.006670445203781128,0.0020090341567993164
1761402201521498400,15.926498291015625,-0.046126365661621094,0.003750845789909363,0.006576336920261383
1761402201541639200,15.94663916015625,-0.049086570739746094,-0.0004587918519973755,0.006755180656909943
1761402201561826800,15.966826904296875,-0.04407310485839844,-0.001961164176464081,0.00236637145280838
1761402201581988600,15.986988525390625,-0.03881072998046875,-0.002461906522512436,0.0016675963997840881
1761402201602151000,16.00715087890625,-0.04358959197998047,0.0015945583581924438,0.002771250903606415
1761402201622313000,16.02731298828125,-0.048938751220703125,0.0018274784088134766,0.002556435763835907
1761402201642475300,16.047475341796876,-0.046263694763183594,-0.007225513458251953,0.0034573227167129517
1761402201662637800,16.067637939453125,-0.04411125183105469,-0.0008395612239837646,0.0030731409788131714
1761402201682774800,16.08777490234375,-0.04366016387939453,-0.001514378935098648,0.006956972181797028
1761402201702962000,16.1079619140625,-0.042441368103027344,0.0040985457599163055,-0.00128202885389328
1761402201723120000,16.1281201171875,-0.04740428924560547,-0.0011090077459812164,-0.00008532404899597168
1761402201743277800,16.14827783203125,-0.04324626922607422,-0.0018691495060920715,0.00030250847339630127
1761402201763448600,16.168448486328124,-0.040442466735839844,0.001553855836391449,-0.0008995234966278076
1761402201783585500,16.18858544921875,-0.047069549560546875,-0.0005424097180366516,0.001696474850177765
1761402201803747600,16.20874755859375,-0.048958778381347656,0.003786657005548477,0.00333346426486969
1761402201823935700,16.228935791015626,-0.0492401123046875,0.006162077188491821,0.004321940243244171
1761402201844075300,16.2490751953125,-0.04478263854980469,0.006842903792858124,-0.000638715922832489
1761402201864259800,16.269259765625,-0.048213958740234375,0.0011667199432849884,-0.0030827969312667847
1761402201884422100,16.289422119140625,-0.051433563232421875,0.006298575550317764,0.0010906308889389038
1761402201904584400,16.30958447265625,-0.04790019989013672,0.00041180849075317383,0.0044454410672187805
1761402201924724500,16.329724365234377,-0.0506439208984375,-0.0038615092635154724,-0.000773012638092041
1761402201944909000,16.349908935546875,-0.04825305938720703,-0.006696779280900955,0.0009927898645401
1761402201965071000,16.370071044921875,-0.046830177307128906,0.002404976636171341,0.0012946948409080505
1761402201985233200,16.390233154296876,-0.049353599548339844,0.0011842921376228333,0.008003145456314087
1761402202005395500,16.4103955078125,-0.04685497283935547,0.00537201389670372,0.006501063704490662
1761402202025557500,16.4305576171875,-0.04867076873779297,0.0035616010427474976,0.005966499447822571
1761402202045694500,16.450694580078125,-0.05183601379394531,0.0022186413407325745,0.003292664885520935
1761402202065882000,16.470882080078123,-0.04837512969970703,0.0026758089661598206,0.004134230315685272
1761402202086044200,16.491044189453124,-0.04251289367675781,0.00026019662618637085,0.0034551024436950684
1761402202106207200,16.511207275390625,-0.04979515075683594,-0.0006547495722770691,-0.0015980526804924011
1761402202126369500,16.53136962890625,-0.047989845275878906,0.0023996904492378235,0.005065441131591797
1761402202146531600,16.551531494140626,-0.04975128173828125,0.0013995617628097534,0.0045785605907440186
1761402202166693600,16.571693603515627,-0.04878044128417969,-0.0011482462286949158,0.00211479514837265
1761402202186855400,16.59185546875,-0.04551219940185547,-0.0014079101383686066,0.0009225755929946899
1761402202207017700,16.612017822265624,-0.04683685302734375,0.0008786842226982117,0.002083323895931244
1761402202227179800,16.6321796875,-0.04505348205566406,0.0026019811630249023,0.0009069591760635376
1761402202247342600,16.652342529296874,-0.047100067138671875,0.004878345876932144,0.002903468906879425
1761402202267504400,16.67250439453125,-0.045436859130859375,0.004854802042245865,-0.0011856704950332642
1761402202287666700,16.692666748046875,-0.04158592224121094,-0.0010608360171318054,0.008583970367908478
1761402202307829200,16.712829345703124,-0.04682350158691406,0.0030544959008693695,0.0030505359172821045
1761402202327994000,16.732994140625,-0.0485076904296875,0.0023148246109485626,0.005638584494590759
1761402202348149800,16.753149658203125,-0.045844078063964844,-0.0015497133135795593,0.006430372595787048
1761402202368313300,16.773313232421874,-0.043552398681640625,-0.001196146011352539,0.000838056206703186
1761402202388478000,16.79347802734375,-0.04076099395751953,0.0037759877741336823,0.002536207437515259
1761402202408639700,16.8136396484375,-0.05217552185058594,0.002063017338514328,-0.0014368444681167603
1761402202428802300,16.83380224609375,-0.05100536346435547,0.004238951951265335,0.002879418432712555
1761402202448964600,16.853964599609377,-0.04573249816894531,-0.0015344545245170593,0.000007972121238708496
1761402202469126700,16.874126708984374,-0.04926490783691406,-0.00101524218916893,0.0027706995606422424
1761402202489289200,16.894289306640626,-0.04958057403564453,0.0036238208413124084,-0.0028200745582580566
1761402202509451000,16.914450927734375,-0.042144775390625,-0.0010961070656776428,0.0033197253942489624
1761402202529613000,16.934613037109376,-0.043791770935058594,-0.00404764711856842,0.0006788969039916992
1761402202549771500,16.954771484375,-0.04521465301513672,-0.0027749016880989075,0.0009303316473960876
1761402202569937400,16.9749375,-0.06121349334716797,-0.002885427325963974,-0.003218419849872589
1761402202590100000,16.995099853515626,-0.03687477111816406,-0.002487029880285263,-0.0033957883715629578
1761402202610224000,17.01522412109375,-0.05162334442138672,0.0013472698628902435,0.002855047583580017
1761402202630424600,17.035424560546875,-0.0682220458984375,0.003473680466413498,-0.002498231828212738
1761402202650586400,17.05558642578125,-0.06034278869628906,0.0006710328161716461,-0.000045180320739746094
1761402202670723600,17.0757236328125,-0.06348514556884766,0.004178013652563095,0.003888748586177826
1761402202690907600,17.09590771484375,-0.054615020751953125,0.0031281225383281708,-0.0052298903465271
