time,seconds_elapsed,z,y,x
1761315721631376400,0.26137646484375,0.7885274291038513,0.18462859094142914,0.19325679540634155
1761315721650299000,0.280298828125,0.7928034067153931,0.0007635590736754239,0.16760121285915375
1761315721669221600,0.2992216796875,0.34016555547714233,-0.010842538438737392,0.07719582319259644
1761315721688144100,0.31814404296875,0.15691138803958893,0.09116895496845245,-0.01748550310730934
1761315721707066600,0.337066650390625,0.20700086653232574,-0.09697200357913971,-0.04497363045811653
1761315721725989000,0.355989013671875,0.30046048760414124,-0.05787777900695801,0.018554486334323883
1761315721744911600,0.37491162109375,0.2900761067867279,0.09300149232149124,0.12728530168533325
1761315721763834400,0.39383447265625,0.2399866133928299,0.29030516743659973,0.22868594527244568
1761315721782756900,0.4127568359375,0.30412557721138,0.39170581102371216,0.1993652731180191
1761315721801679400,0.431679443359375,0.2668638825416565,0.4002576768398285,0.14133478701114655
1761315721820601900,0.450601806640625,0.1624090075492859,0.2976353168487549,0.1327829211950302
1761315721839524600,0.469524658203125,0.09827005118131638,0.2579302489757538,0.11812258511781693
1761315721858447000,0.488447021484375,-0.055052608251571655,0.3110739588737488,0.23662695288658142
1761315721877369600,0.50736962890625,-0.10514208674430847,0.3605526089668274,0.33863845467567444
1761315721896292000,0.5262919921875,-0.11552648991346359,0.28786176443099976,0.4070533514022827
1761315721915214800,0.54521484375,-0.09536852687597275,0.3104631304740906,0.3930038511753082
1761315721934137300,0.564137451171875,-0.02817532978951931,0.3581092059612274,0.3197021782398224
1761315721953059800,0.583059814453125,-0.007406522985547781,0.2945810854434967,0.22318831086158752
1761315721971982300,0.601982421875,0.03168770298361778,0.13270656764507294,0.07597412914037704
1761315721990904800,0.62090478515625,-0.000687203137204051,-0.019394399598240852,-0.031534988433122635
1761315722009827600,0.63982763671875,0.03779617324471474,0.0032069480512291193,-0.06085565686225891
1761315722028750000,0.65875,0.03474193811416626,0.023364907130599022,-0.02542651630938053
1761315722047672600,0.677672607421875,0.008475505746901035,0.02764083817601204,0.027717193588614464
1761315722066595000,0.696594970703125,-0.01779092662036419,-0.024281177669763565,0.06436803191900253
1761315722085517800,0.715517822265625,-0.025731941685080528,-0.0719272643327713,0.05031854286789894
1761315722104440300,0.7344404296875,-0.00007635590736754239,-0.014507622458040714,0.015500249341130257
1761315722123362800,0.75336279296875,-0.015958385542035103,0.03680354729294777,0.04604261368513107
1761315722142285300,0.772285400390625,-0.024510245770215988,0.02886253222823143,0.10285140573978424
1761315722161208000,0.7912080078125,-0.024510245770215988,0.00259610079228878,0.0692548081278801
1761315722180130600,0.810130615234375,0.004810422193259001,-0.0065666078589856625,0.004504998680204153
1761315722199053000,0.829052978515625,0.01885990984737873,0.01175880990922451,-0.015652960166335106
1761315722217975600,0.8479755859375,0.01763821393251419,0.04169032722711563,0.006337540224194527
1761315722236898000,0.86689794921875,0.01885990984737873,0.04046862944960594,0.017332790419459343
1761315722255820800,0.88582080078125,0.02802261710166931,0.037414394319057465,0.03687990456819534
1761315722274743300,0.904743408203125,0.04146125912666321,0.04046862944960594,0.025273805484175682
1761315722293665800,0.923665771484375,0.02557922899723053,0.01847812905907631,0.017332790419459343
1761315722312588300,0.94258837890625,0.015194825828075409,-0.07986827939748764,-0.0016034740256145597
1761315722331511000,0.961510986328125,0.01885990984737873,-0.14034216105937958,-0.06696412712335587
1761315722350433500,0.98043359375,0.011529741808772087,-0.04504998400807381,-0.0761268362402916
1761315722369356000,0.99935595703125,0.004199574701488018,0.007482878863811493,0.007559234742075205
1761315722388278500,1.018278564453125,0.005421269219368696,0.05635065957903862,0.0558161698281765
1761315722407201000,1.037200927734375,-0.017180079594254494,-0.021837789565324783,-0.013209572061896324
1761315722426123500,1.05612353515625,-0.03489464893937111,-0.09941539168357849,-0.16286714375019073
1761315722445046300,1.07504638671875,-0.04283566400408745,-0.07620319724082947,-0.17630578577518463
1761315722463968800,1.09396875,-0.04527905210852623,-0.06948387622833252,-0.08651123940944672
1761315722482891300,1.112891357421875,-0.036727190017700195,-0.051769305020570755,-0.010766183026134968
1761315722501813800,1.131813720703125,-0.025731941685080528,-0.034665580838918686,0.002672456670552492
1761315722520736500,1.150736572265625,-0.022066857665777206,-0.011453386396169662,-0.018096350133419037
1761315722539659000,1.169658935546875,-0.023288551717996597,0.014202198944985867,-0.032756682485342026
1761315722558581500,1.18858154296875,-0.023288551717996597,0.015423892997205257,-0.02664821222424507
1761315722577504000,1.20750390625,-0.031229566782712936,-0.009009997360408306,-0.02298312820494175
1761315722596426500,1.226426513671875,-0.03367295488715172,-0.02733541466295719,-0.04375193640589714
1761315722615349200,1.245349365234375,-0.024510245770215988,-0.01817270554602146,-0.0492495596408844
1761315722634271700,1.264271728515625,-0.011682453565299511,-0.021226942539215088,-0.04253023862838745
1761315722653194200,1.2831943359375,-0.011682453565299511,-0.019394399598240852,-0.05657972767949104
1761315722672116700,1.30211669921875,0.027411770075559616,-0.0010689827613532543,-0.05596888065338135
1761315722691039200,1.321039306640625,0.043293800204992294,-0.0022906772792339325,-0.059023115783929825
1761315722709962000,1.3399619140625,0.04085041210055351,-0.0328330397605896,-0.06452073901891708
1761315722728884500,1.358884521484375,0.01763821393251419,-0.0584886260330677,-0.05230379477143288
1761315722747807000,1.377806884765625,-0.030007870867848396,-0.04932591691613197,-0.10483665764331818
1761315722766729500,1.3967294921875,-0.13812783360481262,-0.05421269312500954,-0.19890713691711426
1761315722785652000,1.41565185546875,-0.26212984323501587,-0.024281177669763565,-0.2593810260295868
1761315722804574500,1.434574462890625,-0.4582118093967438,-0.18371231853961945,-0.2606027126312256
1761315722823497200,1.453497314453125,-0.48997586965560913,-0.28633466362953186,-0.3253525197505951
1761315722842419700,1.472419677734375,-0.5644991993904114,-0.30282753705978394,-0.3119138777256012
1761315722861342200,1.49134228515625,-0.7685222029685974,-0.40422818064689636,-0.2569376230239868
1761315722880264700,1.5102646484375,-0.9432245492935181,-0.5080721974372864,-0.23922306299209595
1761315722899187500,1.5291875,-1.1466366052627563,-0.71453857421875,-0.24838577210903168
1761315722918110000,1.54810986328125,-1.2144407033920288,-0.7798992395401001,-0.3882697820663452
1761315722937032400,1.567032470703125,-0.6744517087936401,-0.6003101468086243,-0.5544202327728271
1761315722955955000,1.585954833984375,-0.2602972984313965,-0.7316423058509827,-0.3510081171989441
1761315722974877400,1.60487744140625,-0.1656159609556198,-0.5074613690376282,-0.13476817309856415
1761315722993800000,1.623800048828125,-0.38613182306289673,-0.2564031481742859,-0.14881765842437744
1761315723012722700,1.64272265625,-0.8045622110366821,-0.12751436233520508,-0.283204048871994
1761315723031645200,1.661645263671875,-1.0238564014434814,0.17302247881889343,-0.48844873905181885
1761315723050567700,1.680567626953125,-1.5846141576766968,-0.025502873584628105,-0.7162947654724121
1761315723069490200,1.699490234375,-2.303046941757202,-0.5813738703727722,-0.859233021736145
1761315723088412700,1.71841259765625,-3.0702710151672363,-0.9649859666824341,-0.9496384263038635
1761315723107335400,1.73733544921875,-3.7422029972076416,-1.45366370677948,-1.1011285781860352
1761315723126258000,1.7562578125,-3.9211812019348145,-1.5379606485366821,-0.7364526987075806
1761315723145180400,1.775180419921875,-3.5711658000946045,-1.3938007354736328,-0.5202127695083618
1761315723164103000,1.79410302734375,-3.2351996898651123,-0.9979717135429382,-0.6857523918151855
1761315723183025400,1.813025390625,-2.8161585330963135,-0.6436802744865417,-0.6393280029296875
1761315723201948000,1.831947998046875,-2.4166643619537354,-0.44576579332351685,-0.7523347735404968
1761315723220870700,1.85087060546875,-2.1356747150421143,-0.2423536479473114,-0.9807916283607483
1761315723239793200,1.869793212890625,-3.4294493198394775,-0.3694098889827728,-0.6594859957695007
1761315723258715600,1.888715576171875,-3.6585168838500977,-1.2197092771530151,0.4094967246055603
1761315723277638100,1.90763818359375,-1.8919466733932495,-2.180037498474121,0.6190173625946045
1761315723296560600,1.926560546875,-0.6939988136291504,-1.1317472457885742,0.9562050104141235
1761315723315483400,1.9454833984375,-0.07948649674654007,0.8835142254829407,1.4150276184082031
1761315723334406000,1.964406005859375,0.29923880100250244,2.043513059616089,1.618439793586731
1761315723353328400,1.983328369140625,0.33894386887550354,1.799174189567566,1.3808202743530273
1761315723372251000,2.0022509765625,0.3071798086166382,1.1956571340560913,0.9458206295967102
1761315723391173400,2.02117333984375,0.36337774991989136,0.8541935086250305,1.0606598854064941
1761315723410095900,2.040095947265625,0.38842248916625977,0.8877901434898376,1.5927842855453491
1761315723429018400,2.059018310546875,0.32733777165412903,0.32756683230400085,1.8621678352355957
1761315723447941000,2.077941162109375,0.3725404739379883,-0.3064926266670227,1.6844112873077393
1761315723466863600,2.096863525390625,0.42751672863960266,-0.3742966651916504,1.2513206005096436
1761315723485786000,2.1157861328125,0.40430453419685364,0.6495596766471863,0.7118661403656006
1761315723504708600,2.13470849609375,0.16912832856178284,0.4790569543838501,0.6153522729873657
1761315723523631000,2.153631103515625,-0.29450473189353943,-1.1005940437316895,0.46691638231277466
1761315723542553900,2.172553955078125,-1.017137050628662,-1.6375287771224976,0.09918632358312607
1761315723561476400,2.191476318359375,-1.3158413171768188,-1.747481346130371,-0.47317755222320557
1761315723580398800,2.21039892578125,-0.6408551335334778,-2.024806022644043,-1.0687536001205444
1761315723599321300,2.2293212890625,-0.299391508102417,-1.7951273918151855,-1.9197402000427246
1761315723618243800,2.248243896484375,-0.13018682599067688,-1.242310643196106,-2.5904505252838135
1761315723637166300,2.267166259765625,-0.018401773646473885,-0.8617527484893799,-2.673525810241699
1761315723656088800,2.2860888671875,0.054899897426366806,-0.7322531342506409,-2.41819167137146
1761315723675011600,2.305011474609375,0.07139277458190918,-0.5673243999481201,-2.128649950027466
1761315723693934000,2.32393408203125,-0.02817532978951931,-0.26128992438316345,-2.0070912837982178
1761315723712856600,2.342856689453125,-0.4270585775375366,-0.29916244745254517,-1.7902406454086304
1761315723731779000,2.361779052734375,-0.8082273006439209,-0.5196782946586609,-1.3973894119262695
1761315723750701600,2.38070166015625,-0.8668686151504517,-0.6473453640937805,-0.8598438501358032
1761315723769624000,2.3996240234375,-0.72026526927948,-0.9649859666824341,-0.21295662224292755
1761315723788546800,2.418546875,-0.6042042970657349,-1.4530528783798218,0.5463265180587769
1761315723807469300,2.43746923828125,-0.6145886778831482,-1.238034725189209,0.9873582124710083
1761315723826391800,2.456391845703125,-0.4117874205112457,-0.8342646360397339,0.7619556188583374
1761315723845314300,2.475314208984375,-0.009239064529538155,-0.4903576374053955,0.347801148891449
1761315723864236800,2.49423681640625,0.17035003006458282,0.22066856920719147,0.07719582319259644
1761315723883159300,2.5131591796875,0.23265644907951355,1.1101385354995728,0.026495499536395073
1761315723902082000,2.53208203125,0.2393757700920105,2.0245769023895264,0.1486649513244629
1761315723921004500,2.551004638671875,0.32122930884361267,2.6262614727020264,0.5481590628623962
1761315723939927000,2.569927001953125,0.5075377225875854,2.6671881675720215,1.2171131372451782
1761315723958849500,2.588849609375,0.6126034259796143,2.133918523788452,1.9299719333648682
1761315723977772000,2.60777197265625,0.7219451069831848,0.6489488482475281,2.5988497734069824
1761315723996694500,2.626694580078125,0.7451573014259338,-0.005955760832875967,2.2860958576202393
1761315724015617300,2.6456171875,0.7451573014259338,0.9207758903503418,1.4217469692230225
1761315724034539800,2.664539794921875,0.48249298334121704,-0.42194274067878723,2.8138678073883057
1761315724053462300,2.683462158203125,-0.29083964228630066,-1.2551383972167969,2.6684863567352295
1761315724072384800,2.702384765625,0.32245099544525146,1.0649358034133911,0.6361210346221924
1761315724091307300,2.721307373046875,0.3994177579879761,1.417394757270813,-0.2691545784473419
1761315724110229800,2.740229736328125,-0.5009710788726807,-0.323596328496933,-0.47256672382354736
1761315724129152500,2.759152587890625,-1.1527451276779175,-2.071841239929199,0.12789614498615265
1761315724148075000,2.778074951171875,-0.5321243405342102,-1.9203510284423828,-0.33085015416145325
1761315724166997500,2.79699755859375,-0.2584647536277771,-1.8403301239013672,-1.3234769105911255
1761315724185920000,2.815919921875,-0.24136102199554443,-2.1310932636260986,-1.9716622829437256
1761315724204842500,2.834842529296875,-0.16439427435398102,-2.096885919570923,-2.3735997676849365
1761315724223765000,2.853764892578125,0.034131091088056564,-1.6973918676376343,-2.5348634719848633
1761315724242687500,2.8726875,0.11415208131074905,-0.765238881111145,-2.5562431812286377
1761315724261610200,2.8916103515625,0.07261446863412857,0.3483356535434723,-2.4004769325256348
1761315724280532700,2.91053271484375,0.07383616268634796,1.0728768110275269,-2.125595808029175
1761315724299455200,2.929455322265625,0.004810422193259001,1.398458480834961,-1.9435632228851318
1761315724318377700,2.948377685546875,-0.141182079911232,1.4961940050125122,-1.7401511669158936
1761315724337300200,2.96730029296875,-0.20287764072418213,1.2628504037857056,-1.3839508295059204
1761315724356222700,2.98622265625,-0.23769593238830566,0.4637857675552368,-0.7303442358970642
1761315724375145500,3.0051455078125,-0.23769593238830566,-0.812274158000946,0.46997061371803284
1761315724394068000,3.02406787109375,-0.43561044335365295,-1.326607584953308,1.3398934602737427
1761315724412990500,3.042990478515625,-0.4514924883842468,-1.1005940437316895,1.382652759552002
1761315724431913000,3.061912841796875,-0.22486814856529236,-0.7927270531654358,0.6184064745903015
1761315724450835500,3.08083544921875,-0.007406522985547781,0.10644013434648514,-0.36994436383247375
1761315724469758000,3.099758056640625,0.1343100368976593,1.0466104745864868,-0.8854994773864746
1761315724488680400,3.118680419921875,0.20761170983314514,1.8565938472747803,-0.8745042085647583
1761315724507603200,3.137603271484375,0.46905434131622314,2.225545644760132,-0.09506310522556305
1761315724526525700,3.156525634765625,0.6516976952552795,2.0972676277160645,0.8761840462684631
1761315724545448200,3.1754482421875,0.597332239151001,1.5988163948059082,1.6111096143722534
1761315724564370700,3.19437060546875,0.5967214107513428,0.8328138589859009,2.349013090133667
1761315724583293200,3.213293212890625,0.6138251423835754,0.5499916076660156,2.8370800018310547
1761315724602215700,3.232215576171875,0.7414922118186951,0.9336037039756775,3.1027987003326416
1761315724621138400,3.251138427734375,0.5399126410484314,1.1510653495788574,2.30869722366333
1761315724640061000,3.27006103515625,0.22105035185813904,0.2793098986148834,1.7919204235076904
1761315724658983400,3.2889833984375,-0.4832565486431122,-1.3595932722091675,2.1370491981506348
1761315724677906000,3.307906005859375,-0.014125842601060867,0.16141638159751892,0.9036721587181091
1761315724696828400,3.326828369140625,0.6694122552871704,0.9421555399894714,-0.25388339161872864
1761315724715751000,3.3457509765625,0.11903885751962662,0.6636092066764832,-0.9203177690505981
1761315724734673700,3.364673583984375,-0.26518407464027405,-0.4133908748626709,-1.1860363483428955
1761315724753596200,3.38359619140625,-0.61397784948349,-1.7951273918151855,-0.9398648738861084
1761315724772518700,3.4025185546875,-0.7508076429367065,-2.373065233230591,-0.8433510065078735
1761315724791441200,3.421441162109375,-0.3733040392398834,-2.494623899459839,-1.3424131870269775
1761315724810363600,3.44036376953125,0.06406260281801224,-1.935622215270996,-1.9985395669937134
1761315724829286100,3.4592861328125,0.06772769242525101,-0.9356653094291687,-2.1182656288146973
1761315724848208600,3.478208740234375,0.010308047756552696,0.007482878863811493,-1.9020256996154785
1761315724867131400,3.49713134765625,0.053678203374147415,0.6324560046195984,-1.4877948760986328
1761315724886054000,3.516053955078125,-0.01779092662036419,0.5933617353439331,-1.1127346754074097
1761315724904976400,3.534976318359375,-0.12407834827899933,0.19318044185638428,-0.7266791462898254
1761315724923899000,3.55389892578125,-0.19982340931892395,-0.07070557028055191,-0.3094705045223236
1761315724942821400,3.5728212890625,-0.20043425261974335,0.1779092699289322,0.058870404958724976
1761315724961744000,3.591743896484375,-0.03855973482131958,0.3581092059612274,0.33802759647369385
1761315724980666600,3.61066650390625,0.15141376852989197,0.31290650367736816,0.3832302987575531
1761315724999589000,3.629589111328125,0.2015032321214676,0.27197974920272827,0.057648710906505585
1761315725018511600,3.64851171875,0.15019206702709198,0.4088095426559448,-0.4127036929130554
1761315725037434000,3.66743408203125,0.07017108052968979,0.7008708715438843,-0.5922927856445312
1761315725056356600,3.686356689453125,0.05123481526970863,0.7173637747764587,-0.2978644073009491
1761315725075279000,3.705279052734375,0.07750124484300613,0.4521796703338623,0.12484190613031387
1761315725094201600,3.72420166015625,0.13003410398960114,0.07040014863014221,0.5701495409011841
1761315725113124000,3.7431240234375,0.17768019437789917,-0.48241662979125977,1.4510676860809326
1761315725132046800,3.762046875,0.1874537467956543,-0.8373188972473145,2.913435935974121
1761315725150969300,3.78096923828125,0.2656421959400177,0.3898732662200928,4.752162456512451
1761315725169891800,3.799891845703125,0.15752223134040833,2.133307695388794,3.984327554702759
1761315725188814300,3.818814453125,0.07872293889522552,2.576171875,-0.179360032081604
1761315725207736800,3.83773681640625,1.0854755640029907,2.4118540287017822,-0.1280488520860672
1761315725226659300,3.856659423828125,1.6529526710510254,2.268915891647339,1.652036428451538
1761315725245582000,3.87558203125,-0.7404232621192932,-4.928926467895508,2.03076171875
1761315725264504600,3.894504638671875,-0.4172850251197815,-2.3254191875457764,0.8413657546043396
1761315725283427000,3.913427001953125,0.37742725014686584,0.07650861889123917,-0.5483117699623108
1761315725302349600,3.932349609375,0.5044834613800049,-0.2673983871936798,-1.6466914415359497
1761315725321272000,3.95127197265625,0.18989713490009308,-0.895349383354187,-1.2630031108856201
1761315725340194600,3.970194580078125,0.15630054473876953,-1.8226155042648315,-1.2666682004928589
1761315725359117000,3.989116943359375,0.1086544543504715,-2.9790258407592773,-1.4859622716903687
1761315725378039800,4.008039794921875,-0.025121092796325684,-2.757899045944214,-1.894695520401001
1761315725396962300,4.02696240234375,-0.09842276573181152,-1.3418787717819214,-2.181182861328125
1761315725415884800,4.045884765625,-0.17355698347091675,-0.07070557028055191,-2.2813618183135986
1761315725434807300,4.064807373046875,-0.3513135313987732,0.5285356044769287,-2.279529333114624
1761315725453729800,4.083729736328125,-0.4649311304092407,0.7845569252967834,-1.9954853057861328
1761315725472652300,4.10265234375,-0.4417189359664917,0.7821135520935059,-1.657686710357666
1761315725491574800,4.12157470703125,-0.26579490303993225,0.27564483880996704,-1.1725976467132568
1761315725510497500,4.14049755859375,0.09399411827325821,-0.6479562520980835,-0.259991854429245
1761315725529420000,4.159419921875,0.3578801453113556,-1.30644953250885,0.7790593504905701
1761315725548342500,4.178342529296875,-0.004963133949786425,-1.7132738828659058,1.4455699920654297
1761315725567265000,4.19726513671875,-0.44660571217536926,-1.773136854171753,1.761988878250122
1761315725586187500,4.2161875,-0.348259299993515,-1.1555702686309814,1.6825788021087646
1761315725605110000,4.235110107421875,-0.03978142887353897,0.8670213222503662,1.0343934297561646
1761315725624032800,4.25403271484375,0.2894652485847473,2.7453765869140625,0.36246147751808167
1761315725642955300,4.272955322265625,0.43118181824684143,3.256732225418091,0.3337516784667969
1761315725661877800,4.291877685546875,0.35360419750213623,3.007430076599121,0.9836931824684143
1761315725680800300,4.31080029296875,0.4721085727214813,2.75576114654541,1.6447062492370605
1761315725699722800,4.32972265625,0.47149771451950073,2.47782564163208,1.739998459815979
1761315725718645200,4.348645263671875,0.3169533610343933,1.0899806022644043,1.9055380821228027
1761315725737567700,4.367567626953125,0.21921780705451965,-1.1977187395095825,2.1107826232910156
1761315725756490500,4.386490478515625,0.1343100368976593,-3.1531171798706055,2.106506824493408
1761315725775413000,4.4054130859375,0.8386169075965881,-3.2954444885253906,1.688076376914978
1761315725794335500,4.42433544921875,1.2271921634674072,-1.5825525522232056,0.5090648531913757
1761315725813258000,4.443258056640625,0.6730773448944092,-0.6565080881118774,-0.08712209016084671
1761315725832180500,4.462180419921875,0.5991647839546204,-0.051769305020570755,-0.2734304964542389
1761315725851103000,4.48110302734375,0.11048699915409088,-0.6937697529792786,0.03199312463402748
1761315725870025500,4.500025390625,-0.4435514807701111,1.6195851564407349,-0.8225821852684021
1761315725888948200,4.5189482421875,-0.3378748893737793,-0.6155813336372375,-0.6662052869796753
1761315725907870700,4.53787060546875,-0.24258272349834442,-2.688262462615967,-1.4242666959762573
1761315725926793200,4.556793212890625,0.09155073016881943,-2.7133071422576904,-2.5727360248565674
1761315725945715700,4.5757158203125,0.23021306097507477,-1.5025315284729004,-2.534252643585205
1761315725964638200,4.59463818359375,0.06223006546497345,-0.06642963737249374,-2.537306785583496
1761315725983560700,4.613560791015625,0.11170869320631027,0.8780165910720825,-2.443847179412842
1761315726002483500,4.6324833984375,0.12270393967628479,1.347758173942566,-2.2294397354125977
1761315726021406000,4.651406005859375,0.018249060958623886,1.1779426336288452,-1.9716622829437256
1761315726040328400,4.670328369140625,0.045737188309431076,0.16141638159751892,-1.3185901641845703
1761315726059251000,4.6892509765625,0.17890189588069916,-2.0382444858551025,0.5493807792663574
1761315726078173400,4.70817333984375,-0.23525254428386688,-2.2625019550323486,2.0661909580230713
1761315726097096000,4.727095947265625,-0.16500511765480042,-0.3590254783630371,2.2170701026916504
1761315726116018400,4.746018310546875,0.31328830122947693,0.4399627447128296,1.7161753177642822
1761315726134941000,4.76494091796875,0.46844348311424255,1.5475051403045654,0.8877901434898376
1761315726153863700,4.78386376953125,0.3798706531524658,3.3801233768463135,0.10957072675228119
1761315726172786200,4.8027861328125,0.2748049199581146,4.30983304977417,-0.20135052502155304
1761315726191708700,4.821708740234375,0.33894386887550354,3.743577480316162,0.0942995473742485
1761315726210631200,4.840631103515625,0.28396761417388916,2.47477126121521,0.49379366636276245
1761315726229553700,4.8595537109375,0.07505785673856735,0.8224294781684875,0.741186797618866
1761315726248476400,4.878476318359375,-0.14545799791812897,-0.5587725043296814,0.925662636756897
1761315726267399000,4.89739892578125,-0.08559497445821762,-1.2056597471237183,1.1859599351882935
1761315726286321400,4.9163212890625,0.09643751382827759,-1.7847429513931274,1.4614521265029907
1761315726305244000,4.935243896484375,-0.4722612798213959,-4.922818183898926,3.837724208831787
1761315726324166400,4.95416650390625,-0.5376219153404236,-5.4689154624938965,2.4339208602905273
1761315726343089000,4.9730888671875,0.3328354060649872,-0.07498150318861008,0.9055047035217285
1761315726362011400,4.992011474609375,-0.16134002804756165,1.2927818298339844,0.6660525798797607
1761315726380934000,5.010933837890625,-0.48692160844802856,-0.7774558663368225,-0.031534988433122635
1761315726399856400,5.0298564453125,-0.43377789855003357,0.21944688260555267,0.24212458729743958
1761315726418779100,5.048779052734375,0.021914144977927208,1.8761409521102905,-1.0321028232574463
1761315726437701600,5.06770166015625,0.565568208694458,-0.3718532621860504,-1.0638668537139893
1761315726456624000,5.0866240234375,0.4727194309234619,-2.120098114013672,-1.5152829885482788
1761315726475546600,5.105546630859375,0.32245099544525146,-1.9374548196792603,-2.261814594268799
1761315726494469000,5.12446923828125,0.39330926537513733,-1.1134217977523804,-2.5873963832855225
1761315726513391600,5.1433916015625,0.33466795086860657,-0.3327590525150299,-2.580066204071045
1761315726532314400,5.162314453125,0.21738526225090027,0.40453359484672546,-2.467670202255249
1761315726551236900,5.18123681640625,0.13064496219158173,0.8059365749359131,-2.2434892654418945
1761315726570159400,5.200159423828125,0.009697199799120426,0.948874831199646,-2.0040371417999268
1761315726589081900,5.219081787109375,-0.15156647562980652,0.9458206295967102,-1.8128420114517212
1761315726608004400,5.23800439453125,-0.217537984251976,0.5799230933189392,-1.5110070705413818
1761315726626926800,5.2569267578125,-0.047111593186855316,-0.7206470370292664,-0.6759788393974304
1761315726645849600,5.275849609375,0.06650599837303162,-2.4176571369171143,0.4461475610733032
1761315726664772000,5.294772216796875,-0.13629528880119324,-3.0828697681427,1.2128372192382812
1761315726683694600,5.313694580078125,-0.26396235823631287,-1.9423415660858154,1.614163875579834
1761315726702617000,5.3326171875,-0.12346750497817993,-0.4946335554122925,1.7564913034439087
1761315726721539600,5.35153955078125,-0.09781191498041153,1.5132976770401,1.4846643209457397
1761315726740462000,5.370462158203125,-0.1283542811870575,3.51206636428833,1.0820395946502686
1761315726759384600,5.389384521484375,-0.0880383625626564,4.984208106994629,0.7277481555938721
1761315726778307000,5.40830712890625,0.21799612045288086,5.152191162109375,0.606800377368927
1761315726797229800,5.427229736328125,0.5032618045806885,4.009906768798828,0.6746044158935547
1761315726816152300,5.44615234375,0.48310381174087524,1.6886109113693237,0.7295807003974915
1761315726835074800,5.46507470703125,0.5032618045806885,-0.30404922366142273,1.2965233325958252
1761315726853997300,5.483997314453125,0.11231953650712967,-3.4768662452697754,3.439986228942871
1761315726872919800,5.502919921875,-0.5101338028907776,-4.68206787109375,3.757016181945801
1761315726891842300,5.52184228515625,-0.034283801913261414,-3.571547508239746,2.316638231277466
1761315726910765000,5.54076513671875,-0.06360447406768799,0.5230379700660706,1.0539405345916748
1761315726929687600,5.5596875,0.1220930963754654,1.6379106044769287,-0.35528403520584106
1761315726948610000,5.578610107421875,-0.2615189850330353,0.386208176612854,-0.35955995321273804
1761315726967532500,5.597532470703125,-0.2969481348991394,-0.6846070885658264,-0.18424680829048157
1761315726986455000,5.616455078125,-0.18394137918949127,-0.8006680607795715,-0.44691112637519836
1761315727005377500,5.63537744140625,0.1996707022190094,-0.7768449783325195,-0.9343672394752502
1761315727024300000,5.654300048828125,0.3163425326347351,-1.148240089416504,-1.4743561744689941
1761315727043222500,5.673222412109375,0.36459946632385254,-1.2807940244674683,-2.039466381072998
1761315727062145000,5.69214501953125,0.29557371139526367,-1.084712028503418,-2.363826274871826
1761315727081067800,5.71106787109375,0.15202461183071136,-0.2942756712436676,-2.265479803085327
1761315727099990300,5.729990234375,0.00908635277301073,0.6996491551399231,-1.9808249473571777
1761315727118912800,5.748912841796875,-0.043446511030197144,1.2604069709777832,-1.6845639944076538
1761315727137835300,5.767835205078125,-0.09170344471931458,1.5151302814483643,-1.5195589065551758
1761315727156757800,5.7867578125,-0.17416782677173615,1.5994272232055664,-1.427320957183838
1761315727175680300,5.80568017578125,-0.2468586415052414,1.527347207069397,-1.2831610441207886
1761315727194603000,5.82460302734375,-0.24319356679916382,1.221923589706421,-0.9826241731643677
1761315727213525500,5.843525390625,-0.11613733321428299,0.42957833409309387,-0.24044474959373474
1761315727232448000,5.862447998046875,0.19295138120651245,-0.31199023127555847,0.7234722375869751
1761315727251370500,5.88137060546875,0.3444415032863617,-0.43232715129852295,1.0496646165847778
1761315727270293000,5.90029296875,0.32489439845085144,-0.3107685446739197,0.8829033374786377
1761315727289215500,5.919215576171875,0.23326729238033295,-0.23746687173843384,0.4363740086555481
1761315727308138200,5.93813818359375,0.2137201875448227,0.26098448038101196,-0.03886515647172928
1761315727327060700,5.957060791015625,0.37864893674850464,0.9519290924072266,-0.3375694751739502
1761315727345983200,5.975983154296875,0.6779640913009644,1.350812315940857,-0.1414874941110611
1761315727364905700,5.99490576171875,0.828843355178833,1.5224604606628418,0.6104654669761658
1761315727383828200,6.013828125,0.5643464922904968,0.8609128594398499,1.9837265014648438
1761315727402750700,6.032750732421875,-0.2321983128786087,-0.37735089659690857,4.035638809204102
1761315727421673200,6.051673095703125,-0.9511655569076538,1.1504544019699097,3.4057788848876953
1761315727440595700,6.070595703125,-1.0513445138931274,1.5554461479187012,1.7473286390304565
1761315727459518200,6.089518310546875,0.44095537066459656,0.30068957805633545,2.2439475059509277
1761315727478441000,6.10844091796875,0.7286643981933594,-0.7603521347045898,2.4681284427642822
1761315727497363500,6.127363525390625,0.2919086217880249,-0.7707365155220032,1.1627477407455444
1761315727516286000,6.146285888671875,-0.019623467698693275,0.26403874158859253,0.23174017667770386
1761315727535208400,6.16520849609375,-0.2584647536277771,-1.8727049827575684,0.7967739105224609
1761315727554131000,6.184130859375,0.10498937219381332,-0.8617527484893799,-0.07734853774309158
1761315727573053400,6.203053466796875,0.4776062071323395,-1.0682191848754883,-0.8341882824897766
1761315727591976000,6.221975830078125,0.24304085969924927,-2.313202142715454,-1.3479108810424805
1761315727610898700,6.240898681640625,-0.00862821750342846,-2.327251672744751,-1.811009407043457
1761315727629821200,6.2598212890625,0.08910734206438065,-1.7163281440734863,-2.158581495285034
1761315727648743700,6.27874365234375,0.019470756873488426,-1.2710204124450684,-2.4462904930114746
1761315727667666200,6.297666259765625,-0.11369394510984421,-0.5459447503089905,-2.5501346588134766
1761315727686588700,6.316588623046875,-0.1802763044834137,0.3061871826648712,-2.4664485454559326
1761315727705511200,6.33551123046875,-0.13385190069675446,0.7424085140228271,-2.3076281547546387
1761315727724434000,6.354433837890625,-0.08742751181125641,1.0124030113220215,-2.195232391357422
1761315727743356400,6.3733564453125,-0.08620581775903702,1.2213127613067627,-2.0724520683288574
1761315727762279000,6.39227880859375,-0.012293301522731781,0.8835142254829407,-1.59415864944458
1761315727781201400,6.411201416015625,0.3187859058380127,-0.17393875122070312,-0.49761146306991577
1761315727800124000,6.4301240234375,0.6755207180976868,-0.9252808690071106,0.7240830659866333
1761315727819046400,6.44904638671875,0.6095492243766785,-1.1170868873596191,1.3533320426940918
1761315727837969000,6.467968994140625,0.23632153868675232,-1.3589824438095093,1.730224847793579
1761315727856891400,6.486891357421875,-0.11125055700540543,-1.4542746543884277,1.909203052520752
1761315727875814100,6.505814208984375,-0.18821731209754944,-0.22586077451705933,1.5652960538864136
1761315727894736600,6.524736572265625,-0.13263021409511566,2.4582784175872803,0.5493807792663574
1761315727913659100,6.5436591796875,0.007253811229020357,3.9732561111450195,-0.19951798021793365
1761315727932581600,6.56258154296875,0.2546469569206238,4.257299900054932,-0.012598725035786629
1761315727951504100,6.581504150390625,0.6266529560089111,3.1118850708007812,0.6342885494232178
1761315727970426600,6.600426513671875,0.7262210249900818,1.3312652111053467,1.0985324382781982
1761315727989349400,6.619349365234375,0.5215871930122375,0.3324536085128784,1.4492350816726685
1761315728008272000,6.63827197265625,0.4201865494251251,-0.6675033569335938,1.6355435848236084
1761315728027194400,6.6571943359375,0.06039752438664436,-3.6888301372528076,2.4540789127349854
1761315728046116900,6.676116943359375,-1.174124836921692,-5.729747295379639,2.4516353607177734
1761315728065039400,6.695039306640625,-0.7880693078041077,-3.35103178024292,3.0710346698760986
1761315728083961900,6.7139619140625,0.42690587043762207,-0.30221667885780334,1.1131927967071533
1761315728102884400,6.73288427734375,0.3206184506416321,0.5383855104446411,0.023441264405846596
1761315728121806800,6.751806884765625,-0.07032378762960434,0.02764083817601204,-0.06635328382253647
1761315728140729600,6.7707294921875,-0.0752105712890625,-0.2283041626214981,-0.4585172235965729
1761315728159652000,6.789652099609375,0.33833301067352295,0.00992626789957285,-0.9459733366966248
1761315728178574600,6.80857470703125,0.44400960206985474,-0.7536327838897705,-1.1695433855056763
1761315728197497000,6.8274970703125,0.2259371280670166,-1.6375287771224976,-1.4572525024414062
1761315728216419600,6.846419677734375,0.0011453386396169662,-1.797570824623108,-1.815285325050354
1761315728235342000,6.865342041015625,-0.16439427435398102,-1.501309871673584,-2.1769068241119385
1761315728254264600,6.8842646484375,-0.29083964228630066,-0.8067765235900879,-2.4597291946411133
1761315728273187000,6.90318701171875,-0.38246673345565796,-0.051769305020570755,-2.4627833366394043
1761315728292109800,6.92210986328125,-0.3897969126701355,0.5664844512939453,-2.3192343711853027
1761315728311032300,6.9410322265625,-0.3335989713668823,1.003851056098938,-2.0614566802978516
1761315728329954800,6.959954833984375,-0.3470376133918762,1.2139825820922852,-1.7670284509658813
1761315728348877300,6.978877197265625,-0.3659738600254059,1.19932222366333,-1.3057624101638794
1761315728367799800,6.9977998046875,-0.29450473189353943,0.8138776421546936,-0.5544202327728271
1761315728386722300,7.016722412109375,-0.12224581092596054,-0.013896775431931019,0.4901285767555237
1761315728405645000,7.03564501953125,0.1477486789226532,-0.6339067220687866,1.1651911735534668
1761315728424567600,7.054567626953125,0.2015032321214676,-0.4274403750896454,0.9617026448249817
1761315728443490000,7.073489990234375,0.19478392601013184,-0.005344913341104984,0.36062896251678467
1761315728462412500,7.09241259765625,0.26930728554725647,0.4161396920681,-0.20257222652435303
1761315728481335000,7.1113349609375,0.3707079291343689,0.8340355753898621,-0.38277217745780945
1761315728500257500,7.130257568359375,0.4782170355319977,1.190159559249878,-0.232503741979599
1761315728519180000,7.149179931640625,0.5136461853981018,1.6409647464752197,0.20364120602607727
1761315728538102500,7.1681025390625,0.4916556775569916,1.7454197406768799,0.8743515014648438
1761315728557025300,7.187025390625,0.4201865494251251,1.3447039127349854,1.9256960153579712
1761315728575947800,7.20594775390625,0.226547971367836,1.1364049911499023,3.0007872581481934
1761315728594870300,7.224870361328125,-0.03061871975660324,1.653181791305542,2.8645682334899902
1761315728613792800,7.243792724609375,-0.047111593186855316,1.4943615198135376,1.4492350816726685
1761315728632715300,7.26271533203125,0.4733302593231201,0.072232685983181,1.9763963222503662
1761315728651637800,7.2816376953125,0.32428354024887085,-1.6625735759735107,3.9018633365631104
1761315728670560300,7.300560302734375,0.07750124484300613,-1.274074673652649,1.6831896305084229
1761315728689483000,7.31948291015625,0.04940227046608925,1.2940036058425903,0.35329878330230713
1761315728708405500,7.338405517578125,-0.21326205134391785,0.6489488482475281,-0.28137150406837463
1761315728727328000,7.357327880859375,-0.24808034300804138,-1.436560034751892,0.017332790419459343
1761315728746250500,7.37625048828125,-0.2340308576822281,-1.1231954097747803,0.15599511563777924
1761315728765173000,7.395173095703125,0.48066043853759766,-0.34253260493278503,-0.8781692981719971
1761315728784095500,7.414095458984375,0.5081485509872437,-1.3632583618164062,-1.5459016561508179
1761315728803018000,7.43301806640625,0.19478392601013184,-2.32419753074646,-2.030914306640625
1761315728821940700,7.451940673828125,0.18317782878875732,-2.217299222946167,-2.348555088043213
1761315728840863200,7.47086328125,0.16912832856178284,-1.4750434160232544,-2.335116386413574
1761315728859785700,7.48978564453125,0.13858596980571747,-0.3339807391166687,-2.268533945083618
1761315728878708200,7.508708251953125,0.1624090075492859,0.5622085332870483,-2.129260778427124
1761315728897630700,7.527630615234375,0.19722731411457062,1.1278531551361084,-1.9490609169006348
1761315728916553200,7.54655322265625,0.14469444751739502,1.5310122966766357,-1.8525470495224
1761315728935475700,7.565475830078125,0.010308047756552696,1.8303275108337402,-1.7377077341079712
1761315728954398200,7.584398193359375,-0.1014770045876503,1.6947193145751953,-1.448089838027954
1761315728973320700,7.60332080078125,-0.13018682599067688,0.9922450184822083,-0.8879428505897522
1761315728992243500,7.622243408203125,-0.004352286923676729,0.07040014863014221,-0.1555369794368744
1761315729011166000,7.641166015625,0.19050799310207367,-0.6467345356941223,0.5481590628623962
1761315729030088400,7.66008837890625,0.14897038042545319,-1.0059127807617188,0.8493067622184753
1761315729049011000,7.679010986328125,0.03596363216638565,-1.051726222038269,0.838311493396759
1761315729067933400,7.697933349609375,-0.04100312292575836,-0.9918632507324219,0.7008708715438843
1761315729086856000,7.71685595703125,-0.027564482763409615,-0.7023216485977173,0.48035502433776855
1761315729105778700,7.73577880859375,0.2650313675403595,0.08322793990373611,0.33497336506843567
1761315729124701200,7.754701171875,0.5625139474868774,0.653835654258728,0.6251258254051208
1761315729143623700,7.773623779296875,0.5447993874549866,1.1327399015426636,1.7235054969787598
1761315729162546200,7.792546142578125,0.6810183525085449,2.786914348602295,3.3654630184173584
1761315729181468700,7.81146875,0.3963635265827179,4.1180267333984375,2.4223148822784424
1761315729200391200,7.83039111328125,0.40491536259651184,3.1161608695983887,1.5958384275436401
1761315729219313700,7.849313720703125,0.9662840366363525,-0.6797202825546265,2.0179338455200195
1761315729238236400,7.868236328125,-0.7001073360443115,-8.415719032287598,2.554868698120117
1761315729257159000,7.887158935546875,-1.177178978919983,-2.52699875831604,3.387453556060791
1761315729276081400,7.906081298828125,0.48188212513923645,2.5835020542144775,-0.34123456478118896
1761315729295004000,7.92500390625,0.6290963292121887,2.9445128440856934,-0.5238778591156006
1761315729313926400,7.943926513671875,0.24670593440532684,-0.8586985468864441,0.020997874438762665
1761315729332849000,7.962848876953125,0.1465269923210144,-3.6253020763397217,-0.4401918053627014
1761315729351771400,7.981771484375,0.23632153868675232,-4.079772472381592,-0.7877638936042786
1761315729370694000,8.00069384765625,0.4776062071323395,-2.9411532878875732,-1.654632568359375
1761315729389616400,8.019616455078125,0.5527403950691223,-1.5831633806228638,-2.3742105960845947
1761315729408539000,8.038538818359376,0.5185329914093018,-0.8532009124755859,-2.5501346588134766
1761315729427461600,8.057461669921874,0.41529977321624756,-0.10735640674829483,-2.265479803085327
1761315729446384000,8.076384033203125,0.3151208162307739,0.5267030596733093,-1.9887659549713135
1761315729465306600,8.095306640625,0.11842801421880722,0.9006179571151733,-1.8556013107299805
1761315729484229000,8.11422900390625,-0.193104088306427,1.0014077425003052,-1.7114412784576416
1761315729503151600,8.133151611328126,-0.40812233090400696,1.1205229759216309,-1.4957358837127686
1761315729522074000,8.15207421875,-0.4930301010608673,1.2665154933929443,-1.271554946899414
1761315729540996600,8.17099658203125,-0.458822637796402,1.0026293992996216,-0.8250255584716797
1761315729559919400,8.18991943359375,-0.3219928741455078,0.3434488773345947,-0.12377292662858963
1761315729578841900,8.208841796875,0.021914144977927208,-0.5257867574691772,0.7637881636619568
1761315729597764400,8.227764404296876,0.5771743059158325,-1.1097567081451416,1.4064757823944092
1761315729616686800,8.246686767578124,0.6455891728401184,-0.6650599241256714,1.1871815919876099
1761315729635609300,8.265609375,0.5203655362129211,0.3507790267467499,0.45225605368614197
1761315729654531800,8.28453173828125,0.41774317622184753,1.582323431968689,-0.21662171185016632
1761315729673454600,8.30345458984375,0.3969743549823761,2.3953611850738525,-0.26304611563682556
1761315729692377000,8.322377197265626,0.46661093831062317,2.6647448539733887,0.20486289262771606
1761315729711299600,8.341299560546876,0.5478536486625671,2.431401252746582,0.7234722375869751
1761315729730222000,8.36022216796875,0.463556706905365,1.5957621335983276,1.2641483545303345
1761315729749144600,8.37914453125,-0.36841726303100586,-1.6845639944076538,3.2304656505584717
1761315729768067000,8.398067138671875,-1.7361806631088257,-2.4176571369171143,4.358777046203613
1761315729786989600,8.416989501953125,-1.7905460596084595,0.690486490726471,2.4717934131622314
1761315729805912000,8.435912109375,-0.5247941613197327,-0.3217637836933136,3.05759596824646
1761315729824834600,8.45483447265625,-0.2865637242794037,-2.0119781494140625,3.385010004043579
1761315729843757000,8.473757080078125,0.46966519951820374,3.3941729068756104,0.842587411403656
1761315729862679800,8.4926796875,0.7720345854759216,4.1870527267456055,-0.30641624331474304
1761315729881602300,8.511602294921875,0.8263999819755554,1.7894006967544556,-0.8207496404647827
1761315729900524800,8.53052490234375,0.37559470534324646,-0.48608171939849854,-0.9710180759429932
1761315729919447300,8.549447265625,-0.22731153666973114,-4.540351390838623,-1.08646821975708
1761315729938369800,8.568369873046874,-0.14912308752536774,-5.0266618728637695,-0.8952730298042297
1761315729957292300,8.587292236328125,0.4721085727214813,-2.4390368461608887,-1.8293348550796509
1761315729976214800,8.60621484375,0.5881695747375488,-1.1256388425827026,-2.8274593353271484
1761315729995137500,8.625137451171875,0.29496288299560547,-0.7243121266365051,-2.903815269470215
1761315730014060000,8.64406005859375,0.09704835712909698,-0.009009997360408306,-2.6136627197265625
1761315730032982500,8.662982421875,0.1727934181690216,0.3507790267467499,-2.4627833366394043
1761315730051905000,8.681905029296875,0.21616357564926147,0.5451048016548157,-2.4713354110717773
1761315730070827500,8.70082763671875,0.22899135947227478,0.9348253607749939,-2.484773874282837
1761315730089750000,8.71975,0.2674747407436371,1.2261995077133179,-2.325342893600464
1761315730108672500,8.738672607421876,0.24609509110450745,1.1938246488571167,-1.9796032905578613
1761315730127595000,8.757594970703124,0.21616357564926147,0.6965949535369873,-1.307594895362854
1761315730146517800,8.776517822265625,0.5050943493843079,-0.6198572516441345,0.12606360018253326
1761315730165440300,8.795440185546875,0.4843255281448364,-2.2539501190185547,1.5940059423446655
1761315730184362800,8.81436279296875,0.12636902928352356,-3.58009934425354,2.5408191680908203
1761315730203285200,8.83328515625,-0.35925453901290894,-3.80244779586792,2.6916985511779785
1761315730222207700,8.852207763671874,-0.6933879852294922,-1.819561243057251,1.9739528894424438
1761315730241130200,8.871130126953124,-0.7178218960762024,1.4265574216842651,0.9604809880256653
1761315730260052700,8.890052734375,-0.49974942207336426,3.9787535667419434,0.35268792510032654
1761315730278975500,8.9089755859375,-0.2309766262769699,5.42157506942749,-0.02053973823785782
1761315730297898000,8.92789794921875,0.01885990984737873,5.996458530426025,-0.03214583545923233
1761315730316820500,8.946820556640626,0.24914932250976562,5.002533435821533,0.7430193424224854
1761315730335743000,8.965742919921874,0.5020400881767273,2.1058194637298584,2.3154165744781494
1761315730354665500,8.98466552734375,0.1752368062734604,-1.3125580549240112,3.514509677886963
1761315730373588000,9.003587890625,-0.9114604592323303,-3.9392776489257812,3.442429780960083
1761315730392510500,9.022510498046875,-1.1124292612075806,-5.558710098266602,2.345958948135376
1761315730411433000,9.041432861328126,-1.2718603610992432,-1.8867545127868652,2.1859169006347656
1761315730430355500,9.06035546875,-0.22670069336891174,2.4497265815734863,0.27266693115234375
1761315730449278000,9.07927783203125,0.23082390427589417,1.7197641134262085,-0.8201388120651245
1761315730468200700,9.09820068359375,0.10437852889299393,0.71369868516922,-0.6118398904800415
1761315730487123200,9.117123291015625,0.1483595222234726,-0.3828485310077667,-0.8806126713752747
1761315730506045700,9.136045654296876,0.3963635265827179,-0.8202151656150818,-1.3356938362121582
1761315730524968200,9.15496826171875,0.4342360496520996,-1.566670536994934,-1.5262782573699951
1761315730543890700,9.173890625,0.4916556775569916,-2.4243764877319336,-1.7945165634155273
1761315730562813200,9.192813232421875,0.5643464922904968,-2.825092315673828,-2.0932209491729736
1761315730581735700,9.211735595703125,0.5704549551010132,-2.4555296897888184,-2.3296186923980713
1761315730600658200,9.230658203125,0.4916556775569916,-1.2026054859161377,-2.3363380432128906
1761315730619581000,9.249580810546876,0.4256841838359833,0.01175880990922451,-2.2575387954711914
1761315730638503400,9.26850341796875,0.3077906668186188,0.6837671399116516,-2.152472972869873
1761315730657426000,9.287426025390625,0.11354123055934906,0.9995751976966858,-1.9527260065078735
1761315730676348400,9.306348388671875,-0.07032378762960434,1.1162470579147339,-1.7102196216583252
1761315730695271000,9.32527099609375,-0.21631628274917603,1.069211721420288,-1.4218233823776245
1761315730714193400,9.344193359375,-0.21081866323947906,0.5646519064903259,-0.7700493335723877
1761315730733116000,9.363115966796874,-0.05810684710741043,-0.5428904891014099,0.37467843294143677
1761315730752038700,9.38203857421875,-0.11247225105762482,-1.2869024276733398,0.9971317648887634
1761315730770961200,9.400961181640625,-0.17233528196811676,-1.5355173349380493,0.9421555399894714
1761315730789883600,9.419883544921875,-0.10636378079652786,-1.2966760396957397,0.4907394051551819
1761315730808806100,9.43880615234375,0.06711684167385101,-0.6247440576553345,0.16760121285915375
1761315730827728600,9.457728759765626,0.20455747842788696,0.43385425209999084,0.28793811798095703
1761315730846651100,9.476651123046874,0.17890189588069916,1.4063994884490967,0.7191963195800781
1761315730865573600,9.49557373046875,0.13980767130851746,1.7246508598327637,1.1908466815948486
1761315730884496100,9.51449609375,0.1459161341190338,1.3935716152191162,1.7351115942001343
1761315730903418600,9.533418701171875,0.010918894782662392,0.6122980117797852,2.7906556129455566
1761315730922341000,9.552341064453126,-0.4276694357395172,0.42224815487861633,4.77170991897583
1761315730941264000,9.571263916015624,-0.45027077198028564,1.9854826927185059,3.592698097229004
1761315730960186400,9.590186279296875,0.4977641701698303,1.9879260063171387,0.689875602722168
1761315730979108900,9.60910888671875,1.336533784866333,-0.12934690713882446,2.407043695449829
1761315730998031400,9.62803125,-0.7630245685577393,-1.3272184133529663,3.8786511421203613
1761315731016953900,9.646953857421876,0.11048699915409088,0.6239041090011597,1.1541959047317505
1761315731035876400,9.66587646484375,0.19356222450733185,2.3923070430755615,0.10895988345146179
1761315731054798800,9.684798828125,0.044515494257211685,0.6788803935050964,-1.164656639099121
1761315731073721300,9.703721435546875,-0.36841726303100586,-1.5110833644866943,-1.3289746046066284
1761315731092643800,9.722643798828125,-0.26212984323501587,-3.382795810699463,-1.3228660821914673
1761315731111566300,9.74156640625,0.3035147190093994,-3.17449688911438,-1.5721681118011475
1761315731130489000,9.760489013671876,0.7451573014259338,-1.750535488128662,-2.256317138671875
1761315731149411600,9.77941162109375,0.7903599739074707,-0.8929060101509094,-2.560518980026245
1761315731168334000,9.798333984375,0.6492542624473572,-0.7249229550361633,-2.325953722000122
1761315731187256600,9.817256591796875,0.4238516390323639,-0.38162681460380554,-1.936843991279602
1761315731206179000,9.836178955078125,0.227769672870636,0.07467607408761978,-1.6900616884231567
1761315731225101600,9.8551015625,-0.06849125027656555,0.4002576768398285,-1.5862176418304443
1761315731244024000,9.874024169921874,-0.18638476729393005,0.9226084351539612,-1.5165046453475952
1761315731262946600,9.892946533203125,-0.13507360219955444,1.2885059118270874,-1.4389270544052124
1761315731281869300,9.911869384765625,-0.015347537584602833,1.2628504037857056,-1.1273949146270752
1761315731300791800,9.930791748046875,0.13980767130851746,1.009348750114441,-0.5153260231018066
1761315731319714300,9.94971435546875,0.3291703164577484,0.7295807003974915,0.018554486334323883
1761315731338636800,9.96863671875,0.45683738589286804,0.3996468186378479,0.341081827878952
1761315731357559300,9.987559326171874,0.5252522826194763,0.07834116369485855,0.48402008414268494
1761315731376481800,10.006481689453125,0.37742725014686584,-0.12018419802188873,0.42965468764305115
1761315731395404300,10.025404296875,0.276637464761734,0.2835858464241028,0.29954421520233154
1761315731414326800,10.044326904296875,0.3707079291343689,1.0716551542282104,0.4375956952571869
1761315731433249300,10.063249267578126,0.4916556775569916,1.8675891160964966,0.8743515014648438
1761315731452172000,10.082172119140624,0.37620556354522705,2.2964038848876953,1.4773341417312622
1761315731471094500,10.101094482421875,-0.0293970238417387,2.2383735179901123,2.4669065475463867
1761315731490017000,10.12001708984375,-0.6909446120262146,2.8877041339874268,3.6983747482299805
1761315731508939500,10.138939453125,-1.1203702688217163,2.391695976257324,2.2091290950775146
1761315731527862000,10.157862060546876,-0.9126821756362915,2.234097480773926,1.4180818796157837
1761315731546784500,10.176784423828124,0.36093437671661377,-1.6796772480010986,2.9116034507751465
1761315731565707000,10.19570703125,0.5991647839546204,-4.968631744384766,2.2317304611206055
1761315731584629500,10.21462939453125,0.15630054473876953,-0.13423368334770203,1.4993245601654053
1761315731603552000,10.233552001953125,0.0011453386396169662,1.842544436454773,0.7796701788902283
1761315731622474500,10.252474609375,-0.11919157207012177,0.3623851239681244,0.40094485878944397
1761315731641397000,10.27139697265625,-0.14362546801567078,-2.6174042224884033,-0.15614783763885498
1761315731660319700,10.29031982421875,-0.139960378408432,-3.7053232192993164,-0.7963157296180725
1761315731679242200,10.3092421875,0.24243000149726868,-1.8103985786437988,-1.7089979648590088
1761315731698164700,10.328164794921875,0.4348468780517578,-0.7707365155220032,-2.606332540512085
1761315731717087200,10.347087158203125,0.38720080256462097,-0.6571189165115356,-2.768817901611328
1761315731736009700,10.366009765625,0.26075541973114014,-0.7872294187545776,-2.6765799522399902
1761315731754932200,10.38493212890625,0.2613662779331207,-0.47203221917152405,-2.5263116359710693
1761315731773854700,10.403854736328125,0.2912977933883667,0.014202198944985867,-2.2978546619415283
1761315731792777200,10.422777099609375,0.14347274601459503,0.32756683230400085,-2.1885130405426025
1761315731811699700,10.44169970703125,-0.05199837312102318,0.44729289412498474,-2.108492136001587
1761315731830622200,10.460622314453126,-0.15706409513950348,0.22555534541606903,-1.898971438407898
1761315731849545000,10.479544921875,-0.05077667906880379,-0.4610369801521301,-1.4242666959762573
1761315731868467500,10.498467529296875,0.2271588295698166,-1.488482117652893,-0.5519768595695496
1761315731887390000,10.517389892578125,0.45378315448760986,-2.214855909347534,0.4632512927055359
1761315731906312400,10.5363125,0.2650313675403595,-2.5337181091308594,1.3111836910247803
1761315731925235000,10.55523486328125,-0.20226679742336273,-2.3254191875457764,1.7076234817504883
1761315731944157400,10.574157470703126,-0.44782739877700806,-1.6075972318649292,1.5885082483291626
1761315731963080000,10.593079833984374,-0.3873535096645355,0.05268557742238045,1.106473445892334
1761315731982002400,10.61200244140625,-0.2828986346721649,2.1210906505584717,0.5463265180587769
1761315732000925000,10.630925048828125,-0.12224581092596054,3.9072844982147217,0.5078431367874146
1761315732019847400,10.649847412109375,0.043293800204992294,5.1680731773376465,0.7937196493148804
1761315732038770000,10.66877001953125,0.17829103767871857,5.226103782653809,1.02278733253479
1761315732057692700,10.687692626953124,0.27175068855285645,3.5138988494873047,1.1119710206985474
1761315732076615200,10.706615234375,0.2008923888206482,0.6568898558616638,1.7693190574645996
1761315732095537700,10.72553759765625,-0.15950748324394226,-1.9160751104354858,2.57685923576355
1761315732114460200,10.744460205078125,-0.05444176122546196,-3.761521100997925,2.815089702606201
1761315732133382700,10.763382568359376,0.0952158197760582,-5.2868828773498535,2.424147367477417
1761315732152305200,10.78230517578125,0.04512634128332138,-0.5428904891014099,1.460841178894043
1761315732171227600,10.8012275390625,0.6749098896980286,2.9066402912139893,-0.14698512852191925
1761315732190150100,10.820150146484375,0.27175068855285645,1.5530028343200684,-0.6875849366188049
1761315732209072600,10.83907275390625,-0.17294612526893616,-0.6931589245796204,-0.4389701187610626
1761315732227995100,10.8579951171875,-0.2450261116027832,-2.1611013412475586,-0.7926506996154785
1761315732246917600,10.876917724609376,-0.025731941685080528,-2.5141708850860596,-1.1719868183135986
1761315732265840000,10.895840087890624,0.05795413255691528,-2.3309168815612793,-1.7615307569503784
1761315732284763000,10.914762939453125,0.12514732778072357,-2.042520523071289,-2.172020196914673
1761315732303685400,10.933685302734375,0.24426254630088806,-1.385859727859497,-2.3992552757263184
1761315732322607900,10.95260791015625,0.1343100368976593,-0.41888850927352905,-2.3363380432128906
1761315732341530400,10.9715302734375,0.054899897426366806,0.37826716899871826,-2.082836389541626
1761315732360452900,10.990452880859374,0.1862320601940155,0.7888329029083252,-1.8275022506713867
1761315732379375400,11.009375244140625,0.28641101717948914,1.2231452465057373,-1.5904935598373413
1761315732398297900,11.0282978515625,0.3047364354133606,1.5352882146835327,-1.4370945692062378
1761315732417220400,11.047220458984375,0.226547971367836,1.5120760202407837,-1.2685006856918335
1761315732436142800,11.066142822265626,0.1624090075492859,1.2371947765350342,-1.0143882036209106
1761315732455065300,11.0850654296875,0.2375432252883911,0.27197974920272827,-0.21601086854934692
1761315732473987800,11.10398779296875,0.28335678577423096,-1.2355912923812866,1.116857886314392
1761315732492910300,11.122910400390625,0.03718532621860504,-2.297930955886841,1.9592925310134888
1761315732511833000,11.1418330078125,-0.25113457441329956,-1.9838792085647583,1.7638214826583862
1761315732530755600,11.160755615234375,-0.42278265953063965,-0.8409839868545532,1.0508863925933838
1761315732549678000,11.179677978515626,-0.29511559009552,0.7155312299728394,0.2897706627845764
1761315732568600600,11.1986005859375,0.1856212168931961,2.0826072692871094,-0.18669019639492035
1761315732587523000,11.217523193359375,0.36154523491859436,3.1540334224700928,-0.0877329409122467
1761315732606445600,11.236445556640625,0.36093437671661377,3.697153091430664,0.294657438993454
1761315732625368000,11.2553681640625,0.4220190942287445,3.4241042137145996,0.8083800077438354
1761315732644290600,11.27429052734375,0.5209763646125793,1.9647138118743896,2.06008243560791
1761315732663213000,11.293213134765624,-0.04405735805630684,0.0050394898280501366,3.991046905517578
1761315732682135600,11.312135498046874,-0.687890350818634,0.10582929104566574,2.0790185928344727
1761315732701058000,11.33105810546875,0.1459161341190338,-3.079204559326172,2.0875704288482666
1761315732719980500,11.34998046875,-0.09659022092819214,-5.833591461181641,3.722808599472046
1761315732738903000,11.368903076171875,-0.02023431472480297,1.3764679431915283,1.364327311515808
1761315732757825800,11.38782568359375,0.7127823829650879,4.088706016540527,-0.5855734348297119
1761315732776748300,11.406748291015624,0.07627955079078674,1.563387155532837,-0.9184852242469788
1761315732795670800,11.4256708984375,-0.3012240529060364,-1.4212888479232788,-1.2202438116073608
1761315732814593300,11.44459326171875,0.03168770298361778,-3.3033857345581055,-1.1897014379501343
1761315732833515800,11.463515869140625,0.3456631898880005,-2.6497790813446045,-1.6149274110794067
1761315732852438300,11.482438232421876,0.5674007534980774,-1.6411938667297363,-2.184237003326416
1761315732871360800,11.50136083984375,0.5044834613800049,-1.3082821369171143,-2.2208878993988037
1761315732890283300,11.520283203125,0.3200076222419739,-1.3424896001815796,-2.0522940158843994
1761315732909205800,11.539205810546875,0.04085041210055351,-0.7792884111404419,-1.8549903631210327
1761315732928128300,11.558128173828125,-0.05810684710741043,-0.004123218823224306,-1.7169389724731445
1761315732947050800,11.57705078125,-0.011682453565299511,0.6483380198478699,-1.5367389917373657
1761315732965973200,11.59597314453125,0.11048699915409088,1.2695696353912354,-1.456641674041748
1761315732984895700,11.614895751953124,0.15813308954238892,1.5200170278549194,-1.3515759706497192
1761315733003818200,11.633818359375,0.1220930963754654,1.3831872940063477,-1.1231189966201782
1761315733022740700,11.65274072265625,0.08910734206438065,0.9940775632858276,-0.7694385051727295
1761315733041663500,11.67166357421875,0.14897038042545319,0.3843756318092346,-0.22395187616348267
1761315733060586000,11.6905859375,0.35238251090049744,-0.35169529914855957,0.606800377368927
1761315733079508500,11.709508544921874,0.359712690114975,-0.8959602117538452,1.091813087463379
1761315733098431000,11.728430908203125,0.2503710091114044,-1.048672080039978,1.231162667274475
1761315733117353500,11.747353515625,0.052456509321928024,-0.27717193961143494,1.0716551542282104
1761315733136276000,11.76627587890625,-0.16011834144592285,0.7289698719978333,0.8743515014648438
1761315733155198500,11.785198486328126,-0.11613733321428299,1.0288958549499512,1.0594382286071777
1761315733174121000,11.804120849609374,0.036574479192495346,1.0001860857009888,1.5652960538864136
1761315733193043500,11.82304345703125,0.18439951539039612,0.9971317648887634,2.4687392711639404
1761315733211966000,11.841966064453125,0.17645850777626038,1.0948673486709595,4.873110294342041
1761315733230888400,11.860888427734375,-0.5260158181190491,1.5456726551055908,3.7967212200164795
1761315733249811000,11.87981103515625,-0.9536089301109314,2.52363920211792,0.1083490327000618
1761315733268733400,11.8987333984375,-0.4062897861003876,0.9507073760032654,2.73384690284729
1761315733287656000,11.917656005859374,-0.3403182923793793,-1.7419836521148682,3.292161226272583
1761315733306578400,11.936578369140625,-0.2047101855278015,-1.2392563819885254,1.300188422203064
1761315733325501000,11.9555009765625,0.62054443359375,1.8956880569458008,-0.1005607321858406
1761315733344423400,11.97442333984375,0.09277242422103882,1.5224604606628418,-1.0681427717208862
1761315733363346000,11.993345947265626,-0.0892600566148758,-0.5929799675941467,-1.387005090713501
1761315733382268700,12.0122685546875,-0.3665847182273865,-2.407883644104004,-1.349743366241455
1761315733401191200,12.031191162109375,-0.23647424578666687,-2.4738550186157227,-1.7279342412948608
1761315733420113700,12.05011376953125,0.1593547761440277,-2.03885555267334,-2.117043972015381
1761315733439036200,12.0690361328125,0.43118181824684143,-2.085279941558838,-2.2984654903411865
1761315733457958700,12.087958740234376,0.44278791546821594,-1.8433842658996582,-2.278918504714966
1761315733476881200,12.106881103515626,0.3847574293613434,-1.3803620338439941,-1.9783815145492554
1761315733495803600,12.1258037109375,0.34871742129325867,-0.7817317843437195,-1.6466914415359497
1761315733514726100,12.14472607421875,0.36521029472351074,-0.07681404054164886,-1.525667428970337
1761315733533648600,12.163648681640625,0.27297237515449524,0.3226800560951233,-1.5165046453475952
1761315733552571100,12.182571044921875,0.14530529081821442,0.5469373464584351,-1.4138823747634888
1761315733571493600,12.20149365234375,0.07933378964662552,0.5041016936302185,-1.1970316171646118
1761315733590416100,12.220416015625,0.14897038042545319,0.16691401600837708,-0.8470160961151123
1761315733609338600,12.239338623046875,0.3725404739379883,-0.3730749487876892,-0.2196759432554245
1761315733628261000,12.25826123046875,0.593056321144104,-0.7664605975151062,0.31053948402404785
1761315733647183600,12.27718359375,0.5692332983016968,-0.6216897964477539,0.3282540440559387
1761315733666106400,12.2961064453125,0.3328354060649872,-0.16599774360656738,-0.00038177953683771193
1761315733685028900,12.31502880859375,0.0695602297782898,0.3837648034095764,-0.2575484812259674
1761315733703951400,12.333951416015625,-0.13385190069675446,0.8566369414329529,-0.17508409917354584
1761315733722873900,12.352873779296875,-0.14973393082618713,1.184661865234375,0.42782214283943176
1761315733741796400,12.37179638671875,0.02802261710166931,1.2341405153274536,1.6477605104446411
1761315733760718800,12.39071875,-0.02695363573729992,0.7711182832717896,3.7936668395996094
1761315733779641300,12.409641357421876,-0.9554414749145508,1.6733397245407104,6.045326232910156
1761315733798563800,12.428563720703124,-1.89500093460083,-0.946049690246582,3.0643153190612793
1761315733817486300,12.447486328125,-0.1949366331100464,-1.491536259651184,1.2696460485458374
1761315733836408800,12.466408935546875,0.8544989824295044,2.8644919395446777,2.2671597003936768
1761315733855331300,12.485331298828125,0.666968822479248,3.6152994632720947,1.4168602228164673
1761315733874253800,12.50425390625,0.3670428395271301,1.0576056241989136,0.5487698912620544
1761315733893176300,12.52317626953125,0.1086544543504715,0.34100547432899475,0.4638621509075165
1761315733912098800,12.542098876953125,0.1605764776468277,-0.7053758502006531,0.36062896251678467
1761315733931021300,12.561021240234375,-0.044668205082416534,-1.8983606100082397,-0.20196136832237244
1761315733949943800,12.57994384765625,-0.1417929232120514,-2.1989738941192627,-0.6014555096626282
1761315733968866300,12.5988662109375,-0.1417929232120514,-1.796349048614502,-0.8176954388618469
1761315733987788800,12.617788818359376,-0.013514995574951172,-1.333937644958496,-1.109069585800171
1761315734006711300,12.636711181640624,0.0561215914785862,-0.8623636364936829,-1.3894484043121338
1761315734025633800,12.6556337890625,0.0420721061527729,-0.7175928354263306,-1.5018442869186401
1761315734044556300,12.674556396484375,0.0946049690246582,-0.9662076234817505,-1.4407596588134766
1761315734063478800,12.693478759765625,0.19600561261177063,-1.0608890056610107,-1.3821182250976562
1761315734082401300,12.7124013671875,0.1336991935968399,-0.89107346534729,-1.4761887788772583
1761315734101323800,12.73132373046875,0.11170869320631027,-0.9326110482215881,-1.530554175376892
1761315734120246500,12.75024658203125,0.24304085969924927,-0.8861866593360901,-1.3882267475128174
1761315734139169000,12.7691689453125,0.3835357129573822,-0.5428904891014099,-1.1426661014556885
1761315734158091500,12.788091552734375,0.5234197378158569,0.1113269105553627,-0.8439618349075317
1761315734177014000,12.807013916015626,0.5435777306556702,0.7967739105224609,-0.6991910338401794
1761315734195936500,12.8259365234375,0.45683738589286804,0.9690328240394592,-0.6405497193336487
1761315734214859000,12.84485888671875,0.36521029472351074,0.5041016936302185,-0.5855734348297119
1761315734233781500,12.863781494140625,0.31328830122947693,-0.6308525204658508,-0.6210026144981384
1761315734252704000,12.8827041015625,0.08971819281578064,-2.0895557403564453,-0.6460473537445068
1761315734271626500,12.90162646484375,-0.22364644706249237,-2.7572882175445557,-0.6161158084869385
1761315734290549000,12.920549072265626,-0.33054471015930176,-2.1690423488616943,-0.6301652789115906
1761315734309471500,12.939471435546874,-0.10636378079652786,-0.7383615970611572,-0.5629721283912659
1761315734328394000,12.95839404296875,-0.034283801913261414,0.60252445936203,-0.31741151213645935
1761315734347316500,12.97731640625,-0.07398887723684311,1.4748142957687378,0.16760121285915375
1761315734366239000,12.996239013671875,0.21555273234844208,1.9115701913833618,0.5212817788124084
1761315734385161500,13.015161376953126,0.3578801453113556,2.141859531402588,0.6245149374008179
1761315734404084000,13.034083984375,0.3584909737110138,1.9928128719329834,0.45225605368614197
1761315734423006500,13.05300634765625,0.253425270318985,0.8859575986862183,0.0680331140756607
1761315734441929000,13.071928955078125,0.19661645591259003,-0.14706148207187653,-0.08162446320056915
1761315734460851500,13.0908515625,0.06345175951719284,-0.7664605975151062,-0.19646374881267548
1761315734479774000,13.10977392578125,0.011529741808772087,-1.333937644958496,-0.43469417095184326
1761315734498696400,13.128696533203126,0.1086544543504715,-1.8598772287368774,-0.8121978044509888
1761315734517619000,13.147618896484374,0.6077166795730591,-2.2356245517730713,-1.247120976448059
1761315734536541400,13.16654150390625,0.04634803533554077,-1.6540216207504272,-0.9349780678749084
1761315734555464000,13.1854638671875,-0.6756734251976013,-1.0193513631820679,-0.43835926055908203
1761315734574386400,13.204386474609375,-1.0592855215072632,-0.6705575585365295,0.024662958458065987
1761315734593309200,13.22330908203125,-0.6335249543190002,-0.03771981969475746,0.46691638231277466
1761315734612231700,13.242231689453124,-0.0892600566148758,1.4326659440994263,0.5951942801475525
1761315734631154200,13.261154296875,-0.139960378408432,2.6152660846710205,0.7698966264724731
1761315734650076700,13.28007666015625,-0.2706816792488098,3.152200937271118,0.9934667348861694
1761315734668999200,13.298999267578125,-0.28961795568466187,3.312319278717041,1.1241880655288696
1761315734687921700,13.317921630859376,-0.03978142887353897,3.26345157623291,0.9238301515579224
1761315734706844200,13.33684423828125,-0.03855973482131958,2.3697056770324707,0.5799230933189392
1761315734725766700,13.3557666015625,-0.31893861293792725,0.815710186958313,0.3716242015361786
1761315734744689200,13.374689208984375,-0.17294612526893616,0.1253764033317566,-0.027259059250354767
1761315734763611600,13.393611572265625,-0.10758547484874725,0.001985253533348441,-0.13598987460136414
1761315734782534100,13.4125341796875,-0.37086063623428345,-0.8226585388183594,0.20425204932689667
1761315734801456600,13.43145654296875,-0.5840463638305664,-1.5911043882369995,0.5805339813232422
1761315734820379100,13.450379150390624,-0.5651100873947144,-1.9130208492279053,0.6886539459228516
1761315734839301600,13.469301513671875,-0.26701661944389343,-1.7700825929641724,0.5860316157341003
1761315734858224000,13.48822412109375,0.250981867313385,-1.2081031799316406,0.24151372909545898
1761315734877146600,13.507146728515625,0.6651363372802734,-0.5086830258369446,-0.2984752357006073
1761315734896069000,13.526069091796876,0.9161945581436157,-0.13240113854408264,-1.1072369813919067
1761315734914991600,13.54499169921875,0.9284114837646484,-1.070662498474121,-2.096885919570923
1761315734933914000,13.5639140625,0.2503710091114044,-2.9368772506713867,-1.6980026960372925
1761315734952836600,13.582836669921875,-0.35681116580963135,-4.32227897644043,-0.4805077314376831
1761315734971759000,13.601759033203125,-0.5382328033447266,-1.616760015487671,0.4791333079338074
1761315734990681600,13.620681640625,-0.40140300989151,1.278732419013977,0.36123979091644287
1761315735009604000,13.63960400390625,0.18134528398513794,3.2494020462036133,0.3050418496131897
1761315735028526600,13.658526611328124,0.4256841838359833,4.16628360748291,0.2751103341579437
1761315735047449000,13.677448974609375,0.7976901531219482,4.013571739196777,0.3270323574542999
1761315735066371800,13.696371826171875,0.954067051410675,3.2964372634887695,0.341081827878952
1761315735085294300,13.71529443359375,1.0695935487747192,2.0569517612457275,0.022219568490982056
1761315735104216800,13.734216796875,0.9100860357284546,1.5658305883407593,-0.31985488533973694
1761315735123139300,13.753139404296874,0.8257891535758972,1.5395641326904297,-0.366279274225235
1761315735142061800,13.772061767578125,1.0420290231704712,2.292738914489746,0.35207709670066833
1761315735160984300,13.790984375,1.3389772176742554,2.8034071922302246,0.6324560046195984
1761315735179906800,13.80990673828125,1.4092246294021606,2.8461663722991943,0.5420506000518799
1761315735198829300,13.828829345703125,1.2375766038894653,2.4698846340179443,0.9763630032539368
1761315735217751800,13.847751708984376,0.828843355178833,1.333708643913269,1.2091721296310425
1761315735236674300,13.86667431640625,0.5331932902336121,0.5945834517478943,0.7863894701004028
1761315735255596800,13.8855966796875,0.8355627059936523,1.7075471878051758,-0.0064902519807219505
1761315735274519300,13.904519287109375,1.2821683883666992,2.335498094558716,-0.3998758792877197
1761315735293441800,13.92344189453125,1.812383770942688,0.7778376340866089,0.19753272831439972
1761315735312364300,13.9423642578125,1.4831371307373047,-0.2973299026489258,1.3386718034744263
1761315735331286800,13.961286865234374,1.077534556388855,0.1779092699289322,1.5921733379364014
1761315735350209300,13.980209228515625,0.7030088305473328,1.121133804321289,1.0490537881851196
1761315735369131800,13.9991318359375,0.4598916172981262,1.565219759941101,0.4259895980358124
1761315735388054300,14.01805419921875,-0.03367295488715172,1.4876421689987183,0.2506764531135559
1761315735406976800,14.036976806640626,-0.22792237997055054,0.791887104511261,0.08391514420509338
1761315735425899300,14.055899169921876,0.22288289666175842,0.2658712565898895,0.00022906772210262716
1761315735444821800,14.07482177734375,0.6278746128082275,-0.20997874438762665,-0.2056264579296112
1761315735463744300,14.093744140625,1.1685508489608765,0.05024218559265137,-0.8256364464759827
1761315735482666800,14.112666748046875,1.6358489990234375,0.32573428750038147,-0.8909971117973328
1761315735501589200,14.13158935546875,1.7598509788513184,0.056961506605148315,-0.3998758792877197
1761315735520511700,14.15051171875,1.433658480644226,0.20539739727973938,0.32275640964508057
1761315735539434500,14.1694345703125,0.8557206392288208,0.6110763549804688,0.8352572917938232
1761315735558357000,14.18835693359375,0.14041851460933685,0.6043570041656494,1.294690728187561
1761315735577279500,14.207279541015625,-0.2828986346721649,0.44423866271972656,1.3007992506027222
1761315735596202000,14.226201904296875,-0.38491013646125793,0.6110763549804688,0.9336037039756775
1761315735615124500,14.24512451171875,-0.3500918447971344,0.8175426721572876,0.5774797201156616
1761315735634047000,14.264046875,-0.09659022092819214,0.45889899134635925,0.5664844512939453
1761315735652969500,14.282969482421874,0.06406260281801224,0.6000810861587524,0.5163949728012085
1761315735671892000,14.30189208984375,0.15446799993515015,1.0631033182144165,0.4107184112071991
1761315735690814500,14.320814453125,0.12514732778072357,0.9061155319213867,0.6263474822044373
1761315735709737000,14.339737060546875,0.03718532621860504,0.6446729302406311,0.862134575843811
1761315735728659500,14.358659423828126,-0.06055023521184921,0.5071559548377991,1.0172897577285767
1761315735747582000,14.37758203125,0.09399411827325821,0.768674910068512,0.92138671875
1761315735766504400,14.39650439453125,0.3145099878311157,0.847474217414856,0.8089908361434937
1761315735785427000,14.415427001953125,0.2906869351863861,0.60741126537323,0.6721610426902771
1761315735804349400,14.434349365234375,0.2515927255153656,0.3855973184108734,0.49868044257164
1761315735823272000,14.45327197265625,0.22288289666175842,0.30130040645599365,0.45531028509140015
1761315735842194400,14.4721943359375,0.17706935107707977,0.3507790267467499,0.5597651600837708
1761315735861117000,14.491116943359375,0.2546469569206238,0.32817769050598145,0.5029563903808594
1761315735880039400,14.510039306640625,0.24792763590812683,0.21822518110275269,0.37651097774505615
1761315735898962000,14.5289619140625,0.14530529081821442,-0.37735089659690857,0.6092438101768494
1761315735917884400,14.547884521484375,-0.012904148548841476,-0.016340164467692375,0.6239041090011597
1761315735936807200,14.56680712890625,0.010918894782662392,0.05207473039627075,0.5408288836479187
1761315735955729700,14.585729736328124,0.012751436792314053,-0.0847550556063652,0.4479801058769226
1761315735974652200,14.604652099609375,0.024968381971120834,-0.14522893726825714,0.33986014127731323
1761315735993574700,14.62357470703125,0.05673243850469589,-0.09208522737026215,0.30992862582206726
1761315736012497200,14.6424970703125,0.13736428320407867,0.023975754156708717,0.36246147751808167
1761315736031419600,14.661419677734376,0.1074327602982521,0.0594048947095871,0.2812187969684601
1761315736050342100,14.680342041015624,0.04940227046608925,-0.0035123717971146107,0.16332527995109558
1761315736069264600,14.6992646484375,0.005421269219368696,-0.03649812191724777,0.10040801763534546
1761315736088187100,14.718187255859375,-0.014125842601060867,-0.04199574887752533,0.0558161698281765
1761315736107109600,14.737109619140625,-0.0165692325681448,-0.04016320779919624,0.024662958458065987
1761315736126032100,14.7560322265625,-0.01779092662036419,-0.026724567636847496,0.0051158457063138485
1761315736144954600,14.77495458984375,-0.015958385542035103,-0.013285927474498749,-0.0028251686599105597
1761315736163877000,14.793877197265624,-0.009239064529538155,0.017867282032966614,0.0051158457063138485
1761315736182799600,14.812799560546875,-0.004352286923676729,0.04046862944960594,0.005726693198084831
1761315736201722000,14.83172216796875,-0.008017370477318764,0.04474456235766411,0.004504998680204153
1761315736220644600,14.85064453125,-0.009239064529538155,0.03436015918850899,-0.0028251686599105597
1761315736239567000,14.869567138671876,-0.011071606539189816,-0.005344913341104984,-0.015042114071547985
1761315736258489600,14.888489501953124,-0.012904148548841476,-0.02733541466295719,-0.02298312820494175
1761315736277412000,14.907412109375,-0.008017370477318764,-0.030389651656150818,-0.026037365198135376
1761315736296334600,14.92633447265625,0.004810422193259001,-0.009620844386518002,-0.02176143415272236
1761315736315257300,14.94525732421875,0.02008160389959812,-0.004734066314995289,-0.00038177953683771193
1761315736334179800,14.964179931640626,0.028633465990424156,-0.0022906772792339325,0.013667707331478596
1761315736353102300,14.983102294921874,0.031076854094862938,-0.012675080448389053,0.002672456670552492
1761315736372024800,15.00202490234375,0.03290939703583717,-0.029167955741286278,-0.0009926267666742206
1761315736390947300,15.020947265625,0.03596363216638565,-0.0261137206107378,0.0051158457063138485
1761315736409869800,15.039869873046875,0.034131091088056564,-0.004123218823224306,0.01794363744556904
1761315736428792300,15.058792236328125,0.031076854094862938,0.01847812905907631,0.0295497365295887
1761315736447714800,15.07771484375,0.034131091088056564,0.10399674624204636,0.08941277116537094
1761315736466637300,15.09663720703125,0.04756972938776016,0.21944688260555267,0.15477342903614044
1761315736485559800,15.115559814453125,0.03901786729693413,0.027029991149902344,-0.008933641016483307
1761315736504482300,15.134482421875,0.010918894782662392,-0.15378080308437347,-0.06635328382253647
1761315736523404800,15.15340478515625,0.021303297951817513,-0.0719272643327713,-0.01626380905508995
1761315736542327300,15.172327392578126,0.024968381971120834,0.014202198944985867,-0.0034360159188508987
