time,seconds_elapsed,z,y,x
1761399388250519800,0.093519775390625,0.019097011536359787,0.1447305679321289,-0.7454619407653809
1761399388270657500,0.113657470703125,0.04330990090966225,0.13249492645263672,-0.7916691303253174
1761399388290818600,0.133818603515625,0.07686856389045715,0.12392902374267578,-0.843624472618103
1761399388310975000,0.15397509765625,0.08465032279491425,0.21123600006103516,-0.8942227959632874
1761399388331139800,0.174139892578125,0.08610594272613525,0.22851848602294922,-0.9139549136161804
1761399388351317000,0.19431689453125,0.05250345543026924,0.17116260528564453,-0.8906489014625549
1761399388371489500,0.214489501953125,0.04238499701023102,0.15482139587402344,-0.7901017665863037
1761399388391650600,0.234650634765625,-0.002072446048259735,0.12065696716308594,-0.7227195501327515
1761399388411818800,0.25481884765625,-0.016081489622592926,0.09261512756347656,-0.7784355878829956
1761399388431960800,0.2749609375,0.09000437706708908,0.15235519409179688,-0.7644225358963013
1761399388452132000,0.295132080078125,0.22773173451423645,0.16025638580322266,-0.7848724722862244
1761399388472294400,0.31529443359375,0.2916167080402374,0.10950660705566406,-0.9158395528793335
1761399388492446500,0.335446533203125,0.23636338114738464,0.0679006576538086,-1.0900380611419678
1761399388512618500,0.355618408203125,0.18855592608451843,0.07925033569335938,-1.1765283346176147
1761399388532741000,0.3757412109375,0.24149322509765625,0.1159067153930664,-1.1546895503997803
1761399388552941300,0.39594140625,0.33205336332321167,-0.006114959716796875,-1.1007955074310303
1761399388573090000,0.416090087890625,0.4310617744922638,-0.06658458709716797,-0.9798583388328552
1761399388593251000,0.4362509765625,0.48354750871658325,-0.11054039001464844,-0.9892876148223877
1761399388613413000,0.4564130859375,0.5782736539840698,-0.06525993347167969,-1.05029296875
1761399388633575200,0.4765751953125,0.7807155847549438,-0.023550987243652344,-1.053454875946045
1761399388653736200,0.496736083984375,1.1842683553695679,-0.06653404235839844,-1.0820523500442505
1761399388673897000,0.51689697265625,1.8636484146118164,-0.18777942657470703,-1.116472840309143
1761399388694071800,0.53707177734375,2.6872596740722656,-0.6970043182373047,-1.1467605829238892
1761399388714232300,0.557232421875,2.4933605194091797,-1.326690673828125,-1.436668872833252
1761399388734381000,0.577381103515625,1.1536036729812622,-0.741663932800293,-1.5856902599334717
1761399388754555000,0.597554931640625,-0.35385167598724365,0.38303661346435547,-1.7789673805236816
1761399388774716400,0.61771630859375,0.683358907699585,0.5351028442382812,-0.8951940536499023
1761399388794865200,0.637865234375,0.9016454219818115,0.2386178970336914,-0.44106578826904297
1761399388815026000,0.65802587890625,-1.1641080379486084,0.7258825302124023,-0.14594793319702148
1761399388835201000,0.678200927734375,-1.7831974029541016,0.5492372512817383,-0.7002964019775391
1761399388855349000,0.698348876953125,-0.8539454936981201,0.16270923614501953,-0.14102673530578613
1761399388875521800,0.718521728515625,-0.12888765335083008,0.5909595489501953,1.036393404006958
1761399388895672300,0.73867236328125,-0.0721588134765625,0.6737632751464844,1.9097859859466553
1761399388915839000,0.7588388671875,-0.2816195487976074,1.0265941619873047,1.7433090209960938
1761399388936007400,0.77900732421875,-0.179976224899292,1.4792900085449219,1.2667360305786133
1761399388956168200,0.799168212890625,0.2882730960845947,1.2890081405639648,1.3275821208953857
1761399388976306200,0.81930615234375,0.6277134418487549,1.1521987915039062,0.6838595867156982
1761399388996472600,0.83947265625,0.8072500228881836,1.295999526977539,0.5865697860717773
1761399389016652500,0.859652587890625,1.0844736099243164,1.6230034828186035,0.4332714080810547
1761399389036799200,0.87979931640625,1.279982566833496,1.4767656326293945,0.14835333824157715
1761399389056962800,0.899962890625,1.6707091331481934,1.5021305084228516,0.04515480995178223
1761399389077124000,0.9201240234375,1.7972989082336426,1.1399035453796387,-0.1799454689025879
1761399389097297700,0.940297607421875,1.9197661876678467,0.48003387451171875,-0.4259493350982666
1761399389117464300,0.96046435546875,1.8455359935760498,-0.046874046325683594,-0.8078320026397705
1761399389137620700,0.980620849609375,1.947011947631836,-0.46056270599365234,-1.3530759811401367
1761399389157782000,1.000781982421875,1.9775049686431885,-0.46784305572509766,-1.7900910377502441
1761399389177923000,1.020923095703125,2.6940596103668213,-0.07945823669433594,-1.39640212059021
1761399389198092300,1.04109228515625,3.057459831237793,-1.2137832641601562,-0.9687836170196533
1761399389218266000,1.06126611328125,2.5033037662506104,-3.459092140197754,-0.7515804767608643
1761399389238426600,1.081426513671875,1.3232917785644531,-1.883305549621582,0.10145950317382812
1761399389258586600,1.101586669921875,-1.750532627105713,1.6761503219604492,2.821869373321533
1761399389278750000,1.12175,-0.6423685550689697,2.48299503326416,5.3499908447265625
1761399389298909700,1.14190966796875,-2.0662105083465576,1.1821298599243164,4.397914886474609
1761399389319056000,1.162055908203125,-3.296482801437378,-1.4914779663085938,1.028545618057251
1761399389339234800,1.18223486328125,-3.9342873096466064,-4.123641014099121,-2.4671361446380615
1761399389359386600,1.20238671875,-3.0015647411346436,-1.4934053421020508,-2.198911190032959
1761399389379557000,1.22255712890625,-1.7215632200241089,0.7388849258422852,-0.3028879165649414
1761399389399710700,1.242710693359375,-0.8934769034385681,0.5707426071166992,1.3723716735839844
1761399389419877600,1.262877685546875,-0.5724128484725952,-0.25623130798339844,1.0259733200073242
1761399389440041500,1.28304150390625,-0.9373701810836792,-0.3363666534423828,0.6483571529388428
1761399389460202200,1.3032021484375,-0.9521052837371826,0.2675294876098633,0.5164120197296143
1761399389480363500,1.323363525390625,-0.5843439102172852,0.6973123550415039,0.35547566413879395
1761399389500524300,1.343524169921875,-0.4355838894844055,0.8267593383789062,0.21973061561584473
1761399389520672800,1.3636728515625,-0.46767422556877136,1.166914939880371,-0.05128908157348633
1761399389540848000,1.38384814453125,-0.2593066096305847,1.1546716690063477,-0.8191843032836914
1761399389561005600,1.404005615234375,0.4642319679260254,0.7697124481201172,-1.1154305934906006
1761399389581154600,1.424154541015625,1.127057671546936,0.661677360534668,-0.7775189876556396
1761399389601319200,1.444319091796875,0.7381109595298767,0.6886672973632812,-0.6921387910842896
1761399389621489400,1.464489501953125,-0.11628660559654236,1.1664085388183594,-1.4857326745986938
1761399389641629400,1.48462939453125,-0.678709089756012,1.320582389831543,-2.277574062347412
1761399389661815800,1.50481591796875,-0.3711111843585968,0.8049831390380859,-2.214747905731201
1761399389681973000,1.524972900390625,0.27347826957702637,0.34869956970214844,-1.2412440776824951
1761399389702138400,1.545138427734375,1.0860087871551514,-0.18137264251708984,-0.8208028078079224
1761399389722305000,1.565304931640625,1.1330952644348145,-0.4860858917236328,-1.8008105754852295
1761399389742454800,1.585454833984375,0.39837968349456787,-0.782862663269043,-1.936781883239746
1761399389762622700,1.605622802734375,0.2777940630912781,-1.7061290740966797,-1.6559542417526245
1761399389782777600,1.625777587890625,0.6049973964691162,-1.841287612915039,-1.9379541873931885
1761399389802939400,1.645939453125,0.49264949560165405,-1.5752439498901367,-3.022696018218994
1761399389823094300,1.66609423828125,0.4611492156982422,-1.0826549530029297,-5.031674385070801
1761399389843255600,1.686255615234375,0.3806556463241577,-0.18544960021972656,-6.176605224609375
1761399389863429600,1.7064296875,0.47986525297164917,-0.1947612762451172,-5.447205543518066
1761399389883588600,1.726588623046875,0.9280954003334045,-0.6478643417358398,-1.707509160041809
1761399389903748000,1.746748046875,2.260157823562622,-2.613253593444824,1.4507904052734375
1761399389923902000,1.76690185546875,1.048487901687622,-4.462043762207031,3.414961338043213
1761399389944073000,1.787072998046875,-1.4953691959381104,-4.173399925231934,4.347864151000977
1761399389964236500,1.807236572265625,-2.2326550483703613,-2.585092544555664,3.230109691619873
1761399389984397000,1.82739697265625,-1.720676064491272,-2.2015275955200195,0.3872075080871582
1761399390004544500,1.84754443359375,-1.3361742496490479,-2.757767677307129,-0.9649345874786377
1761399390024721000,1.867720947265625,-1.1747207641601562,-1.5876483917236328,-1.0321576595306396
1761399390044881700,1.887881591796875,-1.7392892837524414,0.012605667114257812,-0.1741187572479248
1761399390065027600,1.908027587890625,-2.1507225036621094,0.5555953979492188,1.5582926273345947
1761399390085192000,1.92819189453125,-2.8638899326324463,1.07346773147583,2.5251224040985107
1761399390105362400,1.948362548828125,-3.453843593597412,0.9925251007080078,3.6055383682250977
1761399390125525500,1.968525390625,-3.467007637023926,1.5803422927856445,3.9126477241516113
1761399390145687600,1.9886875,-2.403604030609131,1.714670181274414,4.315728187561035
1761399390165849900,2.008849853515625,-1.8646405935287476,1.80916166305542,4.69310188293457
1761399390186003700,2.029003662109375,-2.0098257064819336,1.6054134368896484,5.266801834106445
1761399390206171000,2.0491708984375,-2.116307258605957,2.5125041007995605,4.528199195861816
1761399390226334200,2.069334228515625,-1.816983938217163,3.521578788757324,4.612459182739258
1761399390246495200,2.0894951171875,-0.6238553524017334,3.8037452697753906,4.053630828857422
1761399390266642700,2.109642578125,1.6312487125396729,1.9116864204406738,2.541358709335327
1761399390286818300,2.129818359375,3.6333696842193604,-1.2559022903442383,0.2660706043243408
1761399390306970000,2.14997021484375,2.4004456996917725,-5.229034423828125,-3.097991466522217
1761399390327149800,2.17014990234375,2.77229642868042,-5.952696800231934,-4.473085880279541
1761399390347302400,2.190302490234375,3.255976915359497,-2.2591781616210938,-2.7128570079803467
1761399390367463400,2.21046337890625,2.286834955215454,0.8392157554626465,-1.3785066604614258
1761399390387612200,2.230612060546875,2.2983412742614746,3.876312732696533,-1.179720401763916
1761399390407774000,2.25077392578125,1.401874303817749,-0.3145761489868164,-1.6268343925476074
1761399390427943400,2.270943359375,0.3548002243041992,-7.909297943115234,-0.21355581283569336
1761399390448115700,2.29111572265625,-2.8587145805358887,-5.528053283691406,2.668508529663086
1761399390468261000,2.31126123046875,0.861241340637207,0.5055150985717773,4.338878154754639
1761399390488432400,2.331432373046875,-2.2506229877471924,4.227609634399414,5.029160022735596
1761399390508593000,2.351593017578125,-4.590190887451172,3.6229324340820312,5.169938087463379
1761399390528742400,2.371742431640625,-5.146056175231934,-1.8816947937011719,2.267571210861206
1761399390548916500,2.39191650390625,-4.395715713500977,-5.871042251586914,-1.1936111450195312
1761399390569077500,2.412077392578125,-1.4439265727996826,-1.6695528030395508,-0.8077919483184814
1761399390589238500,2.432238525390625,-1.5231060981750488,0.7168703079223633,0.8448855876922607
1761399390609400300,2.452400390625,-0.9518892765045166,-0.08132171630859375,2.2240090370178223
1761399390629561900,2.472561767578125,-1.1789228916168213,-0.48435211181640625,2.1529059410095215
1761399390649710000,2.4927099609375,-1.0467967987060547,-0.05518913269042969,2.0703320503234863
1761399390669884400,2.512884521484375,-0.7269858121871948,0.4692211151123047,1.859732747077942
1761399390690032600,2.53303271484375,-0.5164498686790466,0.7988376617431641,1.5662050247192383
1761399390710211600,2.553211669921875,-0.5664881467819214,1.0345134735107422,0.16628623008728027
1761399390730380000,2.573380126953125,-0.4631328284740448,1.037947654724121,-1.4987678527832031
1761399390750516000,2.593515869140625,0.20976603031158447,1.3898553848266602,-1.8203065395355225
1761399390770676700,2.6136767578125,1.0260688066482544,2.067319869995117,-1.5368945598602295
1761399390790850800,2.633850830078125,0.6530834436416626,1.5012006759643555,-1.3925366401672363
1761399390811001000,2.6540009765625,0.36991697549819946,0.7740774154663086,-1.7036538124084473
1761399390831162000,2.674162109375,0.655451238155365,0.5719566345214844,-1.5971877574920654
1761399390851323600,2.69432373046875,1.3909571170806885,-0.29008960723876953,-1.0156431198120117
1761399390871485200,2.714485107421875,1.2021163702011108,-0.5178298950195312,-0.4262886047363281
1761399390891640000,2.73464013671875,0.18387436866760254,0.019224166870117188,-1.9771664142608643
1761399390911819300,2.7548193359375,-0.31286168098449707,0.1524829864501953,-3.2727322578430176
1761399390931981800,2.77498193359375,-0.5552719831466675,-0.8028116226196289,-3.2632431983947754
1761399390952144000,2.795143798828125,0.6465563774108887,-1.583968162536621,-1.9156322479248047
1761399390972309000,2.81530908203125,1.7021656036376953,-1.7102689743041992,-0.967522382736206
1761399390992453000,2.835453125,1.1654560565948486,-1.2398262023925781,-1.7195408344268799
1761399391012627200,2.855627197265625,1.7869281768798828,-0.9866580963134766,-3.531169891357422
1761399391032788500,2.87578857421875,1.7710105180740356,-0.6261224746704102,-3.0977022647857666
1761399391052950500,2.895950439453125,2.6078670024871826,-0.6822299957275391,-0.42586374282836914
1761399391073098800,2.9160986328125,2.0253021717071533,-2.065143585205078,2.442234992980957
1761399391093279500,2.936279541015625,0.3298819959163666,-4.828936576843262,5.218143463134766
1761399391113434000,2.95643408203125,-0.5554527640342712,-6.80742073059082,7.117883682250977
1761399391133583000,2.9765830078125,-0.7067369222640991,-4.407065391540527,5.288273334503174
1761399391153757200,2.996757080078125,0.468747615814209,-3.0479841232299805,2.4934234619140625
1761399391173918200,3.016918212890625,0.029891014099121094,-2.0613088607788086,0.22416400909423828
1761399391194067000,3.03706689453125,-1.306039571762085,-0.4304847717285156,0.3105020523071289
1761399391214241000,3.057240966796875,-0.7239670753479004,-0.10602664947509766,1.3916151523590088
1761399391234402300,3.07740234375,-0.5840375423431396,-0.5843715667724609,2.5670599937438965
1761399391254563800,3.097563720703125,-1.1870081424713135,-0.1722087860107422,3.341893196105957
1761399391274722600,3.11772265625,-1.565974473953247,0.9846019744873047,4.256893634796143
1761399391294886400,3.137886474609375,-1.567344069480896,2.1441993713378906,5.144928932189941
1761399391315035000,3.158034912109375,-1.7550448179244995,3.189391613006592,5.930377006530762
1761399391335196400,3.178196533203125,-1.905542016029358,4.341050148010254,6.358606815338135
1761399391355360300,3.1983603515625,-2.075639486312866,4.495298862457275,5.7242913246154785
1761399391375530200,3.2185302734375,-1.4718035459518433,3.5790934562683105,4.445187091827393
1761399391395679500,3.238679443359375,-0.7092728614807129,2.3108482360839844,2.5515992641448975
1761399391415847200,3.25884716796875,0.3061192035675049,1.1865043640136719,0.8296890258789062
1761399391436016400,3.279016357421875,2.1706178188323975,-0.8491611480712891,-1.062283992767334
1761399391456168400,3.29916845703125,5.211816787719727,-4.068672180175781,-3.0166358947753906
1761399391476337000,3.3193369140625,5.942775726318359,-6.594783782958984,-2.842813014984131
1761399391496500200,3.339500244140625,6.765521049499512,-4.12221622467041,0.31594133377075195
1761399391516636400,3.359636474609375,5.286491870880127,-0.6740665435791016,3.33339262008667
1761399391536797700,3.379797607421875,2.8065457344055176,0.5364990234375,4.298623561859131
1761399391556951800,3.399951904296875,1.7762336730957031,1.20943021774292,3.8160884380340576
1761399391577108500,3.4201083984375,0.7438735961914062,-1.6529884338378906,2.358455181121826
1761399391597293800,3.4402939453125,0.252164363861084,-1.9659252166748047,2.4547743797302246
1761399391617450500,3.460450439453125,-2.935241937637329,0.4628877639770508,0.6476693153381348
1761399391637630000,3.4806298828125,-6.219623565673828,-0.8031864166259766,-0.2879621982574463
1761399391657791000,3.500791015625,-4.342769145965576,-4.178067207336426,-1.5488839149475098
1761399391677952500,3.520952392578125,-0.9416979551315308,-1.7799501419067383,0.6889994144439697
1761399391698100700,3.541100830078125,-1.61281156539917,2.5329761505126953,3.135173797607422
1761399391718275000,3.561275146484375,-2.4154586791992188,0.7549753189086914,2.578853130340576
1761399391738431500,3.581431396484375,-1.5639592409133911,-2.897902488708496,-0.1761617660522461
1761399391758598000,3.601597900390625,-0.41276872158050537,-1.7975358963012695,-1.1414353847503662
1761399391778743800,3.621743896484375,0.041312336921691895,0.4814310073852539,0.8778319358825684
1761399391798917600,3.641917724609375,0.08292937278747559,0.5560073852539062,3.1463444232940674
1761399391819082200,3.662082275390625,-0.33973610401153564,-0.2257823944091797,2.449047327041626
1761399391839235000,3.682235107421875,-1.1276662349700928,0.9075298309326172,1.0914480686187744
1761399391859402800,3.70240283203125,-1.2431461811065674,1.1605138778686523,-1.1892879009246826
1761399391879565800,3.72256591796875,-0.27154815196990967,0.912175178527832,-2.7369306087493896
1761399391899727600,3.7427275390625,0.6512921452522278,0.6158618927001953,-3.059863805770874
1761399391919886800,3.762886962890625,1.497991681098938,0.4190855026245117,-2.358614921569824
1761399391940050400,3.783050537109375,1.7862019538879395,0.6831569671630859,-1.3929500579833984
1761399391960211500,3.80321142578125,1.793247938156128,1.1778240203857422,-1.1803746223449707
1761399391980359700,3.823359619140625,1.1229716539382935,1.4284496307373047,-1.0447731018066406
1761399392000532700,3.84353271484375,0.9457710385322571,1.4646453857421875,-0.4641685485839844
1761399392020694300,3.8636943359375,1.7377890348434448,0.7078933715820312,-0.5771172046661377
1761399392040845300,3.88384521484375,1.9168049097061157,0.04872322082519531,-1.6272859573364258
1761399392061006000,3.904006103515625,1.576545238494873,-0.2495126724243164,-2.3005330562591553
1761399392081166300,3.924166259765625,1.589823603630066,-0.44852638244628906,-1.6234467029571533
1761399392101341200,3.944341064453125,1.0694491863250732,-0.5434675216674805,-1.7660980224609375
1761399392121499000,3.964498779296875,0.7126369476318359,-0.34739112854003906,-2.7117366790771484
1761399392141651500,3.9846513671875,1.6491104364395142,-0.47867393493652344,-2.4045231342315674
1761399392161837000,4.004837158203125,2.2138800621032715,-0.9868307113647461,-1.5584919452667236
1761399392181985000,4.024985107421875,1.5266945362091064,-1.0870084762573242,-2.3784289360046387
1761399392202134800,4.045134765625,2.024501323699951,-0.4179840087890625,-3.126906394958496
1761399392222309400,4.065309326171875,0.8340094685554504,0.010023117065429688,-2.4571399688720703
1761399392242469400,4.085469482421875,1.5139594078063965,-3.201047897338867,0.4115755558013916
1761399392262632200,4.105632080078125,1.1074068546295166,-8.614920616149902,4.509607791900635
1761399392282793500,4.12579345703125,0.09975236654281616,-8.975797653198242,6.636488914489746
1761399392302925300,4.14592529296875,-0.8743882179260254,-4.459689140319824,4.313791275024414
1761399392323104500,4.1661044921875,0.14021360874176025,-2.1102609634399414,1.143651008605957
1761399392343269400,4.186269287109375,-0.21068835258483887,-0.5084609985351562,-1.3855247497558594
1761399392363439400,4.206439453125,-0.44470882415771484,0.5893731117248535,-0.9809122085571289
1761399392383600400,4.226600341796875,-0.32860875129699707,0.6340694427490234,0.40221452713012695
1761399392403761400,4.246761474609375,-1.8685839176177979,0.7773666381835938,2.1532859802246094
1761399392423908600,4.26690869140625,-2.5664610862731934,1.5696396827697754,3.433272123336792
1761399392444066000,4.287066162109375,-2.557751417160034,1.8152837753295898,4.129066467285156
1761399392464220400,4.307220458984375,-1.9509575366973877,1.7936615943908691,5.102184772491455
1761399392484407300,4.3274072265625,-1.1515851020812988,2.2870845794677734,6.62822961807251
1761399392504566300,4.347566162109375,-0.7223930358886719,2.850285530090332,7.642035484313965
1761399392524730000,4.367730224609375,-1.133164405822754,3.1735825538635254,7.30628776550293
1761399392544891000,4.387890869140625,-1.7142504453659058,2.7894229888916016,6.071293354034424
1761399392565050400,4.40805029296875,-1.6827750205993652,2.4182863235473633,4.0800909996032715
1761399392585203700,4.42820361328125,-0.42326557636260986,1.8918781280517578,2.0654938220977783
1761399392605375200,4.448375244140625,2.5371241569519043,0.11334609985351562,-0.6884589195251465
1761399392625534500,4.468534423828125,5.214120864868164,-3.774966239929199,-3.814743995666504
1761399392645680600,4.4886806640625,4.743918418884277,-7.439737319946289,-6.640687465667725
1761399392665848000,4.50884814453125,4.818099498748779,-3.703510284423828,-4.224395751953125
1761399392686018000,4.52901806640625,4.239595413208008,-0.3001422882080078,-1.5323619842529297
1761399392706182400,4.549182373046875,3.6088905334472656,1.617476463317871,0.1257038116455078
1761399392726343400,4.569343505859375,2.8135030269622803,-1.5485877990722656,0.8244409561157227
1761399392746505000,4.5895048828125,3.33540940284729,-5.596953392028809,2.2753233909606934
1761399392766664000,4.609663818359375,-0.3641434907913208,-5.353876113891602,3.839447021484375
1761399392786827300,4.6298271484375,-5.144288539886475,1.2392187118530273,3.9423022270202637
1761399392806978800,4.649978759765625,-1.7372373342514038,3.313143730163574,5.018490314483643
1761399392827150300,4.670150390625,-2.0861916542053223,2.1120619773864746,5.062058448791504
1761399392847312000,4.690311767578125,-1.536867380142212,-0.5628089904785156,4.714735984802246
1761399392867473000,4.710472900390625,-4.248738765716553,-3.8630971908569336,1.739163875579834
1761399392887634400,4.730634521484375,-3.4606003761291504,-4.478192329406738,0.11473989486694336
1761399392907783000,4.750782958984375,-2.385850429534912,-0.7933101654052734,0.8018050193786621
1761399392927956700,4.770956787109375,-1.0862884521484375,-0.16010475158691406,1.9259018898010254
1761399392948116000,4.791115966796875,0.3016815781593323,-0.6848859786987305,2.5456175804138184
1761399392968279800,4.81127978515625,0.17239481210708618,-0.6395931243896484,2.470548391342163
1761399392988441300,4.83144140625,-0.40135622024536133,-0.21071624755859375,2.2488317489624023
1761399393008600300,4.851600341796875,-0.6477161645889282,0.22151470184326172,1.529498815536499
1761399393028753400,4.87175341796875,-0.8387969136238098,0.9142913818359375,-0.1218864917755127
1761399393048925000,4.891925048828125,-0.996252179145813,1.5443415641784668,-1.5673103332519531
1761399393069087000,4.9120869140625,-0.19948500394821167,1.491410732269287,-1.9423255920410156
1761399393089248300,4.932248291015625,0.9721345901489258,1.0801057815551758,-1.8899407386779785
1761399393109396500,4.952396484375,1.607467770576477,1.2411489486694336,-1.3069243431091309
1761399393129558000,4.97255810546875,1.3041212558746338,1.2444000244140625,-0.7942631244659424
1761399393149739500,4.992739501953125,0.9288379549980164,0.7388200759887695,-0.6458182334899902
1761399393169880800,5.012880859375,1.2640928030014038,0.42757511138916016,-0.4117443561553955
1761399393190042600,5.033042724609375,1.4842665195465088,0.022676467895507812,-0.6411125659942627
1761399393210216200,5.05321630859375,1.1828802824020386,-0.0664510726928711,-1.9059324264526367
1761399393230350300,5.073350341796875,1.0249848365783691,0.3377218246459961,-2.307757616043091
1761399393250537200,5.093537109375,0.4754829406738281,0.14244937896728516,-2.277750253677368
1761399393270697200,5.113697265625,-0.10605132579803467,-0.7410564422607422,-2.8787965774536133
1761399393290875000,5.133875,1.084017038345337,-0.931732177734375,-2.3425045013427734
1761399393311012000,5.15401220703125,1.3518646955490112,-1.2750606536865234,-1.4576609134674072
1761399393331167700,5.174167724609375,0.5881821513175964,-1.4328384399414062,-2.4255528450012207
1761399393351325200,5.1943251953125,0.9597609043121338,-1.4032392501831055,-3.542262554168701
1761399393371507500,5.214507568359375,1.9781594276428223,-1.8171234130859375,-1.9283223152160645
1761399393391660000,5.234659912109375,3.099561929702759,-3.1400442123413086,1.7011923789978027
1761399393411829800,5.254829833984375,1.3764231204986572,-5.458043098449707,4.811128616333008
1761399393431970800,5.274970703125,-0.13691160082817078,-6.746494293212891,6.57928991317749
1761399393452152800,5.29515283203125,-1.1723843812942505,-4.440903663635254,4.874955654144287
1761399393472292400,5.315292236328125,-0.7631028890609741,-2.3247528076171875,1.9495978355407715
1761399393492476000,5.335475830078125,-0.3320038318634033,-1.7530708312988281,0.1440417766571045
1761399393512636400,5.355636474609375,-1.0097686052322388,-1.0137462615966797,-0.050846099853515625
1761399393532768800,5.375768798828125,-0.9514200687408447,0.011127471923828125,0.23727941513061523
1761399393552959700,5.395959716796875,-1.1926645040512085,0.5934638977050781,1.3809945583343506
1761399393573108000,5.41610791015625,-2.2598259449005127,1.371631145477295,2.7674636840820312
1761399393593280800,5.43628076171875,-2.8678975105285645,1.8546829223632812,3.824223756790161
1761399393613444400,5.4564443359375,-2.9504764080047607,2.097306251525879,3.975442886352539
1761399393633593000,5.476593017578125,-2.3086063861846924,2.693267345428467,4.407166957855225
1761399393653748200,5.496748291015625,-1.6265584230422974,3.4669599533081055,4.401281356811523
1761399393673930000,5.516929931640625,-1.262599229812622,3.895824909210205,3.876537322998047
1761399393694089000,5.5370888671875,-1.5208591222763062,3.5230865478515625,3.4945614337921143
1761399393714237200,5.5572373046875,-1.865870475769043,3.1025390625,3.3171515464782715
1761399393734412000,5.577412109375,-1.4365938901901245,2.5308618545532227,2.839616060256958
1761399393754573300,5.5975732421875,0.7538604736328125,1.1156511306762695,1.335883378982544
1761399393774735000,5.617735107421875,5.694449424743652,-2.684931755065918,-1.572838544845581
1761399393794886000,5.637885986328125,5.156786918640137,-8.721661567687988,-6.00803279876709
1761399393815057000,5.658056884765625,4.51025915145874,-5.7445573806762695,-5.9310760498046875
1761399393835214600,5.678214599609375,4.721152305603027,-1.2288875579833984,-2.9768753051757812
1761399393855368000,5.698367919921875,4.793634414672852,2.4772095680236816,-0.46677684783935547
1761399393875539200,5.718539306640625,1.9595210552215576,5.264117240905762,1.6570031642913818
1761399393895698700,5.73869873046875,2.1681244373321533,3.2551069259643555,1.7373509407043457
1761399393915861800,5.75886181640625,3.018873929977417,-5.21539306640625,1.8104867935180664
1761399393936011500,5.779011474609375,1.6810636520385742,-9.326152801513672,3.1903188228607178
1761399393956187000,5.799186767578125,-3.9932050704956055,-1.7652521133422852,2.2586114406585693
1761399393976345900,5.819345947265625,-3.511054039001465,2.8001909255981445,3.4716317653656006
1761399393996509700,5.839509765625,-3.8743972778320312,1.1244287490844727,4.765290260314941
1761399394016671200,5.859671142578125,-3.1762540340423584,-0.539647102355957,5.70777702331543
1761399394036817700,5.879817626953125,-4.362306594848633,-2.613800048828125,2.879965305328369
1761399394056980700,5.899980712890625,-3.6510324478149414,-3.999039649963379,0.22149348258972168
1761399394077162000,5.920161865234375,-2.5007681846618652,-1.336115837097168,-0.4694070816040039
1761399394097293300,5.940293212890625,-1.5829741954803467,-0.11310863494873047,-0.5549721717834473
1761399394117465600,5.960465576171875,-0.4142794907093048,-0.06322574615478516,0.17295026779174805
1761399394137639400,5.980639404296875,-0.1307690590620041,-0.3195915222167969,1.6151528358459473
1761399394157798700,6.000798583984375,-0.30050885677337646,-0.39066505432128906,2.2802748680114746
1761399394177955300,6.020955322265625,-0.45229142904281616,0.49833202362060547,1.9313842058181763
1761399394198123000,6.041123046875,-0.8272782564163208,1.6264209747314453,0.6604599952697754
1761399394218284500,6.061284423828125,-1.3750097751617432,1.4542131423950195,-1.2931509017944336
1761399394238443800,6.08144384765625,-1.1355174779891968,1.0856809616088867,-1.6683404445648193
1761399394258594800,6.1015947265625,0.48781388998031616,1.067183494567871,-2.294654607772827
1761399394278769000,6.121768798828125,1.7478039264678955,0.6260919570922852,-1.5758976936340332
1761399394298909000,6.141908935546875,2.3793458938598633,-0.04101276397705078,-0.24868202209472656
1761399394319086600,6.162086669921875,1.958188533782959,-0.27581024169921875,0.005398750305175781
1761399394339253200,6.182253173828125,1.0037230253219604,0.4060935974121094,-0.5806424617767334
1761399394359401200,6.202401123046875,0.9146854281425476,0.7165412902832031,-1.3676350116729736
1761399394379576000,6.222576171875,1.1941784620285034,0.5321817398071289,-1.9053380489349365
1761399394399737300,6.2427373046875,1.1216835975646973,0.5548543930053711,-2.0992369651794434
1761399394419889700,6.2628896484375,-0.0057637691497802734,0.7718925476074219,-2.034252882003784
1761399394440056300,6.283056396484375,0.358483225107193,-0.3816795349121094,-2.930283308029175
1761399394460208400,6.30320849609375,1.0404338836669922,-0.10162639617919922,-1.0957443714141846
1761399394480380400,6.32338037109375,2.1337924003601074,-0.7809276580810547,0.7332861423492432
1761399394500541700,6.343541748046875,1.5395334959030151,-0.14058876037597656,0.40695929527282715
1761399394520704300,6.363704345703125,0.5401678085327148,1.0781478881835938,-0.4497201442718506
1761399394540866800,6.38386669921875,-1.6384742259979248,0.39396095275878906,-2.330989360809326
1761399394561031700,6.40403173828125,0.24646344780921936,-1.3868131637573242,-3.5770928859710693
1761399394581189400,6.424189453125,-0.08693510293960571,-3.351022720336914,-1.4231834411621094
1761399394601338000,6.444338134765625,-1.0494778156280518,-3.7068910598754883,1.0322225093841553
1761399394621500000,6.4645,-1.654205560684204,-6.1129655838012695,1.5771422386169434
1761399394641673700,6.484673828125,-4.490499496459961,-4.294333457946777,1.4826881885528564
1761399394661835000,6.5048349609375,-4.556963920593262,-0.9746465682983398,-0.8778650760650635
1761399394682003500,6.52500341796875,-2.859830141067505,-0.6355886459350586,-3.475189208984375
1761399394702157600,6.545157470703125,-3.209691047668457,-0.3517637252807617,-3.893065929412842
1761399394722318800,6.56531884765625,-2.9734597206115723,-0.5869808197021484,-2.4191956520080566
1761399394742478600,6.585478515625,-3.07307767868042,-0.9979367256164551,0.08070135116577148
1761399394762641700,6.6056416015625,-4.858115196228027,-0.6050906181335449,0.6116561889648438
1761399394782790400,6.625790283203125,-5.610049724578857,-0.49470043182373047,1.103785514831543
1761399394802939400,6.645939453125,-4.60990047454834,-0.29991722106933594,1.8732962608337402
1761399394823100200,6.66610009765625,-4.288372993469238,-0.3873171806335449,1.5464673042297363
1761399394843250200,6.686250244140625,-4.664710998535156,-0.6769471168518066,1.1971487998962402
1761399394863432200,6.70643212890625,-4.387170314788818,-0.901214599609375,1.3109791278839111
1761399394883609900,6.72660986328125,-3.8167405128479004,-0.30495262145996094,2.2877063751220703
1761399394903771400,6.746771484375,-3.6455581188201904,-0.16131353378295898,2.583712100982666
1761399394923907000,6.766906982421875,-3.3055009841918945,-0.5507736206054688,1.9576847553253174
1761399394944094500,6.787094482421875,-2.5536208152770996,-0.9962253570556641,1.1290802955627441
1761399394964255500,6.80725537109375,-2.5135326385498047,-0.5505194664001465,0.9574379920959473
1761399394984417300,6.827417236328125,-2.5296335220336914,0.20592594146728516,0.782984733581543
1761399395004573700,6.84757373046875,-2.3403449058532715,0.5340509414672852,0.35575246810913086
1761399395024740000,6.867739990234375,-2.1320252418518066,0.30139589309692383,-0.12238693237304688
1761399395044901400,6.8879013671875,-1.9292168617248535,-0.11450386047363281,-0.5211834907531738
1761399395065052400,6.908052490234375,-2.03039813041687,-0.600184440612793,-0.7744321823120117
1761399395085224000,6.928223876953125,-1.6626505851745605,-0.5134515762329102,-0.47451257705688477
1761399395105385500,6.948385498046875,-1.677311897277832,0.06739521026611328,-0.019417762756347656
1761399395125546500,6.96854638671875,-1.8051271438598633,0.3713521957397461,1.0225839614868164
1761399395145707500,6.98870751953125,-1.6131309270858765,-0.6306276321411133,2.3805556297302246
1761399395165869000,7.008869140625,-1.4133379459381104,-4.3305463790893555,1.9786667823791504
1761399395186005800,7.029005859375,-2.1004674434661865,-9.093478202819824,0.23311638832092285
1761399395206192000,7.049192138671875,0.4833376407623291,-4.929574966430664,0.5423364639282227
1761399395226353400,7.069353515625,-0.7842506170272827,1.722346305847168,1.3833019733428955
1761399395246514400,7.089514404296875,-2.450974702835083,5.039467811584473,0.08926081657409668
1761399395266651000,7.10965087890625,-3.815617561340332,4.6031718254089355,-1.458707571029663
1761399395286837200,7.129837158203125,-5.4405670166015625,0.9051060676574707,-2.5322062969207764
1761399395306999000,7.1499990234375,-3.8373217582702637,-3.292635917663574,-2.0146641731262207
1761399395327160600,7.17016064453125,-0.8906105756759644,-3.7493019104003906,-0.77229905128479
1761399395347324700,7.19032470703125,-0.7885020971298218,-0.8113870620727539,-0.0010387897491455078
1761399395367483100,7.210483154296875,-2.0490775108337402,0.8949947357177734,0.886695146560669
1761399395387644700,7.230644775390625,-2.583587646484375,0.20861434936523438,1.1223375797271729
1761399395407806000,7.250805908203125,-2.1629092693328857,-0.31127262115478516,1.231612205505371
1761399395427967000,7.270967041015625,-2.172574043273926,0.04155158996582031,0.5644943714141846
1761399395448124200,7.291124267578125,-2.5432801246643066,0.49326229095458984,-0.34755539894104004
1761399395468290000,7.3112900390625,-2.824345588684082,0.7507534027099609,-0.7035818099975586
1761399395488425700,7.33142578125,-2.6665751934051514,0.6318120956420898,-0.715008020401001
1761399395508609000,7.351609130859375,-1.8529114723205566,0.265289306640625,-0.365570068359375
1761399395528748800,7.371748779296875,-1.1452257633209229,-0.19548892974853516,-0.050931692123413086
1761399395548935400,7.391935302734375,-0.7453241944313049,-0.3254547119140625,0.1321241855621338
1761399395569092400,7.41209228515625,-0.7056477069854736,-0.022024154663085938,0.17866301536560059
1761399395589257700,7.4322578125,-0.820802628993988,-0.05014991760253906,0.20600676536560059
1761399395609418800,7.452418701171875,-0.5829256772994995,-0.03714942932128906,0.5801370143890381
1761399395629555500,7.472555419921875,-0.4509330093860626,-0.03478240966796875,0.45423173904418945
1761399395649742600,7.49274267578125,-0.009074385277926922,-0.2814807891845703,0.1851956844329834
1761399395669904000,7.51290380859375,-0.0427851676940918,-0.12818431854248047,-0.7832381725311279
1761399395690065000,7.53306494140625,-0.5238404273986816,0.3472299575805664,-0.9607195854187012
1761399395710226200,7.55322607421875,-0.6844111680984497,0.40525054931640625,-0.9246714115142822
1761399395730387200,7.57338720703125,-0.5488461256027222,0.2612619400024414,-0.6429617404937744
1761399395750548700,7.593548828125,-0.4908020496368408,0.068878173828125,-1.0630526542663574
1761399395770711000,7.6137109375,-0.6559141278266907,0.2875690460205078,-1.4260258674621582
1761399395790871800,7.633871826171875,-0.7119311690330505,0.48805713653564453,-1.5135748386383057
1761399395811007700,7.6540078125,-0.794700026512146,0.2694540023803711,-1.9976019859313965
1761399395831190800,7.674190673828125,-1.0630661249160767,-0.19161701202392578,-2.1449623107910156
1761399395851356200,7.694356201171875,-1.2449126243591309,-0.8232192993164062,-2.1536977291107178
1761399395871493000,7.7144931640625,-1.0208178758621216,-0.6403169631958008,-2.0421955585479736
1761399395891675000,7.7346748046875,-0.4340563714504242,-0.16903114318847656,-2.547621965408325
1761399395911840500,7.754840576171875,0.3228527903556824,0.27326202392578125,-2.794416666030884
1761399395932001800,7.775001708984375,0.5984535217285156,0.5984172821044922,-2.7341208457946777
1761399395952162600,7.79516259765625,0.4426323473453522,0.5597000122070312,-2.2061400413513184
1761399395972323800,7.81532373046875,0.3922112286090851,0.0634775161743164,-1.739166021347046
1761399395992485400,7.8354853515625,0.6371034979820251,-0.6602964401245117,-1.030372142791748
1761399396012646400,7.855646484375,1.4537014961242676,-1.1687202453613281,0.1391594409942627
1761399396032808000,7.875807861328125,1.8937504291534424,-1.8955373764038086,0.5569572448730469
1761399396052969500,7.895969482421875,1.5175789594650269,-2.53995418548584,0.07869982719421387
1761399396073130500,7.916130615234375,-0.04111015796661377,-2.6359682083129883,-0.663578987121582
1761399396093292000,7.9362919921875,-1.2924492359161377,-1.431868553161621,-0.7618880271911621
1761399396113453600,7.95645361328125,-1.899705171585083,-0.4177713394165039,-0.7729973793029785
1761399396133590300,7.97659033203125,-2.2322685718536377,-0.36891937255859375,-0.6965210437774658
1761399396153772300,7.996772216796875,-2.5676114559173584,-1.3130617141723633,-0.03233742713928223
1761399396173912300,8.016912353515625,-2.4577131271362305,-0.930079460144043,0.9805698394775391
1761399396194074000,8.03707421875,-2.1368768215179443,-0.7776765823364258,2.1352319717407227
1761399396214257700,8.057257568359375,-1.4294031858444214,-0.7311630249023438,3.651926040649414
1761399396234422300,8.07742236328125,-1.1105157136917114,-0.5846662521362305,4.35495662689209
1761399396254583000,8.0975830078125,-1.628008484840393,-0.2898120880126953,3.4268903732299805
1761399396274745000,8.1177451171875,-1.9722620248794556,-0.2639198303222656,2.427172899246216
1761399396294905900,8.13790576171875,-2.296584367752075,-0.10767555236816406,2.249833106994629
1761399396315067400,8.1580673828125,-2.3449583053588867,0.33243513107299805,2.7082433700561523
1761399396335211000,8.1782109375,-2.0579261779785156,0.8431682586669922,3.185492753982544
1761399396355390000,8.198389892578126,-1.6126092672348022,0.9056768417358398,3.8012404441833496
1761399396375551200,8.21855126953125,-1.0500922203063965,1.2665338516235352,4.004603385925293
1761399396395713500,8.238713623046875,-0.1569969654083252,2.2683286666870117,4.511056900024414
1761399396415874000,8.2588740234375,0.9456095695495605,3.4804420471191406,4.2956929206848145
1761399396436010800,8.2790107421875,1.5199768543243408,3.3141026496887207,2.5549166202545166
1761399396456197000,8.299197021484375,2.098698616027832,0.2408437728881836,-0.6565337181091309
1761399396476358000,8.31935791015625,2.4819114208221436,-4.939810752868652,-4.093434810638428
1761399396496519400,8.33951953125,2.7269434928894043,-7.056303024291992,-6.479039192199707
1761399396516680400,8.359680419921874,2.535665512084961,-1.6620826721191406,-3.293877601623535
1761399396536843300,8.37984326171875,2.395441770553589,1.220151424407959,-0.44863033294677734
1761399396557004300,8.40000439453125,1.9531185626983643,2.7542691230773926,1.0151357650756836
1761399396577165600,8.42016552734375,0.08497142791748047,-1.1095247268676758,-0.47718048095703125
1761399396597304300,8.44030419921875,-1.6531870365142822,-7.716626167297363,-1.3799395561218262
1761399396617488400,8.46048828125,-2.833195686340332,-6.355132102966309,-0.6925177574157715
1761399396637650200,8.480650146484376,-1.884875774383545,-0.004700660705566406,1.7910690307617188
1761399396657811200,8.500811279296874,-1.334311604499817,4.692152500152588,4.66326904296875
1761399396677973200,8.52097314453125,-3.5449390411376953,4.438047409057617,5.791051864624023
1761399396698130400,8.54113037109375,-4.469000816345215,-0.33415794372558594,3.5760064125061035
1761399396718291000,8.561291015625,-5.474542617797852,-5.137998580932617,0.9153280258178711
1761399396738434600,8.5814345703125,-2.7424466609954834,-5.845772743225098,-1.3197827339172363
1761399396758617900,8.601617919921875,-1.102970004081726,0.32346153259277344,1.1340258121490479
1761399396778780000,8.62177978515625,-1.2654592990875244,0.8340158462524414,2.1146492958068848
1761399396798941000,8.64194091796875,-0.7676723003387451,-0.45631980895996094,2.196427822113037
1761399396819078000,8.662077880859375,-1.0191482305526733,-0.4347219467163086,1.592513084411621
1761399396839237600,8.682237548828125,-0.9964877963066101,0.8122520446777344,1.2577505111694336
1761399396859424300,8.70242431640625,-0.9597128629684448,1.4648628234863281,0.8701422214508057
1761399396879556000,8.72255615234375,-1.284545660018921,1.256429672241211,0.4010341167449951
1761399396899722000,8.742721923828125,-1.1236135959625244,1.0317659378051758,-0.2506272792816162
1761399396919904800,8.76290478515625,-0.43656712770462036,1.1912832260131836,-0.463306188583374
1761399396940071000,8.78307080078125,0.1432916224002838,0.9809951782226562,-0.7677390575408936
1761399396960231700,8.803231689453124,0.382332444190979,0.8119068145751953,-1.5446417331695557
1761399396980388600,8.823388671875,0.021347038447856903,1.0678672790527344,-2.147949457168579
1761399397000554000,8.843553955078125,-0.26089733839035034,0.9429168701171875,-1.9038550853729248
1761399397020715300,8.86371533203125,0.127416729927063,0.33676910400390625,-0.9713070392608643
1761399397040872400,8.88387255859375,0.2440928816795349,-0.6396522521972656,-0.6432218551635742
1761399397061037000,8.904037109375,0.14641952514648438,-0.9530582427978516,-1.4961013793945312
1761399397081199400,8.924199462890625,0.7437083721160889,-0.630192756652832,-1.595564842224121
1761399397101360600,8.944360595703126,-0.39866316318511963,-0.4216756820678711,-2.2219598293304443
1761399397121522400,8.9645224609375,-0.1226111650466919,-0.9289588928222656,-1.8950550556182861
1761399397141658400,8.984658447265625,0.3796609044075012,-1.4722871780395508,-1.9576780796051025
1761399397161845200,9.00484521484375,-0.6918734312057495,-1.3131427764892578,-4.924490928649902
1761399397181983200,9.024983154296875,-1.0840246677398682,-0.09181976318359375,-7.583293914794922
1761399397202167600,9.04516748046875,-1.3807990550994873,1.1007919311523438,-7.334613800048828
1761399397222329000,9.0653291015625,0.2982325851917267,0.3596630096435547,-2.837235927581787
1761399397242486800,9.08548681640625,1.2041505575180054,-2.2865514755249023,1.1281042098999023
1761399397262651600,9.105651611328126,0.8677882552146912,-4.916163444519043,3.1045432090759277
1761399397282788600,9.12578857421875,-1.794575572013855,-3.775040626525879,3.7043423652648926
1761399397302970400,9.145970458984374,-3.8735098838806152,-2.5508956909179688,2.4171009063720703
1761399397323136000,9.166135986328126,-3.168442487716675,-2.0058374404907227,0.14180254936218262
1761399397343274200,9.186274169921875,-1.1459769010543823,-2.723705291748047,-1.533323049545288
1761399397363455000,9.206455078125,-1.9224666357040405,-2.022414207458496,-1.3559086322784424
1761399397383619800,9.226619873046875,-3.2219464778900146,-0.8768415451049805,-0.023982524871826172
1761399397403782100,9.2467822265625,-3.822556257247925,-0.3352508544921875,0.9406752586364746
1761399397423943200,9.266943115234374,-3.434537649154663,-0.23417091369628906,2.2834765911102295
1761399397444104700,9.287104736328125,-3.6693263053894043,-0.4593372344970703,3.4074854850769043
1761399397464265200,9.30726513671875,-3.464322566986084,-0.33731794357299805,4.099092960357666
1761399397484427500,9.327427490234374,-3.2927193641662598,0.45841073989868164,3.6192779541015625
1761399397504588300,9.34758837890625,-3.2587320804595947,0.6200680732727051,3.7505545616149902
1761399397524749800,9.367749755859375,-2.9122371673583984,0.9184393882751465,3.933544635772705
1761399397544910800,9.387910888671875,-2.3979320526123047,1.7215728759765625,3.8854262828826904
1761399397565047300,9.40804736328125,-2.0435214042663574,2.2777252197265625,4.272173881530762
1761399397585211100,9.428211181640625,-1.3618628978729248,2.032782554626465,4.486838340759277
1761399397605395000,9.44839501953125,-0.3220231533050537,1.528000831604004,3.5119991302490234
1761399397625556700,9.468556640625,0.8015701770782471,0.747889518737793,1.3650693893432617
1761399397645693000,9.48869287109375,1.1163222789764404,-0.894866943359375,-1.6055645942687988
1761399397665880000,9.508880126953125,1.0753893852233887,-3.316664695739746,-4.374815464019775
1761399397686041600,9.52904150390625,1.9860084056854248,-3.1545629501342773,-5.2647385597229
1761399397706202000,9.5492021484375,1.601027250289917,-0.7591590881347656,-4.345449924468994
1761399397726364000,9.569364013671875,0.06579470634460449,1.521657943725586,-2.885012626647949
1761399397746525400,9.589525390625,-0.3119544982910156,3.4985742568969727,-2.674910068511963
1761399397766687000,9.60968701171875,-0.5188891887664795,4.562438488006592,-1.4306683540344238
1761399397786822100,9.629822265625,-2.253943920135498,-3.231304168701172,-0.15437698364257812
1761399397807009500,9.650009521484375,-2.648230791091919,-11.643309593200684,1.0322003364562988
1761399397827170600,9.670170654296875,0.17891931533813477,-7.1460065841674805,1.3177952766418457
1761399397847332000,9.69033203125,-0.11389613151550293,0.6918859481811523,2.7288753986358643
1761399397867468000,9.710468017578124,-4.776578903198242,4.96419620513916,5.553102493286133
1761399397887654100,9.730654052734375,-5.975334644317627,3.843636989593506,5.278911113739014
1761399397907798500,9.750798583984375,-6.793788909912109,-3.1682920455932617,2.449392795562744
1761399397927980800,9.770980712890625,-4.5806779861450195,-6.457746505737305,-1.0334887504577637
1761399397948135000,9.791135009765625,-1.3729689121246338,-1.5763959884643555,-1.6565189361572266
1761399397968300500,9.811300537109375,-1.3206372261047363,0.7429494857788086,0.42345476150512695
1761399397988461600,9.831461669921875,-1.2696272134780884,-0.16833782196044922,2.444301128387451
1761399398008622600,9.85162255859375,-1.444970965385437,-0.45351409912109375,3.17006778717041
1761399398028784400,9.871784423828124,-1.1542418003082275,0.3372983932495117,2.612013578414917
1761399398048919800,9.891919921875,-0.9853808879852295,0.9025611877441406,1.145536184310913
1761399398069081300,9.912081298828125,-0.9798996448516846,1.0002241134643555,0.09508109092712402
1761399398089243100,9.9322431640625,-1.1630704402923584,0.9805154800415039,-0.3957552909851074
1761399398109393000,9.952392822265624,-0.9392366409301758,1.3108911514282227,-1.0117323398590088
1761399398129571800,9.97257177734375,-0.20886093378067017,1.6761536598205566,-1.5306403636932373
1761399398149753000,9.992753173828126,0.2924377918243408,1.5078601837158203,-2.207580327987671
1761399398169894700,10.012894775390626,-0.0521569550037384,1.072784423828125,-2.246854305267334
1761399398190075400,10.033075439453125,-0.5057252049446106,0.9330120086669922,-1.7597808837890625
1761399398210237400,10.053237548828125,-0.7658844590187073,1.0550241470336914,-1.3846287727355957
1761399398230398000,10.07339794921875,-0.37984761595726013,0.27529239654541016,-1.017899990081787
1761399398250526500,10.0935263671875,-0.015870779752731323,-0.7663993835449219,-0.930396318435669
1761399398270720500,10.113720458984375,0.01419985294342041,-0.7437906265258789,-1.2131836414337158
1761399398290882000,10.133882080078125,-0.7450555562973022,-0.9846658706665039,-2.701591730117798
1761399398311021000,10.15402099609375,-0.31755006313323975,-0.9791345596313477,-4.004216194152832
1761399398331204900,10.174204833984374,-0.2968024015426636,-1.204153060913086,-4.8162760734558105
1761399398351366100,10.1943662109375,-0.5750460624694824,-1.305994987487793,-5.6176042556762695
1761399398371528200,10.214528076171876,-1.0537999868392944,-0.6260919570922852,-6.390278339385986
1761399398391685600,10.234685546875,-0.36346662044525146,-0.7838659286499023,-4.80743932723999
1761399398411829800,10.254829833984376,0.3343711495399475,-0.8515253067016602,-1.4675264358520508
1761399398432012000,10.275011962890625,0.7815545797348022,-1.4962759017944336,1.277689814567566
1761399398452169000,10.2951689453125,0.7400599122047424,-3.213747024536133,3.186680316925049
1761399398472335000,10.315335205078124,-1.2106302976608276,-3.015106201171875,3.8670690059661865
1761399398492496400,10.335496337890625,-2.675380229949951,-2.1068124771118164,2.534395456314087
1761399398512658000,10.355657958984375,-2.283137321472168,-2.164273262023926,0.3161635398864746
1761399398532818700,10.375818603515626,-1.652766227722168,-2.876553535461426,-1.4157965183258057
1761399398552943900,10.39594384765625,-2.3289895057678223,-1.7016544342041016,-1.5370943546295166
1761399398573142300,10.416142333984375,-2.7248995304107666,0.009697914123535156,-0.38754916191101074
1761399398593303600,10.436303466796875,-2.77030086517334,0.24296188354492188,0.6075029373168945
1761399398613464800,10.45646484375,-2.7249467372894287,-0.0067691802978515625,1.9640812873840332
1761399398633600500,10.4766005859375,-3.000974655151367,-0.30026721954345703,2.7329652309417725
1761399398653762600,10.496762451171875,-2.939335346221924,-0.45404911041259766,3.6790411472320557
1761399398673948000,10.516947998046875,-1.870131492614746,0.26932430267333984,3.486485719680786
1761399398694109700,10.537109619140624,-1.8104947805404663,0.8984823226928711,3.9833598136901855
1761399398714267600,10.557267578125,-2.232516288757324,1.3950133323669434,3.8781485557556152
1761399398734432800,10.577432861328125,-2.6305859088897705,2.0947036743164062,3.8042378425598145
1761399398754568700,10.597568603515626,-2.891228675842285,2.781482696533203,3.737314224243164
1761399398774755600,10.617755615234374,-2.169419765472412,3.071279525756836,3.7142333984375
1761399398794916600,10.63791650390625,-1.474834680557251,2.8700718879699707,3.2342324256896973
1761399398815077600,10.65807763671875,-0.26644158363342285,2.098020553588867,2.1192784309387207
1761399398835240000,10.678239990234376,1.7900633811950684,-0.09714698791503906,-0.20970439910888672
1761399398855401000,10.69840087890625,1.974107265472412,-3.756293296813965,-3.318329334259033
1761399398875562200,10.718562255859375,3.05735445022583,-6.700222969055176,-6.23574686050415
1761399398895719000,10.738718994140624,2.3230392932891846,-3.3223724365234375,-4.011230945587158
1761399398915885600,10.758885498046874,1.8628690242767334,0.12790298461914062,-1.186678409576416
1761399398936021200,10.779021240234375,1.778294563293457,2.680241584777832,0.3856830596923828
1761399398956207600,10.79920751953125,0.8858873844146729,-2.658951759338379,-0.7712068557739258
1761399398976369700,10.81936962890625,-0.7972646951675415,-11.633523941040039,-0.6123452186584473
1761399398996530700,10.83953076171875,-4.1339335441589355,-4.8625030517578125,-1.2823266983032227
1761399399016671000,10.8596708984375,-4.707517623901367,4.917298793792725,2.4159812927246094
1761399399036853500,10.879853515625,-3.391800880432129,7.648136138916016,6.004490375518799
1761399399057003300,10.900003173828125,-4.250536918640137,3.5458946228027344,6.173480033874512
1761399399077176800,10.9201767578125,-5.523706436157227,-4.212596893310547,2.566099166870117
1761399399097338000,10.940338134765625,-4.07252311706543,-6.861035346984863,-0.12705683708190918
1761399399117499400,10.96049951171875,-1.4888122081756592,-3.91055965423584,-2.0218722820281982
1761399399137660700,10.98066064453125,-1.4256757497787476,0.7380847930908203,1.068676471710205
1761399399157821200,11.0008212890625,-1.5405982732772827,0.7508754730224609,0.907463788986206
1761399399177987600,11.020987548828124,-1.5191717147827148,0.20607662200927734,0.8341927528381348
1761399399198140700,11.041140625,-1.7093045711517334,0.2896442413330078,0.4515092372894287
1761399399218301700,11.0613017578125,-1.4593749046325684,0.8316516876220703,0.4314737319946289
1761399399238467300,11.08146728515625,-1.3655352592468262,1.3046455383300781,0.7908346652984619
1761399399258628600,11.101628662109375,-0.9113305807113647,1.3295445442199707,0.5429244041442871
1761399399278745000,11.1217451171875,-0.2302059531211853,1.3331212997436523,0.0982353687286377
1761399399298952000,11.141951904296874,0.29817092418670654,1.3086414337158203,-0.5867147445678711
1761399399319113200,11.16211328125,0.7110825181007385,1.0340309143066406,-0.9296507835388184
1761399399339274500,11.1822744140625,0.6419421434402466,0.8748960494995117,-1.3669629096984863
1761399399359436300,11.202436279296874,-0.23979893326759338,1.2505607604980469,-1.655750036239624
1761399399379596800,11.2225966796875,-0.8648957014083862,0.7626266479492188,-1.2331233024597168
1761399399399757800,11.2427578125,-0.46884408593177795,-0.07365703582763672,-0.1741185188293457
1761399399419919400,11.26291943359375,0.4641917943954468,-0.9710254669189453,-0.08778679370880127
1761399399440081000,11.283080810546876,0.5768661499023438,-0.5968828201293945,-1.8606380224227905
1761399399460242400,11.303242431640625,-0.6449868083000183,0.31017494201660156,-4.249616622924805
1761399399480400000,11.32339990234375,-1.5534336566925049,0.09091854095458984,-5.307101726531982
1761399399500541200,11.343541259765624,-0.25895175337791443,-0.7076206207275391,-4.419172286987305
1761399399520726800,11.363726806640624,0.21260447800159454,-0.6316184997558594,-3.739414691925049
1761399399540883700,11.3838837890625,-1.5728365182876587,-0.971369743347168,-6.110179901123047
1761399399561049300,11.40404931640625,-2.5297863483428955,-0.6733083724975586,-6.875118255615234
1761399399581211100,11.424211181640626,-1.4928443431854248,-0.7223415374755859,-4.123154163360596
1761399399601368000,11.4443681640625,0.39712876081466675,-2.2339582443237305,0.13730788230895996
1761399399621534000,11.464533935546875,1.2141869068145752,-5.536480903625488,2.7210822105407715
1761399399641669400,11.48466943359375,-1.2798627614974976,-4.793424606323242,4.248381614685059
1761399399661838300,11.50483837890625,-3.438540458679199,-2.1784305572509766,3.7715401649475098
1761399399682017800,11.525017822265625,-3.521516799926758,-1.2759933471679688,0.6938583850860596
1761399399702178600,11.545178466796875,-1.763518214225769,-1.4162788391113281,-2.4036290645599365
1761399399722340000,11.565340087890625,-2.317294120788574,-0.4086313247680664,-2.8760530948638916
1761399399742502100,11.585502197265624,-3.0062193870544434,0.06958580017089844,-1.7330694198608398
1761399399762663400,11.605663330078125,-2.869373083114624,-0.16175079345703125,-0.02274632453918457
1761399399782798800,11.625798828125,-2.526293992996216,-0.5507802963256836,1.1933717727661133
1761399399802981600,11.645981689453125,-2.9837660789489746,-0.5235776901245117,2.0850236415863037
1761399399823122000,11.666121826171874,-2.612501382827759,0.27301979064941406,3.0730605125427246
1761399399843309000,11.68630908203125,-1.62852144241333,0.2650117874145508,4.591535568237305
1761399399863465700,11.7064658203125,-1.9474657773971558,0.4295024871826172,3.8112072944641113
1761399399883631600,11.726631591796876,-1.4714007377624512,1.0400700569152832,3.4135797023773193
1761399399903793700,11.746793701171875,-1.5916123390197754,1.6454668045043945,3.63333797454834
1761399399923928800,11.7669287109375,-1.460507869720459,2.209526538848877,4.414716720581055
1761399399944090000,11.787090087890626,-1.106065034866333,2.4234542846679688,4.952053070068359
1761399399964240400,11.807240478515626,-0.9017796516418457,2.168367385864258,4.796627998352051
1761399399984438500,11.8274384765625,-0.16860055923461914,1.896533489227295,3.4970695972442627
1761399400004600000,11.84760009765625,1.0719859600067139,1.5243701934814453,1.5866880416870117
1761399400024761600,11.86776171875,2.980987548828125,0.3201913833618164,-1.249260425567627
1761399400044923000,11.8879228515625,3.298243999481201,-2.0004491806030273,-5.169958114624023
1761399400065083600,11.908083740234375,2.2491631507873535,-3.5645627975463867,-8.26443099975586
1761399400085245200,11.9282451171875,0.40353405475616455,-0.940922737121582,-6.840644836425781
1761399400105406500,11.948406494140626,0.9614518880844116,1.7240009307861328,-3.3944091796875
1761399400125568500,11.968568603515624,2.9617366790771484,3.004365921020508,-1.2836713790893555
1761399400145706000,11.9887060546875,0.7226060628890991,-5.791983604431152,-0.7500209808349609
1761399400165890300,12.008890380859375,-1.2725179195404053,-10.105400085449219,0.7576627731323242
1761399400186006000,12.029006103515625,-3.835616111755371,-2.1972503662109375,2.829718589782715
1761399400206214000,12.0492138671875,0.25891339778900146,3.68424129486084,6.255558967590332
1761399400226375400,12.06937548828125,-0.6273260712623596,5.651237487792969,5.252202033996582
1761399400246537000,12.089536865234376,-3.033360004425049,2.6664533615112305,6.171098709106445
1761399400266697500,12.109697509765626,-5.7607903480529785,-4.22751522064209,3.290642261505127
1761399400286834000,12.129833984375,-4.030503273010254,-6.871883392333984,0.17327260971069336
1761399400307020800,12.150020751953125,-0.8600831627845764,-2.6819543838500977,-1.3014354705810547
1761399400327160000,12.17016015625,-1.119727611541748,0.5050296783447266,1.7417736053466797
1761399400347344000,12.19034375,-0.4529224634170532,0.22357654571533203,3.082456111907959
1761399400367505200,12.210505126953125,-0.5431109666824341,-0.5379304885864258,2.6095707416534424
1761399400387666200,12.230666259765625,-0.6737449765205383,-0.09831428527832031,1.5833909511566162
1761399400407808000,12.25080810546875,-0.7337996959686279,0.6840810775756836,0.5809268951416016
1761399400427992300,12.270992431640625,-0.9729962348937988,1.075913429260254,0.12226247787475586
1761399400448146700,12.291146728515624,-0.7754907608032227,1.1356487274169922,0.10113310813903809
1761399400468286700,12.31128662109375,-0.20250995457172394,1.1542978286743164,0.10397672653198242
1761399400488473000,12.33147314453125,0.29707950353622437,1.1938791275024414,-0.07948851585388184
1761399400508635100,12.35163525390625,0.553530216217041,1.302764892578125,-0.08918190002441406
1761399400528796200,12.371796142578125,0.6393587589263916,1.3707704544067383,-0.3236405849456787
1761399400548931800,12.391931884765626,0.5396167635917664,1.1802129745483398,-0.3830709457397461
1761399400569118200,12.4121181640625,0.48911333084106445,0.49829959869384766,-0.7661066055297852
1761399400589255400,12.43225537109375,0.8995363712310791,0.2869701385498047,-0.7190878391265869
1761399400609441300,12.452441162109375,1.2283687591552734,-0.07441425323486328,-1.5750799179077148
1761399400629599000,12.472598876953125,0.6565048694610596,-0.38041114807128906,-1.6470386981964111
1761399400649764600,12.4927646484375,-0.22380471229553223,-0.8905544281005859,-2.454599380493164
1761399400690082800,12.533082763671874,1.1147125959396362,-0.6967220306396484,-3.8882174491882324
1761399400710223400,12.553223388671874,0.6089030504226685,-0.5991735458374023,-4.705413341522217
1761399400730409700,12.57340966796875,0.04231405258178711,-1.0030021667480469,-5.900481224060059
1761399400750571000,12.593571044921875,0.8920236825942993,-1.8199710845947266,-4.309380531311035
1761399400770732500,12.613732666015625,2.5213091373443604,-2.915585517883301,-0.4852633476257324
1761399400790886000,12.633885986328124,2.4769606590270996,-2.041661262512207,1.887582778930664
1761399400811054800,12.654054931640625,2.367215633392334,-3.434011459350586,3.709723472595215
1761399400831216000,12.674216064453125,0.046875208616256714,-4.350168228149414,5.075660228729248
1761399400851332000,12.69433203125,-0.8787426352500916,-3.5521316528320312,4.687754154205322
1761399400871539700,12.714539794921874,0.047973573207855225,-2.5598487854003906,2.8684818744659424
1761399400891701000,12.734700927734375,0.4880563020706177,-2.5090904235839844,0.8752796649932861
1761399400911862300,12.7548623046875,-0.417539119720459,-1.400507926940918,0.3633253574371338
1761399400932023600,12.7750234375,-0.8491264581680298,-0.5559530258178711,0.48879528045654297
1761399400952180700,12.7951806640625,-1.171765923500061,0.33400535583496094,0.7901496887207031
1761399400972345900,12.815345947265625,-1.7824589014053345,0.5509090423583984,2.1449406147003174
1761399400992487000,12.83548681640625,-2.291950225830078,0.6701974868774414,3.3399014472961426
1761399401012664800,12.855664794921875,-2.0583059787750244,1.1290431022644043,4.011557102203369
1761399401032831000,12.8758310546875,-1.560742974281311,1.7533035278320312,4.192389011383057
1761399401052992300,12.8959921875,-1.2071136236190796,2.110238552093506,5.237454414367676
1761399401073154000,12.916154052734376,-1.433168888092041,2.994746208190918,5.295263290405273
1761399401093300000,12.936300048828125,-1.6930341720581055,3.6936535835266113,4.734376907348633
1761399401113476000,12.95647607421875,-1.511454463005066,3.900449752807617,4.393572807312012
1761399401133612300,12.9766123046875,-1.3285359144210815,3.722891330718994,3.9570047855377197
1761399401153799400,12.99679931640625,-0.859278678894043,2.4328298568725586,2.5075454711914062
1761399401173960200,13.016960205078124,1.6941697597503662,0.1883230209350586,-0.16740846633911133
1761399401194121700,13.037121826171875,5.599003791809082,-2.9862756729125977,-3.7500553131103516
1761399401214258200,13.057258056640626,4.6465606689453125,-6.778118133544922,-8.40565299987793
1761399401234419000,13.0774189453125,4.104733467102051,-3.717885971069336,-6.542628288269043
1761399401254605600,13.09760546875,5.394894599914551,-0.4150848388671875,-2.3976192474365234
1761399401274767400,13.117767333984375,3.5991485118865967,2.8982324600219727,0.03733015060424805
1761399401294929200,13.13792919921875,2.9686734676361084,5.068573474884033,2.0220043659210205
1761399401315064600,13.158064697265624,1.513418197631836,-1.6564359664916992,3.0261197090148926
1761399401335226000,13.17822607421875,1.0848993062973022,-10.615782737731934,3.2801475524902344
1761399401355387100,13.19838720703125,-3.3243634700775146,-6.879624366760254,1.2724575996398926
1761399401375537400,13.218537353515625,-1.7829463481903076,1.737699031829834,1.930204153060913
1761399401395719200,13.23871923828125,-2.9571433067321777,3.356598377227783,4.344616413116455
1761399401415896600,13.258896484375,-2.8950557708740234,1.9369688034057617,6.8939619064331055
1761399401436033300,13.279033203125,-3.811664581298828,-0.7917165756225586,4.7938361167907715
1761399401456219400,13.299219482421876,-4.382807731628418,-5.235603332519531,-0.2887883186340332
1761399401476380700,13.319380615234374,-1.1763643026351929,-2.441636085510254,-1.7105553150177002
1761399401496542700,13.339542724609375,-0.25527656078338623,0.4470071792602539,-1.0613255500793457
1761399401516703200,13.359703125,0.42614954710006714,0.6075839996337891,1.263444423675537
1761399401536866000,13.379865966796874,0.19069787859916687,0.10361385345458984,2.806145191192627
1761399401557001500,13.40000146484375,-0.13396784663200378,0.4405937194824219,2.586501121520996
1761399401577162200,13.420162353515625,-0.6449791193008423,1.0810480117797852,1.3127555847167969
1761399401597349600,13.440349609375,-0.6836659908294678,1.2398200035095215,-0.7374739646911621
1761399401617485300,13.4604853515625,-0.5287865400314331,1.0081496238708496,-1.5661144256591797
1761399401637698000,13.480697998046875,0.0405580997467041,0.7074880599975586,-1.3099236488342285
1761399401657834200,13.500834228515625,1.0096346139907837,0.6977634429931641,-0.7215757369995117
1761399401677993700,13.52099365234375,2.0325019359588623,0.3360128402709961,-0.16173171997070312
1761399401698153500,13.541153564453126,1.8338267803192139,-0.02237701416015625,0.14036917686462402
1761399401718278100,13.561278076171876,1.2178386449813843,0.15219879150390625,0.37621593475341797
1761399401738479400,13.581479248046875,0.5719236731529236,0.557774543762207,0.4416472911834717
1761399401758615000,13.601614990234374,0.6678568124771118,0.2344207763671875,0.008191823959350586
1761399401778798000,13.621798095703125,0.7888098955154419,0.5179586410522461,-1.0448424816131592
1761399401798938000,13.641938232421875,0.8601157069206238,-0.16135120391845703,-1.9373340606689453
1761399401819124200,13.662124267578125,0.6522812843322754,-0.39609622955322266,-0.9389042854309082
1761399401839260700,13.6822607421875,0.09977567195892334,-0.8625087738037109,-0.9568963050842285
1761399401859447800,13.70244775390625,0.16184568405151367,-0.8757410049438477,-1.4717655181884766
1761399401879609000,13.722609130859375,0.6110215187072754,-0.5859699249267578,-1.4482593536376953
1761399401899770400,13.742770263671876,0.05406355857849121,-0.9354972839355469,-2.1534481048583984
1761399401919934500,13.7629345703125,0.8749780654907227,-1.4013118743896484,-3.943626880645752
1761399401940093000,13.783093017578125,1.007612943649292,-1.6405019760131836,-4.114075660705566
1761399401960254000,13.80325390625,1.0813580751419067,-2.936717987060547,-1.7375729084014893
1761399401980415500,13.82341552734375,2.2630887031555176,-3.117804527282715,2.302393913269043
1761399402000577300,13.843577392578124,1.965103030204773,-4.541011810302734,5.145966053009033
1761399402020738800,13.86373876953125,-0.014476954936981201,-5.294796943664551,7.086210250854492
1761399402040896800,13.883896728515625,-0.5393334627151489,-3.86319637298584,6.4369330406188965
1761399402061035800,13.904035888671874,-0.13048207759857178,-2.4720983505249023,3.8651669025421143
1761399402081223000,13.924222900390625,-0.10157990455627441,-3.0134410858154297,1.2395639419555664
1761399402101358600,13.944358642578125,-1.2073029279708862,-2.1722230911254883,0.6979923248291016
1761399402121546000,13.9645458984375,-1.52531099319458,-0.6605749130249023,0.7913317680358887
1761399402141707500,13.98470751953125,-1.2882509231567383,0.1922454833984375,1.1530914306640625
1761399402161864400,14.004864501953126,-1.536584734916687,0.1720266342163086,3.1146769523620605
1761399402182004200,14.025004150390625,-2.656541585922241,0.16630983352661133,3.9098458290100098
1761399402202190800,14.04519091796875,-1.9802006483078003,0.6916685104370117,4.184422492980957
1761399402222352100,14.06535205078125,-1.495225429534912,1.3870749473571777,4.732120037078857
1761399402242513700,14.085513671875,-0.9166576862335205,1.500490665435791,5.571091175079346
1761399402262675000,14.105675048828125,-0.9005680084228516,1.9308366775512695,5.4317779541015625
1761399402282836700,14.125836669921876,-1.1905620098114014,2.5227112770080566,5.047150135040283
1761399402302998300,14.145998291015625,-1.4629008769989014,2.658830165863037,4.29099178314209
1761399402323159600,14.16615966796875,-1.3032641410827637,2.5704498291015625,3.3554844856262207
1761399402343343900,14.18634375,-0.4257957935333252,2.1726460456848145,2.3562703132629395
1761399402363477500,14.2064775390625,1.1704554557800293,0.9621701240539551,1.382845401763916
1761399402383643400,14.226643310546875,2.9775636196136475,-1.2680768966674805,0.5867791175842285
1761399402403805200,14.24680517578125,4.204106330871582,-3.308018684387207,-0.3335256576538086
1761399402423970600,14.266970458984375,4.645099639892578,-4.532390594482422,-2.1705126762390137
1761399402444127200,14.287127197265624,4.049737930297852,-3.148031234741211,-2.476620674133301
1761399402464288800,14.307288818359375,3.395167589187622,-1.0252695083618164,-1.1165051460266113
1761399402484450600,14.327450439453125,2.6495330333709717,1.813079833984375,0.2246541976928711
1761399402504611600,14.347611572265626,2.5820531845092773,4.582761764526367,0.7887759208679199
1761399402524773600,14.367773681640625,3.5865561962127686,4.7595295906066895,1.2184686660766602
1761399402544934400,14.387934326171875,2.181600570678711,-3.740734577178955,1.9909768104553223
1761399402565096400,14.408096435546875,2.4530372619628906,-12.786072731018066,3.4452834129333496
1761399402585257700,14.4282578125,-2.8785717487335205,-8.770870208740234,1.2642874717712402
1761399402605418800,14.448418701171875,-2.709078073501587,2.3938651084899902,1.7823681831359863
1761399402625579800,14.468579833984375,-3.553074359893799,4.4039106369018555,5.196045875549316
1761399402645716200,14.48871630859375,-1.6286547183990479,1.8959579467773438,7.50568962097168
1761399402665902600,14.508902587890624,-2.556954860687256,-0.8137998580932617,5.254958152770996
1761399402686043000,14.52904296875,-3.9150261878967285,-6.830595970153809,-0.5080764293670654
1761399402706201000,14.549201171875,-1.7771557569503784,-2.330533981323242,-0.8975772857666016
1761399402726387200,14.56938720703125,-1.1961820125579834,0.08870315551757812,0.1645960807800293
1761399402746548500,14.589548583984374,-0.4203089475631714,-0.34011363983154297,1.4519915580749512
1761399402766710300,14.609710205078125,0.6525381803512573,-0.5724020004272461,2.951765775680542
1761399402786871300,14.629871337890625,0.989675760269165,-0.3801755905151367,2.9729208946228027
1761399402807032300,14.6500322265625,0.13906711339950562,0.6667308807373047,1.3874115943908691
1761399402827193600,14.670193603515624,-0.45195460319519043,0.8723001480102539,-0.9150333404541016
1761399402847355400,14.69035546875,-0.3044416904449463,0.5607013702392578,-2.196572780609131
1761399402867516700,14.7105166015625,0.09239882230758667,0.7272396087646484,-2.248342275619507
1761399402887678000,14.730677978515626,0.46667301654815674,1.0654830932617188,-1.763239860534668
1761399402907840300,14.75084033203125,0.7289015054702759,1.1446523666381836,-1.6000087261199951
1761399402927998200,14.770998291015625,0.8501600027084351,0.7319269180297852,-1.4032905101776123
1761399402948165000,14.7911650390625,0.7365406155586243,0.5137958526611328,-0.7758965492248535
1761399402968323000,14.811322998046874,0.38539958000183105,0.6836633682250977,-0.3829467296600342
1761399402988449000,14.831448974609375,0.11591553688049316,1.0033607482910156,-0.11607789993286133
1761399403008647200,14.851647216796875,0.425240159034729,0.8333816528320312,-0.32679295539855957
1761399403028808200,14.87180810546875,1.1296117305755615,0.6086196899414062,-0.36477065086364746
1761399403048969200,14.89196923828125,1.3785600662231445,0.5575799942016602,-0.5462465286254883
1761399403069130800,14.912130859375,1.2565739154815674,0.5086793899536133,-0.9943020343780518
1761399403089271000,14.93227099609375,0.8744275569915771,0.19095420837402344,-1.6976542472839355
1761399403109453000,14.952453125,1.5800299644470215,-0.1237802505493164,-2.3472251892089844
1761399403129614300,14.9726142578125,1.9534428119659424,-0.29244041442871094,-2.1185054779052734
1761399403149776100,14.992776123046875,1.8524237871170044,-0.680485725402832,-1.1718478202819824
1761399403169937200,15.012937255859375,1.1590834856033325,-0.9309844970703125,-1.7773377895355225
1761399403190094800,15.0330947265625,1.578750729560852,-0.6319561004638672,-1.7692370414733887
1761399403210260700,15.0532607421875,1.6185251474380493,-0.8738517761230469,-1.8426035642623901
1761399403230421500,15.07342138671875,1.8868508338928223,-1.5255107879638672,-3.1342692375183105
1761399403250579500,15.093579345703125,0.7981576919555664,-0.7968902587890625,-3.853455066680908
1761399403270744000,15.113744140625,0.8315152525901794,-2.1899166107177734,-4.1638288497924805
1761399403290906400,15.13390625,2.2204737663269043,-3.1804590225219727,-1.111098051071167
1761399403311067600,15.154067626953125,3.2241530418395996,-2.4759445190429688,1.6302669048309326
1761399403331203600,15.17420361328125,2.2388017177581787,-2.909600257873535,3.573672294616699
1761399403351389700,15.1943896484375,0.6072704792022705,-2.5095252990722656,4.421356201171875
1761399403371528700,15.21452880859375,-0.18033868074417114,-0.6889724731445312,3.339524269104004
1761399403391687700,15.234687744140626,0.0794837474822998,-0.5692281723022461,1.0381498336791992
1761399403411874600,15.25487451171875,0.6135534644126892,-1.8847541809082031,-0.47115039825439453
1761399403432035300,15.275035400390625,-0.16812074184417725,-2.3752174377441406,-0.36017680168151855
1761399403452196900,15.29519677734375,-0.60797518491745,-1.3291950225830078,0.7061269283294678
1761399403472357600,15.315357666015625,-1.1883256435394287,-0.0013475418090820312,1.5365283489227295
1761399403492522500,15.3355224609375,-1.8629268407821655,0.4497699737548828,2.3855209350585938
1761399403512677600,15.355677734375,-1.884007215499878,0.504460334777832,2.5750021934509277
1761399403532842800,15.3758427734375,-1.5202900171279907,0.7568602561950684,2.348111152648926
1761399403553004300,15.39600439453125,-1.161666989326477,1.2145156860351562,2.1541876792907715
1761399403573139500,15.416139404296874,-1.3251299858093262,2.1355409622192383,1.9125834703445435
1761399403593326300,15.436326416015625,-1.7193970680236816,3.4789505004882812,1.3875045776367188
1761399403613488600,15.456488525390625,-1.8955974578857422,4.436968803405762,1.0404431819915771
1761399403633624000,15.4766240234375,-1.5431373119354248,4.609070301055908,0.9690937995910645
1761399403653811500,15.4968115234375,-1.04024338722229,3.9874157905578613,0.6656486988067627
1761399403673972200,15.51697216796875,0.0011355876922607422,3.22186279296875,-0.13164114952087402
1761399403694133500,15.537133544921875,1.6366829872131348,2.34415340423584,-1.4245004653930664
1761399403714295300,15.55729541015625,3.8206913471221924,0.9730033874511719,-2.9387099742889404
1761399403734442000,15.57744189453125,4.454385280609131,-1.0513086318969727,-4.133849620819092
1761399403754617900,15.597617919921875,4.752681732177734,-2.6514625549316406,-4.380705833435059
1761399403774779000,15.61777880859375,4.566648483276367,-2.010727882385254,-3.074201822280884
1761399403794940400,15.6379404296875,3.3841309547424316,-0.5047159194946289,-1.496058464050293
1761399403815101400,15.658101318359375,2.852531909942627,1.0318164825439453,0.03058624267578125
1761399403835263500,15.678263427734375,2.571582078933716,-3.0720434188842773,-0.06908726692199707
1761399403855406600,15.698406494140626,3.6697046756744385,-9.56030559539795,0.8729183673858643
1761399403875586000,15.7185859375,0.5206112861633301,-5.581480026245117,0.3695213794708252
1761399403895722200,15.73872216796875,-4.546258926391602,6.3450517654418945,2.55484676361084
1761399403915883500,15.758883544921876,-2.7630786895751953,7.674461841583252,5.098967552185059
1761399403936045000,15.779045166015624,-4.043086528778076,2.780956745147705,5.784611225128174
1761399403956232400,15.799232421875,-5.8325676918029785,-3.4303245544433594,3.0615458488464355
1761399403976393500,15.8193935546875,-5.9243011474609375,-7.039059638977051,-3.7564897537231445
1761399403996554000,15.839553955078125,-2.499296188354492,-1.5277433395385742,-3.7540829181671143
1761399404016715800,15.8597158203125,-2.8440253734588623,2.2575807571411133,-1.4865849018096924
1761399404036872200,15.8798720703125,-1.9257214069366455,1.2297782897949219,0.18949031829833984
1761399404057025800,15.90002587890625,-0.6303434371948242,-0.3087186813354492,0.34264707565307617
1761399404077199600,15.92019970703125,-0.8158695101737976,-0.46045684814453125,0.1440744400024414
1761399404097361700,15.940361572265624,-0.5101493000984192,0.40909385681152344,-0.0760962963104248
1761399404117522400,15.9605224609375,-0.6165664792060852,1.2548036575317383,-0.006417274475097656
1761399404137684500,15.9806845703125,-1.5978195667266846,1.8431529998779297,0.2738068103790283
1761399404157845800,16.000845703125,-1.3190776109695435,1.744375228881836,-0.6275961399078369
1761399404178005000,16.0210048828125,-0.7918745875358582,0.9050464630126953,-1.7666935920715332
1761399404198165800,16.041165771484376,-0.05957256630063057,1.261906623840332,-2.022461414337158
1761399404218329600,16.06132958984375,1.488114595413208,1.0584335327148438,-1.8665072917938232
1761399404238491600,16.08149169921875,1.6055911779403687,0.3441009521484375,-1.0751616954803467
1761399404258633500,16.101633544921874,0.573026180267334,0.22076988220214844,-0.7366993427276611
1761399404278788400,16.121788330078125,-0.10647879540920258,0.7951374053955078,-0.30291080474853516
1761399404298974700,16.141974609375,-0.5393822193145752,0.8229312896728516,-0.24352192878723145
1761399404319137000,16.162136962890624,-0.18519768118858337,0.38327503204345703,-0.5846326351165771
1761399404339293700,16.182293701171876,-0.047971636056900024,-0.048999786376953125,-1.2890560626983643
1761399404359459300,16.202459228515625,0.28244680166244507,0.21433734893798828,-1.3302226066589355
1761399404379620000,16.2226201171875,0.6268672943115234,-0.3781013488769531,-1.3087289333343506
1761399404399777800,16.24277783203125,0.920290470123291,-0.5707883834838867,-0.5103650093078613
1761399404419943400,16.262943359375,0.9869259595870972,-0.6743574142456055,-0.8901293277740479
1761399404440105500,16.28310546875,0.38859137892723083,0.12715625762939453,-1.8319506645202637
1761399404460240600,16.30324072265625,-0.17810353636741638,0.5639934539794922,-1.8564560413360596
1761399404480383200,16.32338330078125,-1.7528020143508911,0.5430936813354492,-3.2555863857269287
1761399404500588800,16.3435888671875,-2.1556124687194824,-0.07327747344970703,-5.453734874725342
1761399404520749600,16.36374951171875,-0.9401477575302124,-2.543604850769043,-4.85317850112915
1761399404540911400,16.383911376953126,1.0682542324066162,-3.4224624633789062,-0.8939645290374756
1761399404561073700,16.40407373046875,0.20495367050170898,-2.999347686767578,2.5263831615448
1761399404581211600,16.424211669921874,-2.713754653930664,-4.135829925537109,1.8174728155136108
1761399404601370400,16.444370361328126,-5.29460334777832,-2.847905158996582,2.1505441665649414
1761399404621532200,16.4645322265625,-5.8249664306640625,-0.6509885787963867,-0.20167279243469238
1761399404641702400,16.484702392578125,-3.9002370834350586,-0.9507122039794922,-3.1380720138549805
1761399404661879600,16.504879638671873,-4.122429847717285,-1.1721572875976562,-3.5045104026794434
1761399404682017800,16.525017822265625,-4.5442728996276855,-1.5935239791870117,-2.2293338775634766
1761399404702203100,16.545203125,-4.630181312561035,-2.4645333290100098,-0.24035978317260742
1761399404722328600,16.56532861328125,-5.513571739196777,-1.6305489540100098,-0.004715442657470703
1761399404742525400,16.585525390625,-5.718863487243652,-0.38791513442993164,1.286881923675537
1761399404762686500,16.6056865234375,-5.777291774749756,0.6081924438476562,2.2299177646636963
1761399404782848000,16.625847900390625,-5.68882942199707,0.4432854652404785,1.8202440738677979
1761399404802984400,16.645984375,-5.372493267059326,-0.3099350929260254,0.7717485427856445
1761399404823172000,16.666172119140626,-4.379251003265381,-1.1094865798950195,1.0166356563568115
1761399404843332900,16.686332763671874,-3.3996481895446777,-0.8353977203369141,1.1375925540924072
1761399404863493600,16.70649365234375,-2.231175422668457,-0.7860164642333984,1.6954736709594727
1761399404883655700,16.72665576171875,-1.6706187725067139,-1.1955881118774414,1.3388502597808838
1761399404903816700,16.746816650390624,-1.673365831375122,-1.7861738204956055,0.6151268482208252
1761399404923974000,16.766973876953124,-1.6527516841888428,-1.7625818252563477,0.4678530693054199
1761399404944139300,16.78713916015625,-1.4400224685668945,-0.917755126953125,1.007051706314087
1761399404964300800,16.80730078125,-1.4324110746383667,0.21767711639404297,1.522657871246338
1761399404984462600,16.827462646484374,-1.1840391159057617,1.2398481369018555,1.5746822357177734
1761399405004598000,16.847597900390625,-0.9711499214172363,1.7338824272155762,1.2171008586883545
1761399405024785000,16.867784912109375,-0.8719137907028198,1.622610092163086,0.48602724075317383
1761399405044946400,16.887946533203124,-1.066794753074646,1.0072546005249023,-0.668217658996582
1761399405065107500,16.908107421875,-1.240289330482483,0.2749786376953125,-1.6826014518737793
1761399405085268700,16.928268798828125,-1.0737440586090088,-0.0847768783569336,-2.0168895721435547
1761399405105431000,16.94843115234375,-0.3782707452774048,0.07812118530273438,-1.7223644256591797
1761399405125592000,16.968592041015626,-0.11055588722229004,0.4734163284301758,-1.6549878120422363
1761399405145732400,16.988732421875,-0.28652405738830566,0.6877841949462891,-1.4567837715148926
1761399405165915000,17.008914794921875,-0.6302037239074707,1.0233631134033203,-0.590339183807373
1761399405186099500,17.029099365234377,-0.6526908874511719,2.2947616577148438,0.5469627380371094
1761399405206238200,17.04923828125,-0.015071392059326172,2.6504592895507812,0.8053767681121826
1761399405226398200,17.069398193359376,0.04790019989013672,-1.3727655410766602,0.144561767578125
1761399405246560300,17.089560302734377,-1.746480941772461,-9.696999549865723,-2.0752296447753906
1761399405266722000,17.10972216796875,0.4277045726776123,-8.776193618774414,-0.7694649696350098
1761399405286882600,17.129882568359374,0.30730485916137695,-1.3252229690551758,1.1033341884613037
1761399405307018800,17.150018798828125,-1.9218066930770874,2.710892677307129,0.9388368129730225
1761399405327205400,17.170205322265623,-4.22780704498291,4.140561580657959,0.9433860778808594
1761399405347366700,17.19036669921875,-4.848541259765625,2.768695831298828,1.9211699962615967
1761399405367528400,17.210528564453124,-3.78515887260437,0.32538795471191406,2.957242488861084
1761399405387690000,17.23068994140625,-3.0267629623413086,-2.0882606506347656,1.6590617895126343
1761399405407825400,17.250825439453124,-1.8901047706604004,-2.4578170776367188,-0.3962290287017822
1761399405428010000,17.271010009765625,-0.5054746866226196,-0.970911979675293,-0.8410499095916748
1761399405448170500,17.29117041015625,-0.5883219242095947,-0.2263650894165039,0.4451301097869873
1761399405468334800,17.3113349609375,-1.2409285306930542,0.5362215042114258,1.8025875091552734
1761399405488492500,17.331492431640626,-1.627740740776062,0.06461334228515625,1.3117138147354126
1761399405508658000,17.351657958984376,-1.2357131242752075,-0.2967338562011719,0.1372208595275879
1761399405528793300,17.37179345703125,-0.633122444152832,-0.22654247283935547,-0.3098576068878174
1761399405548955100,17.391955078125,-0.8690242171287537,-0.06387901306152344,-0.5539674758911133
1761399405569141800,17.412141845703125,-0.8953857421875,0.1734914779663086,-0.8707048892974854
1761399405589304000,17.432303955078126,-0.8550280332565308,0.25312232971191406,-0.7099785804748535
1761399405609464800,17.45246484375,-1.1395106315612793,0.17716026306152344,-0.3529961109161377
1761399405629626600,17.472626708984375,-1.131931185722351,-0.0066318511962890625,0.42688512802124023
1761399405649787400,17.492787353515624,-0.9253867864608765,-0.23058223724365234,0.6950891017913818
1761399405669933300,17.512933349609376,-0.8401013612747192,-0.8400678634643555,0.376676082611084
1761399405690082800,17.533082763671874,-0.6961676478385925,-0.5980081558227539,0.15825867652893066
1761399405710271500,17.553271484375,-0.810195803642273,-0.10048294067382812,0.380817174911499
1761399405730433500,17.57343359375,-0.8681337833404541,0.0647592544555664,0.5766172409057617
1761399405750591000,17.593591064453125,-0.8805924654006958,-0.2426443099975586,0.6501450538635254
1761399405770756600,17.613756591796875,-0.7072782516479492,-0.15338611602783203,0.37308764457702637
1761399405790893300,17.633893310546874,-0.32448557019233704,-0.1547079086303711,0.17335009574890137
1761399405811074800,17.65407470703125,0.29469773173332214,-0.5484628677368164,0.9446136951446533
1761399405831239700,17.67423974609375,0.7270306348800659,-0.11551952362060547,0.5019235610961914
1761399405851401200,17.694401123046877,0.6871476173400879,-0.18851661682128906,0.05833268165588379
1761399405871562500,17.7145625,0.6723716259002686,-0.5172595977783203,0.5142133235931396
1761399405891724300,17.734724365234374,0.3285464942455292,-0.5012826919555664,0.4673483371734619
1761399405911885300,17.75488525390625,-0.3891932964324951,-0.2644205093383789,-0.007694721221923828
1761399405932046600,17.775046630859375,-1.2104763984680176,-0.9254474639892578,-0.6067707538604736
1761399405952208400,17.79520849609375,-1.8101245164871216,-1.9383277893066406,-0.29264378547668457
1761399405972371000,17.815370849609376,-1.5677900314331055,-1.9023151397705078,-0.0918877124786377
1761399405992519700,17.835519775390626,-0.3621300756931305,-1.9146842956542969,-0.32123684883117676
1761399406012692200,17.855692138671873,0.6662242412567139,-1.1943788528442383,0.14665603637695312
1761399406032853800,17.875853759765626,0.884114146232605,-0.6791677474975586,0.5356574058532715
1761399406053015000,17.89601513671875,0.30378589034080505,-1.0199718475341797,1.08695387840271
1761399406073183000,17.916182861328124,0.28196680545806885,-0.6569509506225586,1.010110855102539
1761399406093337900,17.936337890625,0.04839825630187988,-1.4701967239379883,0.5092527866363525
1761399406113499400,17.95649951171875,0.06073760986328125,-1.8242902755737305,0.5932273864746094
1761399406133635600,17.976635498046875,0.0038247108459472656,-2.268122673034668,0.5732207298278809
1761399406153822000,17.996822021484373,0.1116706132888794,-2.532534599304199,1.243274211883545
1761399406173984300,18.016984375,-0.21096700429916382,-2.885547637939453,1.3152761459350586
1761399406194144500,18.03714453125,-0.14600110054016113,-2.431948661804199,1.478856086730957
1761399406214281200,18.05728125,-0.19251763820648193,-2.7826709747314453,1.4731392860412598
1761399406234468000,18.077468017578123,-0.10130041837692261,-2.8960914611816406,1.7256169319152832
1761399406254606800,18.09760693359375,0.4800856113433838,-2.401521682739258,1.7740578651428223
1761399406274790400,18.117790283203124,0.38309788703918457,-2.6672182083129883,1.8805177211761475
1761399406294926600,18.137926513671875,0.5665647983551025,-2.207223892211914,1.651841163635254
1761399406315089000,18.1580888671875,1.4834034442901611,-1.8970870971679688,1.2689595222473145
1761399406335275000,18.17827490234375,3.0937001705169678,-0.9421253204345703,1.8240718841552734
1761399406355435500,18.198435546875,2.587306499481201,0.14743518829345703,2.198700428009033
1761399406375598000,18.21859814453125,3.261431932449341,0.7132320404052734,1.947476863861084
1761399406395759600,18.238759521484376,3.4774441719055176,1.6066179275512695,2.294680118560791
1761399406415882000,18.258882080078124,3.823638916015625,2.9226646423339844,2.182767868041992
1761399406436056300,18.279056396484375,3.8456640243530273,4.039460182189941,0.11099386215209961
1761399406456219000,18.299218994140624,3.819795608520508,3.948080062866211,-1.9210624694824219
1761399406476403700,18.31940380859375,3.354663848876953,3.758209228515625,-2.0510354042053223
1761399406496565200,18.339565185546874,2.421356439590454,3.964853286743164,-2.6533432006835938
1761399406516727300,18.359727294921875,1.9914109706878662,3.684025287628174,-3.2429375648498535
1761399406536855300,18.379855224609376,1.1932311058044434,2.557114601135254,-3.882718086242676
1761399406557024800,18.400024658203126,-0.39941883087158203,1.956514835357666,-4.465028762817383
1761399406577210600,18.420210693359376,-1.4906644821166992,0.25830554962158203,-4.745698928833008
1761399406597372700,18.44037255859375,-2.7937862873077393,-1.033623218536377,-4.476865768432617
1761399406617534500,18.460534423828125,-3.7543771266937256,-1.4194245338439941,-3.4485232830047607
1761399406637695200,18.4806953125,-3.47090482711792,-0.7555346488952637,-1.8830361366271973
1761399406657856800,18.500856689453126,-2.5585174560546875,-2.2027416229248047,-0.41971611976623535
1761399406677993000,18.520992919921873,-2.4528403282165527,-7.1701507568359375,-2.1532249450683594
1761399406698176500,18.541176513671875,-4.57548713684082,-3.2971863746643066,-1.6734156608581543
1761399406718340600,18.561340576171876,-4.313811779022217,-1.9428420066833496,-1.6236295700073242
1761399406738502100,18.581502197265625,-2.523810386657715,-2.94527530670166,-1.0464673042297363
1761399406758664200,18.601664306640625,-1.242793083190918,-5.947598457336426,1.2845423221588135
1761399406778825000,18.621824951171874,-2.0391979217529297,-3.606886863708496,2.7306313514709473
1761399406798961200,18.641961181640625,-2.6990089416503906,-2.172898292541504,2.590488910675049
1761399406819129900,18.6621298828125,8.616109848022461,-2.0865557193756104,7.849855422973633
1761399406839283700,18.68228369140625,9.838458061218262,-2.8191442489624023,4.507951259613037
1761399406859470300,18.70247021484375,2.3591480255126953,-3.5236988067626953,0.057927608489990234
1761399406879631400,18.72263134765625,-1.240729808807373,-5.945418357849121,0.510448694229126
1761399406899789600,18.74278955078125,-3.0167393684387207,-4.721220016479492,0.6429338455200195
1761399406919955200,18.762955078125,-3.1024627685546875,-2.6177029609680176,1.6843889951705933
1761399406940086000,18.7830859375,-0.7214994430541992,-1.2970006465911865,5.480461597442627
1761399406960273700,18.803273681640626,1.1824283599853516,-3.355530261993408,6.985751152038574
1761399406980439300,18.823439208984375,-1.9189796447753906,0.10794878005981445,3.121682643890381
1761399407000600300,18.843600341796876,-0.9024701118469238,-1.0188651084899902,1.6343470811843872
1761399407020761000,18.863760986328124,-1.4392986297607422,-3.1248199939727783,2.0014090538024902
1761399407040898000,18.88389794921875,-1.1169281005859375,-2.187933921813965,2.6099228858947754
1761399407061084700,18.904084716796874,-1.0285978317260742,-0.007615327835083008,1.282339096069336
1761399407081232600,18.924232666015627,-1.0309619903564453,0.5545978546142578,0.2288048267364502
1761399407101407200,18.9444072265625,-1.1515140533447266,-0.04833817481994629,1.1695191860198975
1761399407121569000,18.964569091796875,-0.5343761444091797,-0.24181151390075684,2.0834083557128906
1761399407141729500,18.9847294921875,-0.11192131042480469,-1.0910615921020508,1.8788914680480957
1761399407161886700,19.00488671875,0.6474494934082031,-0.4207346439361572,2.3437085151672363
1761399407182033200,19.025033203125,0.42255115509033203,-0.43456268310546875,2.287740707397461
1761399407202214100,19.045214111328125,-0.03641700744628906,0.06275510787963867,1.3509923219680786
1761399407222372000,19.0653720703125,-0.21493053436279297,0.26429104804992676,0.5656107664108276
1761399407242537000,19.085536865234374,-0.13238143920898438,0.6620044708251953,0.5229600071907043
1761399407262698500,19.105698486328127,-0.3809518814086914,0.8457849025726318,0.14314495027065277
1761399407282855700,19.125855712890626,-0.8218288421630859,0.880702018737793,0.136862650513649
1761399407303020500,19.1460205078125,-0.9272308349609375,0.6855428218841553,0.4242100119590759
1761399407323181800,19.166181884765624,-0.6558265686035156,0.28556370735168457,0.7248862981796265
1761399407343343400,19.18634326171875,-0.23662281036376953,-0.02985525131225586,1.0589603185653687
1761399407363504600,19.206504638671873,0.15259170532226562,-0.12097287178039551,1.184761643409729
1761399407383666700,19.226666748046874,0.08846759796142578,-0.05312204360961914,1.1340080499649048
1761399407403802400,19.24680224609375,-0.13793277740478516,0.11320877075195312,1.0926272869110107
1761399407423989000,19.266989013671875,-0.30324649810791016,0.1684274673461914,1.1426467895507812
1761399407444125700,19.287125732421874,-0.33563899993896484,0.17638468742370605,1.1472593545913696
1761399407464311600,19.3073115234375,-0.29050445556640625,0.28272509574890137,0.9719939231872559
1761399407484468500,19.327468505859375,-0.3972320556640625,0.24895048141479492,0.9439358115196228
1761399407504635000,19.347634765625,-0.3926095962524414,0.12861156463623047,1.0688188076019287
1761399407524796000,19.3677958984375,-0.41437721252441406,0.13469266891479492,0.9294419288635254
1761399407544957400,19.38795751953125,-0.41584205627441406,0.16489815711975098,0.9401428699493408
1761399407565096000,19.408095947265625,-0.23415088653564453,0.12132406234741211,0.9859286546707153
1761399407585279500,19.428279541015623,0.015832901000976562,0.08225488662719727,0.9772253036499023
1761399407605442000,19.448442138671876,0.05410289764404297,0.009422540664672852,1.0692384243011475
1761399407625578000,19.468577880859375,-0.05531501770019531,0.041784048080444336,1.083633542060852
1761399407645764400,19.488764404296877,-0.16417598724365234,0.153167724609375,1.0000841617584229
1761399407665926000,19.50892578125,-0.2475261688232422,0.1748967170715332,0.9400752782821655
1761399407686068700,19.52906884765625,-0.17683124542236328,0.15503358840942383,0.996483325958252
1761399407706247700,19.54924755859375,-0.04612445831298828,0.09499692916870117,0.94834965467453
1761399407726410200,19.56941015625,0.04674053192138672,0.13777923583984375,0.8663334846496582
1761399407746571000,19.589571044921875,-0.10823917388916016,0.18606948852539062,0.7613835334777832
1761399407766732500,19.609732666015624,-0.2202911376953125,0.2997565269470215,0.7083784341812134
1761399407786869000,19.629868896484375,-0.1987018585205078,0.31290340423583984,0.8242278695106506
1761399407807056000,19.650055908203125,-0.15515708923339844,0.2545163631439209,0.9263613820075989
1761399407827191600,19.670191650390624,-0.0921640396118164,0.23171162605285645,0.9099502563476562
1761399407847352800,19.690352783203124,-0.08503341674804688,0.2227461338043213,0.8552923202514648
1761399407867513600,19.710513671875,-0.16758251190185547,0.2536454200744629,0.8266353607177734
1761399407887684600,19.7306845703125,-0.16003799438476562,0.23805737495422363,0.8170402646064758
1761399407907846000,19.750845947265624,-0.17214298248291016,0.2115025520324707,0.8216792345046997
1761399407928019200,19.771019287109375,-0.16391372680664062,0.1923065185546875,0.8095556497573853
1761399407948182300,19.791182373046876,-0.09892845153808594,0.1860182285308838,0.7643526196479797
1761399407968345900,19.811345947265625,-0.08030128479003906,0.14241886138916016,0.7282775640487671
1761399407988503800,19.83150390625,-0.13900375366210938,0.1760573387145996,0.7314185500144958
1761399408008668700,19.851668701171874,-0.19536209106445312,0.20173954963684082,0.687616765499115
1761399408028830500,19.87183056640625,-0.2735176086425781,0.2526543140411377,0.6431984901428223
1761399408048987100,19.891987060546874,-0.29985523223876953,0.270658016204834,0.6300557851791382
1761399408069127400,19.91212744140625,-0.2578392028808594,0.21341419219970703,0.6385993957519531
1761399408089313800,19.932313720703124,-0.06576919555664062,0.22525310516357422,0.6811734437942505
1761399408109475300,19.952475341796877,0.07115459442138672,0.11923718452453613,0.650547981262207
1761399408129637400,19.972637451171874,-0.12651729583740234,0.08493661880493164,0.9748495817184448
1761399408149799000,19.992798828125,-0.42763328552246094,0.07626175880432129,0.6168648600578308
1761399408169960000,20.0129599609375,-0.5440292358398438,0.5420434474945068,0.3633306920528412
1761399408190121700,20.033121826171875,-0.3183279037475586,0.44980311393737793,0.34099361300468445
1761399408210283300,20.053283203125,0.14411544799804688,0.1393420696258545,0.5370392799377441
