time,seconds_elapsed,z,y,x
1761399388242963200,0.085963134765625,-0.09602641314268112,-0.03845386579632759,0.020217839628458023
1761399388253015800,0.096015869140625,-0.0983746126294136,-0.0386703684926033,0.011807618662714958
1761399388263095600,0.106095458984375,-0.10238820314407349,-0.04421611875295639,0.0021316998172551394
1761399388273177300,0.11617724609375,-0.10691806674003601,-0.05347568914294243,0.0013323123566806316
1761399388283278800,0.12627880859375,-0.10745099186897278,-0.06433403491973877,0.00791060458868742
1761399388293338600,0.136338623046875,-0.10846687853336334,-0.07409322261810303,0.016603942960500717
1761399388303419400,0.14641943359375,-0.10889988392591476,-0.08063820749521255,0.0210005734115839
1761399388313488400,0.15648828125,-0.108366958796978,-0.08301971852779388,0.021783307194709778
1761399388323584800,0.166584716796875,-0.10710126161575317,-0.07987212389707565,0.01845252700150013
1761399388333650000,0.17664990234375,-0.10608537495136261,-0.07540888339281082,0.012557044625282288
1761399388343751700,0.186751708984375,-0.10815045982599258,-0.07534226775169373,0.008260336704552174
1761399388353826300,0.196826416015625,-0.1107984259724617,-0.07968893647193909,0.008510145358741283
1761399388363929300,0.206929443359375,-0.11226397007703781,-0.08082140237092972,0.013040007092058659
1761399388374009900,0.217009765625,-0.1116977408528328,-0.08262002468109131,0.015571401454508305
1761399388384064800,0.227064697265625,-0.11049865931272507,-0.08478502929210663,0.01828598789870739
1761399388394171400,0.23717138671875,-0.11164777725934982,-0.08913169801235199,0.023032350465655327
1761399388404225800,0.247225830078125,-0.1128135547041893,-0.09332848340272903,0.029743874445557594
1761399388414332700,0.257332763671875,-0.11581125110387802,-0.09093032032251358,0.04103522002696991
1761399388424412700,0.26741259765625,-0.11902546137571335,-0.08095463365316391,0.05280953273177147
1761399388434468600,0.277468505859375,-0.12170673906803131,-0.06611600518226624,0.0633847638964653
1761399388444563500,0.2875634765625,-0.12490428984165192,-0.05076110363006592,0.06941347569227219
1761399388454650000,0.297650146484375,-0.12728579342365265,-0.04303368926048279,0.07266099005937576
1761399388464735700,0.30773583984375,-0.12966729700565338,-0.0431835763156414,0.0771242305636406
1761399388474816800,0.317816650390625,-0.1334977000951767,-0.04922894388437271,0.08315294981002808
1761399388484871700,0.32787158203125,-0.13651205599308014,-0.05943778529763222,0.09116347134113312
1761399388494955800,0.337955810546875,-0.1413416862487793,-0.07960566133260727,0.100040003657341
1761399388505060000,0.34806005859375,-0.14497223496437073,-0.10775076597929001,0.10893318802118301
1761399388515138600,0.358138671875,-0.1456383913755417,-0.13754460215568542,0.11712691187858582
1761399388525219600,0.368219482421875,-0.14049233496189117,-0.16354134678840637,0.12668626010417938
1761399388535262700,0.3782626953125,-0.12963399291038513,-0.18615734577178955,0.13696171343326569
1761399388545380900,0.388380859375,-0.11855915188789368,-0.1984812319278717,0.14635451138019562
1761399388555461400,0.39846142578125,-0.10703464597463608,-0.2022949755191803,0.15882828831672668
1761399388565542400,0.40854248046875,-0.09561006724834442,-0.20136235654354095,0.1769643872976303
1761399388575597800,0.418597900390625,-0.07993873953819275,-0.20384380221366882,0.20212844014167786
1761399388585703400,0.428703369140625,-0.060603559017181396,-0.22029785811901093,0.23403732478618622
1761399388595783200,0.438783203125,-0.037587862461805344,-0.23761790990829468,0.27265772223472595
1761399388605854500,0.4488544921875,-0.007261102553457022,-0.246660977602005,0.31730684638023376
1761399388615945500,0.458945556640625,0.03052660822868347,-0.2526397407054901,0.36791807413101196
1761399388626026200,0.469026123046875,0.07765715569257736,-0.2587184011936188,0.4303702116012573
1761399388636083200,0.479083251953125,0.13729478418827057,-0.2544383704662323,0.5122740864753723
1761399388646187500,0.4891875,0.2115378975868225,-0.24211446940898895,0.6168439984321594
1761399388656242700,0.49924267578125,0.29527372121810913,-0.2206975519657135,0.7468277215957642
1761399388666349600,0.509349609375,0.39136675000190735,-0.19496726989746094,0.9009596109390259
1761399388676429800,0.519429931640625,0.5135897994041443,-0.16447396576404572,1.0817710161209106
1761399388686510300,0.52951025390625,0.6468043327331543,-0.12548717856407166,1.2841659784317017
1761399388696592000,0.539591796875,0.7813512682914734,-0.08345271646976471,1.4878932237625122
1761399388706671900,0.549671875,0.9219102263450623,-0.019135337322950363,1.651068091392517
1761399388716752400,0.55975244140625,1.0560574531555176,0.10332082211971283,1.752257227897644
1761399388726833200,0.569833251953125,1.181894302368164,0.24646113812923431,1.8071985244750977
1761399388736914400,0.57991455078125,1.280968427658081,0.4060721695423126,1.8228031396865845
1761399388746994400,0.589994384765625,1.3687012195587158,0.5294609665870667,1.7050601243972778
1761399388757074700,0.60007470703125,1.4206446409225464,0.5235821008682251,1.4905744791030884
1761399388767156700,0.61015673828125,1.4014594554901123,0.4220932126045227,1.257636308670044
1761399388777236200,0.620236328125,1.3714823722839355,0.22426147758960724,1.066632628440857
1761399388787317000,0.63031689453125,1.2995541095733643,0.0917796716094017,0.9320690631866455
1761399388797397800,0.640397705078125,1.184159278869629,-0.0581054724752903,0.8265665769577026
1761399388807478300,0.650478271484375,0.9231426119804382,-0.43336790800094604,0.7509412169456482
1761399388817559000,0.66055908203125,0.6843255758285522,-0.8276324272155762,0.6324819922447205
1761399388827639600,0.6706396484375,0.642740786075592,-0.9650937914848328,0.4508878290653229
1761399388837721000,0.68072119140625,0.7292578220367432,-0.913516640663147,0.26196593046188354
1761399388847801000,0.690801025390625,0.801285982131958,-0.8208709955215454,0.08763284981250763
1761399388857882000,0.700882080078125,0.798538088798523,-0.7337877154350281,-0.08135432749986649
1761399388867963000,0.710962890625,0.7069749236106873,-0.692619264125824,-0.21746668219566345
1761399388878040000,0.7210400390625,0.5751426219940186,-0.654615044593811,-0.30599886178970337
1761399388888119800,0.731119873046875,0.4250909090042114,-0.6067683696746826,-0.37624502182006836
1761399388898202400,0.741202392578125,0.35166385769844055,-0.5768579840660095,-0.4459083080291748
1761399388908285700,0.75128564453125,0.3929488956928253,-0.5105087757110596,-0.5207509398460388
1761399388918361900,0.76136181640625,0.48079824447631836,-0.4314693808555603,-0.6020719408988953
1761399388928413000,0.771412841796875,0.5744098424911499,-0.3841889202594757,-0.6704362630844116
1761399388938527500,0.781527587890625,0.6459550261497498,-0.3670520484447479,-0.7199649810791016
1761399388948608000,0.79160791015625,0.6288681030273438,-0.4043734669685364,-0.7325719594955444
1761399388958688800,0.801688720703125,0.49870118498802185,-0.45341920852661133,-0.7126538753509521
1761399388968769300,0.811769287109375,0.37777718901634216,-0.5148554444313049,-0.6596278548240662
1761399388978845200,0.82184521484375,0.28701338171958923,-0.5680646896362305,-0.5720449686050415
1761399388988930600,0.8319306640625,0.1945176124572754,-0.6000235080718994,-0.4624955952167511
1761399388999011300,0.84201123046875,0.0992739275097847,-0.6335644721984863,-0.33339452743530273
1761399389009092000,0.852092041015625,0.028861217200756073,-0.6370285153388977,-0.19643281400203705
1761399389019172600,0.862172607421875,-0.008709992282092571,-0.5784400701522827,-0.08460183441638947
1761399389029253400,0.87225341796875,-0.01986810937523842,-0.48439547419548035,-0.02671286277472973
1761399389039330000,0.882330078125,-0.018802259117364883,-0.38948488235473633,-0.0156546700745821
1761399389049414700,0.89241455078125,-0.020101262256503105,-0.30738112330436707,-0.03167572617530823
1761399389059495700,0.90249560546875,-0.032092075794935226,-0.24865944683551788,-0.04638112336397171
1761399389069576000,0.912575927734375,-0.048696018755435944,-0.21776646375656128,-0.042600687593221664
1761399389079657200,0.9226572265625,-0.059471093118190765,-0.20879000425338745,-0.017803024500608444
1761399389089737500,0.932737548828125,-0.05624023824930191,-0.21781642735004425,0.013606240041553974
1761399389099818000,0.94281787109375,-0.03752124682068825,-0.237418070435524,0.03865371271967888
1761399389119979300,0.962979248046875,0.037138208746910095,-0.3039337694644928,0.06541653722524643
1761399389140140800,0.983140869140625,0.09894084930419922,-0.28966137766838074,0.05629019811749458
1761399389150221600,0.9932216796875,0.09779173135757446,-0.24384647607803345,0.012557044625282288
1761399389160302000,1.003302001953125,0.07767381519079208,-0.18562442064285278,-0.04529862105846405
1761399389170357800,1.013357666015625,0.05990409478545189,-0.1423242688179016,-0.09021420031785965
1761399389180463600,1.023463623046875,0.05397530645132065,-0.09129670262336731,-0.09502717852592468
1761399389190544100,1.033544189453125,0.04191787913441658,0.0012323890114203095,-0.1001066192984581
1761399389200624600,1.043624755859375,-0.006495022680610418,0.14990179240703583,-0.17428311705589294
1761399389210706200,1.0537060546875,-0.1058688759803772,0.28396573662757874,-0.3360758125782013
1761399389220786400,1.063786376953125,-0.2157013714313507,0.31269371509552,-0.44955551624298096
1761399389230867000,1.073866943359375,-0.22870807349681854,0.31798964738845825,-0.43521648645401
1761399389240943600,1.083943603515625,-0.07470941543579102,0.5317258834838867,-0.31542494893074036
1761399389251028500,1.094028564453125,0.11409590393304825,1.009226679801941,-0.28578099608421326
1761399389261105200,1.104105224609375,0.12956738471984863,1.2061591148376465,-0.28722989559173584
1761399389271164400,1.114164306640625,-0.06225229799747467,1.0202182531356812,-0.24759359657764435
1761399389281270300,1.124270263671875,-0.3544783592224121,0.8164743185043335,-0.185141459107399
1761399389291343400,1.13434326171875,-0.7011626958847046,0.6796958446502686,-0.1891050934791565
1761399389301427700,1.144427734375,-1.0278290510177612,0.5680980086326599,-0.27320730686187744
1761399389311512000,1.154511962890625,-1.222496509552002,0.4249576926231384,-0.3793259859085083
1761399389321558800,1.164558837890625,-1.1682547330856323,0.20429344475269318,-0.4708724915981293
1761399389331648500,1.1746484375,-0.8557775616645813,-0.06558308005332947,-0.5525599122047424
1761399389341755000,1.1847548828125,-0.4262733459472656,-0.2835993468761444,-0.6092830896377563
1761399389351835100,1.194835205078125,-0.11477871239185333,-0.34581834077835083,-0.5988577604293823
1761399389361898000,1.20489794921875,-0.06741500645875931,-0.13771113753318787,-0.5447325706481934
1761399389371997000,1.214996826171875,-0.18639050424098969,0.04363323003053665,-0.5617861747741699
1761399389382077700,1.22507763671875,-0.32620003819465637,0.06663227081298828,-0.7019121050834656
1761399389392157700,1.23515771484375,-0.4468742311000824,0.09707561135292053,-0.8903676867485046
1761399389402238500,1.245238525390625,-0.5074278116226196,0.1871565878391266,-1.059154987335205
1761399389412319000,1.255319091796875,-0.48599424958229065,0.25718626379966736,-1.1444063186645508
1761399389422395600,1.265395751953125,-0.4210606813430786,0.3502982258796692,-1.1104990243911743
1761399389432477200,1.275477294921875,-0.35366231203079224,0.4507046341896057,-1.0022319555282593
1761399389442562000,1.28556201171875,-0.32201990485191345,0.482280433177948,-0.8962298631668091
1761399389452617200,1.2956171875,-0.3453020751476288,0.44967207312583923,-0.8307967185974121
1761399389462722600,1.30572265625,-0.40025994181632996,0.4185459315776825,-0.8008529543876648
1761399389472803000,1.315802978515625,-0.4543018639087677,0.40142571926116943,-0.7970725297927856
1761399389482883800,1.3258837890625,-0.48737651109695435,0.3639877438545227,-0.7959900498390198
1761399389492960500,1.33596044921875,-0.4945710003376007,0.3099791407585144,-0.7872134447097778
1761399389503045400,1.34604541015625,-0.48717668652534485,0.23989950120449066,-0.7729576826095581
1761399389513079600,1.35607958984375,-0.4761018455028534,0.14893586933612823,-0.7476937174797058
1761399389523181300,1.366181396484375,-0.4777672290802002,0.06769812107086182,-0.7185660600662231
1761399389533287000,1.376286865234375,-0.48932501673698425,0.006911370437592268,-0.6881893277168274
1761399389543368700,1.38636865234375,-0.48607751727104187,-0.05599042773246765,-0.6574462056159973
1761399389553425700,1.39642578125,-0.46982330083847046,-0.07234456390142441,-0.6225562691688538
1761399389563526000,1.40652587890625,-0.47032293677330017,0.01753656193614006,-0.5803219676017761
1761399389573585200,1.416585205078125,-0.508427083492279,0.1591780185699463,-0.5360392332077026
1761399389583659000,1.426658935546875,-0.5636014342308044,0.2727576494216919,-0.5182695388793945
1761399389593747200,1.436747314453125,-0.6080007553100586,0.3034507930278778,-0.5368053317070007
1761399389603827000,1.446826904296875,-0.6504015922546387,0.23323793709278107,-0.5782735347747803
1761399389613900500,1.456900634765625,-0.6906874179840088,0.08062155544757843,-0.6274524927139282
1761399389624009700,1.467009765625,-0.724727988243103,-0.09817476570606232,-0.6888388395309448
1761399389634069000,1.477069091796875,-0.7464613318443298,-0.24354670941829681,-0.7625989317893982
1761399389644149800,1.487149658203125,-0.7503583431243896,-0.2944909930229187,-0.8488994836807251
1761399389654243000,1.4972431640625,-0.7405325174331665,-0.300169974565506,-0.9198451042175293
1761399389664336100,1.507336181640625,-0.7242283821105957,-0.26406431198120117,-0.9652603268623352
1761399389674417200,1.517417236328125,-0.7429140210151672,-0.21683384478092194,-0.9750361442565918
1761399389684492500,1.527492431640625,-0.7655133605003357,-0.21966500580310822,-0.9543187022209167
1761399389694578200,1.537578125,-0.7624990344047546,-0.23566940426826477,-0.9284718632698059
1761399389704658700,1.54765869140625,-0.7263433933258057,-0.29827144742012024,-0.8869370222091675
1761399389714714600,1.557714599609375,-0.6421912312507629,-0.41010239720344543,-0.8246680498123169
1761399389724830500,1.56783056640625,-0.5281785726547241,-0.4935218095779419,-0.7437633872032166
1761399389734901500,1.577901611328125,-0.42524081468582153,-0.4586651921272278,-0.64335697889328
1761399389744968700,1.58796875,-0.35852527618408203,-0.328781396150589,-0.5055292844772339
1761399389755063000,1.59806298828125,-0.3072145879268646,-0.19728215038776398,-0.31855589151382446
1761399389765143000,1.60814306640625,-0.2549213171005249,-0.0572061613202095,-0.1428738534450531
1761399389775233000,1.61823291015625,-0.20537595450878143,0.08526799082756042,-0.03870367631316185
1761399389785291000,1.628291015625,-0.15358230471611023,0.1582787185907364,0.05274291709065437
1761399389795359500,1.638359375,-0.08966462314128876,0.1514839231967926,0.1494021862745285
1761399389805458200,1.648458251953125,0.01277354545891285,-0.013406393118202686,0.24328024685382843
1761399389815546600,1.658546630859375,0.1622423380613327,-0.31923869252204895,0.33146268129348755
1761399389825602300,1.668602294921875,0.3168405294418335,-0.6001068353652954,0.40205857157707214
1761399389835684600,1.6786845703125,0.43386751413345337,-0.7906108498573303,0.44925573468208313
1761399389845763000,1.68876318359375,0.5323920249938965,-1.007910966873169,0.45856526494026184
1761399389855870000,1.698869873046875,0.6745830774307251,-1.2370686531066895,0.5166041254997253
1761399389865950000,1.708949951171875,0.8910338878631592,-1.3161247968673706,0.6934852600097656
1761399389876052200,1.71905224609375,1.040086269378662,-1.3139097690582275,0.87771075963974
1761399389886111000,1.729111083984375,1.0672821998596191,-1.3575431108474731,1.0956937074661255
1761399389896215300,1.73921533203125,1.0323588848114014,-1.3460018634796143,1.4173471927642822
1761399389906264600,1.7492646484375,0.9962033033370972,-1.1965830326080322,1.844952940940857
1761399389916353000,1.75935302734375,0.9856946468353271,-0.9335179924964905,2.286564588546753
1761399389926410800,1.76941064453125,0.9759687781333923,-0.7042436599731445,2.5961105823516846
1761399389936515300,1.779515380859375,0.9604640007019043,-0.6663560271263123,2.6501524448394775
1761399389946595000,1.789594970703125,1.0025650262832642,-0.6781969666481018,2.494621753692627
1761399389956675800,1.79967578125,1.0962766408920288,-0.5688307881355286,2.2255945205688477
1761399389966756900,1.8097568359375,1.2147191762924194,-0.36930033564567566,1.9655438661575317
1761399389976838400,1.81983837890625,1.3513810634613037,-0.18828904628753662,1.8328953981399536
1761399389986918000,1.82991796875,1.4852118492126465,-0.1448889672756195,1.8594917058944702
1761399389996998700,1.83999853515625,1.559138536453247,-0.221946582198143,1.9944716691970825
1761399390007062300,1.850062255859375,1.5000005960464478,-0.36658576130867004,2.1243555545806885
1761399390017160000,1.860159912109375,1.3424879312515259,-0.5203179717063904,2.1510682106018066
1761399390027241700,1.87024169921875,1.1874067783355713,-0.5676483511924744,2.0224835872650146
1761399390037321500,1.880321533203125,1.0835529565811157,-0.5734272599220276,1.7423981428146362
1761399390047402000,1.890402099609375,1.11143159866333,-0.6173436045646667,1.3370088338851929
1761399390057457700,1.900457763671875,1.1171272993087769,-0.7287248969078064,0.9548016786575317
1761399390067532300,1.9105322265625,1.0559241771697998,-0.8942980170249939,0.6921529173851013
1761399390077644500,1.92064453125,0.9558008909225464,-1.1039706468582153,0.5274791121482849
1761399390087724800,1.930724853515625,0.8847886323928833,-1.3419716358184814,0.4297873079776764
1761399390097805600,1.9408056640625,0.8097295165061951,-1.4602643251419067,0.3844054341316223
1761399390107886000,1.950885986328125,0.6851583123207092,-1.5704466104507446,0.3330281376838684
1761399390117967000,1.960967041015625,0.5873332619667053,-1.6271697282791138,0.29564011096954346
1761399390128044000,1.9710439453125,0.5185359716415405,-1.5573898553848267,0.22176340222358704
1761399390138124300,1.981124267578125,0.4883091449737549,-1.3357263803482056,0.130450040102005
1761399390148207000,1.99120703125,0.4992840588092804,-1.0151886940002441,0.02914433367550373
1761399390158289400,2.001289306640625,0.538404107093811,-0.7661129236221313,-0.11569467931985855
1761399390168370200,2.0113701171875,0.622639536857605,-0.639110267162323,-0.31410929560661316
1761399390178425600,2.021425537109375,0.6353464722633362,-0.6113148927688599,-0.5281952619552612
1761399390188531500,2.031531494140625,0.5585053563117981,-0.6761152148246765,-0.7082905769348145
1761399390198608100,2.041608154296875,0.46697548031806946,-0.7228460907936096,-0.8422379493713379
1761399390208693800,2.05169384765625,0.40760430693626404,-0.6434069871902466,-0.8999603390693665
1761399390218773800,2.061773681640625,0.3090631663799286,-0.4600141644477844,-0.8979619145393372
1761399390228854800,2.071854736328125,0.16082675755023956,-0.19574999809265137,-0.8549615144729614
1761399390238935000,2.08193505859375,-0.037970904260873795,0.11627756059169769,-0.8047167062759399
1761399390249015600,2.092015625,-0.2710922658443451,0.4069714844226837,-0.7926925420761108
1761399390259092500,2.102092529296875,-0.49322205781936646,0.6161278486251831,-0.823102593421936
1761399390269152000,2.112152099609375,-0.6731674671173096,0.6854081153869629,-0.8012027144432068
1761399390279257600,2.122257568359375,-0.7777373790740967,0.6209908127784729,-0.6102656722068787
1761399390289339000,2.1323388671875,-0.7867804169654846,0.602205216884613,-0.3903675377368927
1761399390299419600,2.142419677734375,-0.6266531348228455,0.609266459941864,-0.3262166976928711
1761399390309500000,2.1525,-0.29597318172454834,0.41253387928009033,-0.3463679254055023
1761399390319576800,2.162576904296875,0.06008728966116905,0.07887289673089981,-0.29743874073028564
1761399390329661000,2.172660888671875,0.30278465151786804,-0.1378776729106903,-0.09617630392313004
1761399390339720700,2.182720703125,0.44212785363197327,-0.22929096221923828,0.18317629396915436
1761399390349822500,2.192822509765625,0.5375214219093323,-0.15621362626552582,0.3922494053840637
1761399390359904000,2.202904052734375,0.6075344681739807,0.10405359417200089,0.3611565828323364
1761399390369983700,2.212983642578125,0.6352798342704773,0.42977067828178406,0.09051397442817688
1761399390380064500,2.223064453125,0.6473039984703064,0.6157781481742859,-0.20211179554462433
1761399390390120000,2.233119873046875,0.6169272661209106,0.6172769665718079,-0.2828998863697052
1761399390400226000,2.24322607421875,0.34082216024398804,0.4801320731639862,-0.23172242939472198
1761399390410281500,2.253281494140625,-0.17944581806659698,0.25885164737701416,-0.35639357566833496
1761399390420388000,2.26338818359375,-0.6854081153869629,0.22386178374290466,-0.6058690547943115
1761399390430468000,2.273468017578125,-1.0028481483459473,0.40983593463897705,-0.7506914138793945
1761399390440548400,2.28354833984375,-0.9785168170928955,0.41638094186782837,-0.7387672066688538
1761399390450642700,2.293642578125,-0.7066251635551453,0.5050796270370483,-0.7356196045875549
1761399390460688600,2.303688720703125,-0.2671952545642853,0.3753123879432678,-0.47328731417655945
1761399390470772200,2.313772216796875,0.272424578666687,-0.05645673722028732,0.12402162700891495
1761399390480872200,2.3238720703125,0.5805551409721375,0.0523432232439518,0.44725728034973145
1761399390490953000,2.333952880859375,0.4740700423717499,0.4444594085216522,0.2677781283855438
1761399390501032700,2.34403271484375,0.015538093633949757,0.5259802937507629,-0.14205780625343323
1761399390511113200,2.35411328125,-0.6008562445640564,0.3435034453868866,-0.5848018527030945
1761399390521189600,2.364189697265625,-1.07742440700531,-0.12420482188463211,-0.9275558590888977
1761399390531249400,2.37424951171875,-1.2093232870101929,-0.7683945298194885,-1.2211475372314453
1761399390541347300,2.384347412109375,-0.8800589442253113,-1.1437901258468628,-1.4937553405761719
1761399390551437300,2.394437255859375,-0.28931164741516113,-0.9677417278289795,-1.4812982082366943
1761399390561491700,2.40449169921875,0.15110087394714355,-0.3023516535758972,-1.1241552829742432
1761399390571598000,2.41459814453125,0.18870539963245392,0.13694505393505096,-0.6985480189323425
1761399390581675000,2.424675048828125,0.0004996171337552369,0.38060835003852844,-0.5855679512023926
1761399390591758600,2.434758544921875,-0.21335317194461823,0.5719117522239685,-0.8995606899261475
1761399390601814800,2.444814697265625,-0.35039815306663513,0.6513009071350098,-1.355394721031189
1761399390611920600,2.454920654296875,-0.3915999233722687,0.6660395860671997,-1.6404095888137817
1761399390622001700,2.465001708984375,-0.3750792443752289,0.6252375245094299,-1.665690302848816
1761399390632082400,2.47508251953125,-0.3658696413040161,0.5268296003341675,-1.4881097078323364
1761399390642169300,2.48516943359375,-0.37491270899772644,0.4433935582637787,-1.1815612316131592
1761399390662283500,2.505283447265625,-0.4936550557613373,0.5676982998847961,-0.7523401379585266
1761399390672404700,2.51540478515625,-0.5865172147750854,0.6579124927520752,-0.7650137543678284
1761399390682485000,2.525485107421875,-0.6576127409934998,0.6682379245758057,-0.8264167308807373
1761399390692565500,2.5355654296875,-0.6986646056175232,0.6540987491607666,-0.8621060252189636
1761399390702646300,2.545646240234375,-0.6976320743560791,0.6237720251083374,-0.8549615144729614
1761399390712736000,2.555736083984375,-0.6544984579086304,0.5955103039741516,-0.8210541605949402
1761399390722782000,2.565781982421875,-0.5932953357696533,0.552043616771698,-0.7659797072410583
1761399390732911900,2.575911865234375,-0.5487961173057556,0.4946376383304596,-0.6990976333618164
1761399390742969600,2.585969482421875,-0.5582555532455444,0.464444100856781,-0.6308832168579102
1761399390753024500,2.5960244140625,-0.6105154752731323,0.46362805366516113,-0.582237184047699
1761399390763131400,2.60613134765625,-0.6620426774024963,0.45251989364624023,-0.5584887266159058
1761399390773207600,2.61620751953125,-0.6953504681587219,0.41391614079475403,-0.5565235614776611
1761399390783304400,2.626304443359375,-0.7091898918151855,0.32103732228279114,-0.5874831676483154
1761399390793369300,2.636369384765625,-0.7153351902961731,0.17954574525356293,-0.6589950323104858
1761399390803466000,2.646466064453125,-0.7183662056922913,0.02997702918946743,-0.7365356087684631
1761399390813508900,2.6565087890625,-0.7151020169258118,-0.0783066600561142,-0.7737571001052856
1761399390823615500,2.666615478515625,-0.7050097584724426,-0.10671821981668472,-0.7481100559234619
1761399390833669600,2.676669677734375,-0.692269504070282,-0.05597377568483353,-0.6767980456352234
1761399390843755000,2.686755126953125,-0.6552145481109619,0.09817476570606232,-0.6011393666267395
1761399390853831200,2.6968310546875,-0.6614931225776672,0.2488759607076645,-0.5655166506767273
1761399390863937500,2.7069375,-0.6754157543182373,0.2664291560649872,-0.5343905091285706
1761399390874018000,2.71701806640625,-0.6694869995117188,0.14603808522224426,-0.48995786905288696
1761399390884098600,2.7270986328125,-0.6135631799697876,-0.024397971108555794,-0.43295156955718994
1761399390894141400,2.737141357421875,-0.5221665501594543,-0.1618926078081131,-0.35068127512931824
1761399390904241400,2.747241455078125,-0.41191768646240234,-0.22967399656772614,-0.25570404529571533
1761399390914338300,2.75733837890625,-0.3015189468860626,-0.2641475796699524,-0.20019659399986267
1761399390924410600,2.76741064453125,-0.21505187451839447,-0.30488303303718567,-0.18289318680763245
1761399390934502400,2.77750244140625,-0.14069218933582306,-0.27202486991882324,-0.16054363548755646
1761399390944541200,2.787541259765625,-0.05377545952796936,-0.15832866728305817,-0.09744199365377426
1761399390954664400,2.79766455078125,0.02942745015025139,0.02150019071996212,0.017170175909996033
1761399390964745000,2.807744873046875,0.09757522493600845,0.2154848724603653,0.1769643872976303
1761399390974805000,2.817804931640625,0.16427411139011383,0.38553789258003235,0.36492034792900085
1761399390984905000,2.827905029296875,0.22421151399612427,0.44211122393608093,0.5297940373420715
1761399390994960600,2.837960693359375,0.3174067735671997,0.3049663007259369,0.6434902548789978
1761399391005066200,2.848066162109375,0.4560505151748657,0.1189921498298645,0.7292911410331726
1761399391015147500,2.8581474609375,0.6486029624938965,0.010708460584282875,0.8570099472999573
1761399391025227000,2.86822705078125,0.8711324334144592,-0.14622128009796143,1.0175702571868896
1761399391035312600,2.878312744140625,1.0385042428970337,-0.30736446380615234,1.1512011289596558
1761399391045415700,2.888415771484375,1.1575796604156494,-0.4450089931488037,1.3116449117660522
1761399391055471400,2.898471435546875,1.2773045301437378,-0.5383374691009521,1.5726782083511353
1761399391065525500,2.908525390625,1.3976457118988037,-0.4629952013492584,1.9227266311645508
1761399391085712100,2.928712158203125,1.5693473815917969,0.023432044312357903,2.5962936878204346
1761399391095809800,2.938809814453125,1.5379548072814941,0.3023349940776825,2.776688814163208
1761399391105848600,2.9488486328125,1.4188461303710938,0.648569643497467,2.775756359100342
1761399391115954400,2.958954345703125,1.2749896049499512,1.0297775268554688,2.6038379669189453
1761399391126036200,2.9690361328125,1.1944347620010376,1.264897346496582,2.342371702194214
1761399391136091100,2.979091064453125,1.1953340768814087,1.381108283996582,2.1361629962921143
1761399391146196500,2.989196533203125,1.242730975151062,1.4650273323059082,2.0743770599365234
1761399391156278000,2.999278076171875,1.2811849117279053,1.532459020614624,2.1396937370300293
1761399391166336300,3.009336181640625,1.3217871189117432,1.5298609733581543,2.2379517555236816
1761399391176438800,3.019438720703125,1.3551615476608276,1.5372719764709473,2.2745070457458496
1761399391186518800,3.029518798828125,1.3768948316574097,1.4692740440368652,2.155748128890991
1761399391196574500,3.039574462890625,1.3822907209396362,1.259334921836853,1.8310468196868896
1761399391206681300,3.049681396484375,1.3671023845672607,1.1388440132141113,1.4401963949203491
1761399391226841900,3.069841796875,1.2636816501617432,0.4626288115978241,0.7381843328475952
1761399391236922600,3.079922607421875,1.1268031597137451,0.04516538977622986,0.5409354567527771
1761399391246986200,3.089986328125,0.9362325668334961,-0.38373926281929016,0.4035074710845947
1761399391257085000,3.1000849609375,0.7597511410713196,-0.6334645748138428,0.3392567038536072
1761399391267165200,3.110165283203125,0.6089833378791809,-0.7268930077552795,0.33597588539123535
1761399391277245200,3.1202451171875,0.4741533100605011,-0.7299739718437195,0.3805250823497772
1761399391287325700,3.13032568359375,0.3304634392261505,-0.6717852354049683,0.4708392024040222
1761399391297406500,3.140406494140625,0.17469945549964905,-0.6071680784225464,0.5812046527862549
1761399391307487200,3.1504873046875,0.02568032033741474,-0.567631721496582,0.6578625440597534
1761399391327648500,3.1706484375,-0.19714891910552979,-0.39726224541664124,0.6243715286254883
1761399391337704000,3.180703857421875,-0.25460490584373474,-0.13712824881076813,0.4810147285461426
1761399391347809800,3.190809814453125,-0.2985711991786957,0.16843760013580322,0.27162519097328186
1761399391367973600,3.2109736328125,-0.36034053564071655,0.654748260974884,-0.10525267571210861
1761399391378048800,3.221048828125,-0.38358938694000244,0.7839159369468689,-0.21946515142917633
1761399391388129500,3.231129638671875,-0.41413265466690063,0.8595579862594604,-0.3215702474117279
1761399391398211000,3.241211181640625,-0.45115429162979126,0.9265732765197754,-0.44046247005462646
1761399391408290800,3.251290771484375,-0.5274624824523926,0.9800822734832764,-0.5983248353004456
1761399391418363100,3.261363037109375,-0.6711357235908508,1.0012494325637817,-0.7789031267166138
1761399391428455400,3.271455322265625,-0.8866872191429138,0.9129170775413513,-0.9353832006454468
1761399391438536700,3.28153662109375,-1.1074013710021973,0.6832430958747864,-0.9998671412467957
1761399391448617000,3.291616943359375,-1.2485599517822266,0.3343271315097809,-0.8377247452735901
1761399391458679300,3.30167919921875,-1.2171672582626343,-0.023831738159060478,-0.4024582505226135
1761399391468778000,3.311778076171875,-0.9858445525169373,-0.09009762853384018,0.09109685570001602
1761399391478855200,3.321855224609375,-0.6346803307533264,0.19518376886844635,0.4074544310569763
1761399391488939300,3.331939208984375,-0.3555941879749298,0.603920578956604,0.5129235982894897
1761399391499020300,3.342020263671875,-0.24606144428253174,1.1382943391799927,0.46704211831092834
1761399391509101600,3.3521015625,-0.30446669459342957,1.6434905529022217,0.3730141520500183
1761399391519156700,3.36215673828125,-0.4707392752170563,1.884106159210205,0.29495730996131897
1761399391539317800,3.38231787109375,-0.6117978692054749,1.548180341720581,0.2156347632408142
1761399391549398300,3.392398193359375,-0.556023895740509,1.3485832214355469,0.2206975519657135
1761399391559464700,3.402464599609375,-0.5707959532737732,1.3300807476043701,0.26259878277778625
1761399391569559800,3.412559814453125,-0.6828100681304932,1.388252854347229,0.2830497622489929
1761399391579628500,3.422628662109375,-0.8377913236618042,1.45130455493927,0.172384575009346
1761399391589709800,3.432709716796875,-0.8934153914451599,1.7644312381744385,0.0374879390001297
1761399391599817200,3.442817138671875,-0.7275424599647522,2.2947747707366943,-0.08953139185905457
1761399391609891600,3.4528916015625,-0.3622557520866394,2.783733606338501,-0.34750038385391235
1761399391619988500,3.462988525390625,0.05860508978366852,3.135047674179077,-0.6796958446502686
1761399391630068700,3.47306884765625,0.26924368739128113,3.2518415451049805,-1.0346404314041138
1761399391640150000,3.48314990234375,0.1096160039305687,3.037039279937744,-1.2142695188522339
1761399391650230800,3.493230712890625,-0.1262865662574768,2.564068555831909,-1.0382211208343506
1761399391660311000,3.50331103515625,-0.21218739449977875,1.9323025941848755,-0.5668822526931763
1761399391670388700,3.513388671875,-0.21908211708068848,1.3755125999450684,0.02271592617034912
1761399391680472000,3.52347216796875,-0.3117277920246124,1.1051031351089478,0.5386039614677429
1761399391690553600,3.5335537109375,-0.46211254596710205,1.138261079788208,0.7524900436401367
1761399391700608300,3.543608154296875,-0.5644174814224243,1.2101060152053833,0.5695801973342896
1761399391710677500,3.553677490234375,-0.5729609131813049,1.394781231880188,0.08253674954175949
1761399391720795400,3.56379541015625,-0.4914567172527313,1.7225466966629028,-0.4754023551940918
1761399391730869200,3.573869140625,-0.2933751940727234,1.9918569326400757,-0.8821240067481995
1761399391740957000,3.58395703125,-0.044399309903383255,2.076591968536377,-0.9902411699295044
1761399391751037200,3.594037109375,0.13581259548664093,2.1538496017456055,-0.8337610960006714
1761399391761118500,3.604118408203125,0.17180168628692627,2.2885961532592773,-0.5796391367912292
1761399391771199500,3.614199462890625,0.08403560519218445,2.4451262950897217,-0.3330281376838684
1761399391781279500,3.624279541015625,-0.1124638170003891,2.521700859069824,-0.1907704770565033
1761399391791360500,3.634360595703125,-0.3762783110141754,2.491091012954712,-0.10791730135679245
1761399391801433900,3.644433837890625,-0.548546314239502,2.324535369873047,-0.02568032033741474
1761399391811521500,3.654521484375,-0.5359892845153809,2.1505520343780518,0.07397664338350296
1761399391821602300,3.664602294921875,-0.3968292474746704,2.0339248180389404,0.16350804269313812
1761399391831682800,3.674682861328125,-0.2630317807197571,1.9044573307037354,0.2102888524532318
1761399391841746200,3.68474609375,-0.20650841295719147,1.7521740198135376,0.21829938888549805
1761399391851836400,3.69483642578125,-0.1959165334701538,1.5836864709854126,0.18450860679149628
1761399391861920800,3.704920654296875,-0.21015562117099762,1.4286552667617798,0.11319658905267715
1761399391872005400,3.71500537109375,-0.2584019899368286,1.3002036809921265,0.01945176161825657
1761399391882086100,3.725086181640625,-0.31306010484695435,1.2720586061477661,-0.06350133568048477
1761399391892167000,3.7351669921875,-0.3894682228565216,1.4117348194122314,-0.1639743447303772
1761399391902247400,3.745247314453125,-0.46196267008781433,1.5375550985336304,-0.261516273021698
1761399391912328200,3.755328125,-0.4915066957473755,1.5778576135635376,-0.32644984126091003
1761399391922404900,3.76540478515625,-0.497885137796402,1.49775230884552,-0.34603482484817505
1761399391932489500,3.775489501953125,-0.5116912126541138,1.3125275373458862,-0.31181105971336365
1761399391942570200,3.7855703125,-0.5405690670013428,1.0819875001907349,-0.2510243058204651
1761399391952650800,3.795650634765625,-0.5779904127120972,0.8594247698783875,-0.18610738217830658
1761399391962731500,3.8057314453125,-0.6351965665817261,0.6801954507827759,-0.14943549036979675
1761399391972812500,3.8158125,-0.7155516743659973,0.516587495803833,-0.17937920987606049
1761399391982892800,3.825892822265625,-0.7880627512931824,0.3805084228515625,-0.2704927325248718
1761399391992969500,3.835969482421875,-0.8574262857437134,0.27147531509399414,-0.3899345397949219
1761399392003054000,3.84605419921875,-0.9274226427078247,0.18997108936309814,-0.4953870475292206
1761399392013135600,3.856135498046875,-0.9585487842559814,0.1512008011341095,-0.5621691942214966
1761399392023216000,3.866216064453125,-0.9252576231956482,0.190837100148201,-0.5795891880989075
1761399392033296600,3.876296630859375,-0.8342773914337158,0.27215811610221863,-0.5531594753265381
1761399392043353000,3.88635302734375,-0.73302161693573,0.35153061151504517,-0.48412901163101196
1761399392053453800,3.896453857421875,-0.649802029132843,0.43581604957580566,-0.37907618284225464
1761399392063513300,3.906513427734375,-0.5811046957969666,0.49973371624946594,-0.2783700227737427
1761399392073619000,3.916618896484375,-0.5296774506568909,0.5383707880973816,-0.19176971912384033
1761399392083672800,3.9266728515625,-0.4745696783065796,0.5099092721939087,-0.11299674212932587
1761399392093781000,3.936781005859375,-0.3648870587348938,0.3613397777080536,-0.05290945619344711
1761399392103861200,3.946861328125,-0.24729382991790771,0.18392571806907654,-0.0001498851488577202
1761399392113941800,3.956941650390625,-0.16046036779880524,0.04066883400082588,0.06991308927536011
1761399392124019000,3.96701904296875,-0.07843989133834839,-0.006145291030406952,0.16414088010787964
1761399392134078200,3.977078125,-0.007744065951555967,0.10863342136144638,0.27583861351013184
1761399392144158700,3.98715869140625,0.057222817093133926,0.29037749767303467,0.4047898054122925
1761399392154264800,3.997264892578125,0.14602144062519073,0.4123173654079437,0.5610700249671936
1761399392164345000,4.007344970703125,0.2746228873729706,0.36930033564567566,0.7556376457214355
1761399392174425900,4.01742578125,0.44760701060295105,0.11293012648820877,0.9666925668716431
1761399392184507100,4.027507080078125,0.6637080907821655,-0.147670179605484,1.224012017250061
1761399392194561300,4.037561279296875,0.9243083596229553,-0.3345603048801422,1.4846123456954956
1761399392204668000,4.04766796875,1.1397433280944824,-0.6187092065811157,1.6590120792388916
1761399392214748700,4.057748779296875,1.2831833362579346,-0.8610235452651978,1.7866642475128174
1761399392224829200,4.0678291015625,1.4084373712539673,-0.865703284740448,2.008577585220337
1761399392234910700,4.07791064453125,1.5404695272445679,-0.7691938877105713,2.3636720180511475
1761399392244991700,4.08799169921875,1.6123478412628174,-0.6082672476768494,2.7589025497436523
1761399392255071200,4.0980712890625,1.6119147539138794,-0.33049672842025757,3.081305503845215
1761399392265152000,4.108152099609375,1.4520705938339233,0.19551683962345123,3.1833271980285645
1761399392275207400,4.11820751953125,1.1353299617767334,0.9270229339599609,3.0589559078216553
1761399392285313500,4.1283134765625,0.8271994590759277,1.5400532484054565,2.8179738521575928
1761399392295394000,4.13839404296875,0.7183662056922913,1.8273330926895142,2.53507399559021
1761399392305451000,4.148450927734375,0.8295310139656067,1.8754628896713257,2.2660634517669678
1761399392315556000,4.15855615234375,1.0183862447738647,1.767279028892517,2.1176438331604004
1761399392325613600,4.168613525390625,1.1828268766403198,1.5219337940216064,2.1144464015960693
1761399392335690000,4.17868994140625,1.2848820686340332,1.2628822326660156,2.1291518211364746
1761399392345782800,4.18878271484375,1.2977721691131592,1.0680148601531982,2.0480473041534424
1761399392355878100,4.198878173828125,1.2164678573608398,0.8812413811683655,1.8312300443649292
1761399392365959400,4.20895947265625,1.1010229587554932,0.5475137829780579,1.4878932237625122
1761399392376039700,4.219039794921875,1.0060456991195679,0.26947683095932007,1.1614766120910645
1761399392386120700,4.22912060546875,0.9512044191360474,-0.04847951605916023,0.9461249709129333
1761399392396201000,4.239200927734375,0.887386679649353,-0.47551894187927246,0.7529063820838928
1761399392406282000,4.249281982421875,0.7349534630775452,-0.9294710755348206,0.5424509644508362
1761399392416362500,4.259362548828125,0.5492457747459412,-1.2327886819839478,0.3544783592224121
1761399392426413800,4.269413818359375,0.3716152310371399,-1.3306636810302734,0.22121381759643555
1761399392436524500,4.279524658203125,0.22337882220745087,-1.3221534490585327,0.16150957345962524
1761399392446571500,4.289571533203125,0.10566902905702591,-1.2711925506591797,0.17301741242408752
1761399392456685000,4.29968505859375,0.024830972775816917,-1.16838800907135,0.22559379041194916
1761399392466740500,4.309740478515625,-0.02939414232969284,-1.0399197340011597,0.29149329662323
1761399392476846300,4.319846435546875,-0.07176167517900467,-0.909186601638794,0.337458074092865
1761399392486927400,4.32992724609375,-0.09840792417526245,-0.766845703125,0.30521610379219055
1761399392497007900,4.3400078125,-0.10008996725082397,-0.542367696762085,0.19032081961631775
1761399392507088400,4.35008837890625,-0.1033707857131958,-0.21774980425834656,0.004046898800879717
1761399392517169000,4.3601689453125,-0.16290849447250366,0.13714490830898285,-0.2045266032218933
1761399392527249700,4.370249755859375,-0.2575526237487793,0.4337009787559509,-0.3629385530948639
1761399392537311200,4.380311279296875,-0.34505224227905273,0.6394599676132202,-0.4184959828853607
1761399392547411200,4.3904111328125,-0.41031891107559204,0.793608546257019,-0.4077875018119812
1761399392557492000,4.400491943359375,-0.46226242184638977,0.930736780166626,-0.40837040543556213
1761399392567572500,4.410572509765625,-0.5124406218528748,1.0828535556793213,-0.46377792954444885
1761399392577628000,4.4206279296875,-0.5918630957603455,1.2652138471603394,-0.5768746137619019
1761399392587714000,4.430714111328125,-0.7190489768981934,1.405539631843567,-0.7144525051116943
1761399392597814300,4.440814208984375,-0.8497654795646667,1.4460252523422241,-0.8303137421607971
1761399392607895800,4.450895751953125,-0.9303537607192993,1.4127341508865356,-0.8452189564704895
1761399392617979000,4.460978759765625,-0.9074879288673401,1.316291332244873,-0.6571131348609924
1761399392628052200,4.47105224609375,-0.7403826713562012,1.165889859199524,-0.33471018075942993
1761399392638133200,4.48113330078125,-0.4021584987640381,0.8870702385902405,-0.046947356313467026
1761399392648214800,4.49121484375,0.012007465586066246,0.5714287757873535,0.2692103683948517
1761399392658298600,4.501298583984375,0.36966672539711,0.5024316310882568,0.5565901398658752
1761399392668357400,4.511357421875,0.5753757357597351,0.6086335778236389,0.6413585543632507
1761399392678460400,4.52146044921875,0.6139628291130066,0.6824104189872742,0.5521102547645569
1761399392688537300,4.531537353515625,0.6029213070869446,0.6170604825019836,0.4180796146392822
1761399392698622200,4.541622314453125,0.5526931285858154,0.46196267008781433,0.29425784945487976
1761399392708703000,4.551702880859375,0.3751625120639801,0.32694944739341736,0.20540925860404968
1761399392718782700,4.56178271484375,0.007710758130997419,0.4685576260089874,0.09692572802305222
1761399392728863200,4.57186328125,-0.43356776237487793,0.702911376953125,0.01828598789870739
1761399392738944000,4.581944091796875,-0.8385074734687805,0.8744798898696899,0.044282734394073486
1761399392749024800,4.592024658203125,-1.0546751022338867,1.0766916275024414,0.028827909380197525
1761399392759101700,4.602101806640625,-0.965043842792511,1.1904877424240112,-0.1875895857810974
1761399392769186000,4.61218603515625,-0.536672055721283,1.4181632995605469,-0.525630533695221
1761399392779266800,4.622266845703125,0.05076110363006592,1.7883296012878418,-0.7646141052246094
1761399392789347800,4.632347900390625,0.5033975839614868,1.8508983850479126,-0.7468610405921936
1761399392799428400,4.642428466796875,0.6365954875946045,1.4029749631881714,-0.3547614812850952
1761399392809509000,4.652509033203125,0.4992840588092804,1.1955671310424805,0.1375945657491684
1761399392819586300,4.66258642578125,0.2520068883895874,1.281584620475769,0.3710489869117737
1761399392829670400,4.67267041015625,-0.11511179059743881,1.2788866758346558,0.2985379099845886
1761399392839725800,4.682725830078125,-0.571595311164856,1.1227396726608276,0.11985815316438675
1761399392849832200,4.692832275390625,-0.9747030735015869,0.9709725975990295,-0.037970904260873795
1761399392859912400,4.702912353515625,-1.099224328994751,0.8021353483200073,-0.252356618642807
1761399392869993700,4.71299365234375,-0.8743633031845093,0.6245214343070984,-0.5509944558143616
1761399392880070000,4.72306982421875,-0.4652768075466156,0.8184894323348999,-0.723895251750946
1761399392890155000,4.733155029296875,-0.07297740876674652,1.291043996810913,-0.6963330507278442
1761399392900235800,4.74323583984375,0.07649138569831848,1.4345507621765137,-0.5236154198646545
1761399392910315500,4.7533154296875,-0.024248085916042328,1.3775943517684937,-0.4006929397583008
1761399392920396500,4.763396484375,-0.20141232013702393,1.362805724143982,-0.4695068895816803
1761399392930477000,4.77347705078125,-0.32152029871940613,1.4688910245895386,-0.628818154335022
1761399392950634500,4.793634521484375,-0.3767779469490051,1.8176238536834717,-0.7694770097732544
1761399392960719000,4.803718994140625,-0.37289759516716003,1.8787603378295898,-0.7160346508026123
1761399392970799900,4.8137998046875,-0.38027524948120117,1.871282696723938,-0.5795725584030151
1761399392980880600,4.823880615234375,-0.38295653462409973,1.7897619009017944,-0.3981948494911194
1761399392990961200,4.833961181640625,-0.3710656464099884,1.655814528465271,-0.2099391222000122
1761399393001041700,4.844041748046875,-0.3635047674179077,1.4933056831359863,-0.05402526631951332
1761399393011118600,4.85411865234375,-0.3849550187587738,1.3490995168685913,0.02233288623392582
1761399393021203200,4.864203125,-0.4152984321117401,1.2485098838806152,0.017603177577257156
1761399393031284000,4.874283935546875,-0.4474238157272339,1.1816778182983398,-0.05169371888041496
1761399393041365500,4.884365478515625,-0.4722714424133301,1.1618430614471436,-0.1516171544790268
1761399393051445200,4.8944453125,-0.5056458711624146,1.1494858264923096,-0.2604670822620392
1761399393061526800,4.90452685546875,-0.5570731163024902,1.1254708766937256,-0.35734283924102783
1761399393071607600,4.914607666015625,-0.6074011921882629,1.1151454448699951,-0.4154816269874573
1761399393081661700,4.92466162109375,-0.6178098917007446,1.100106954574585,-0.4508378505706787
1761399393091768600,4.9347685546875,-0.5897480845451355,1.045082449913025,-0.4919230341911316
1761399393101849000,4.94484912109375,-0.5741766691207886,0.9447926878929138,-0.5338408946990967
1761399393111904300,4.954904296875,-0.6068016886711121,0.8205711841583252,-0.5678315162658691
1761399393122009900,4.965009765625,-0.681977391242981,0.7035775184631348,-0.6032044291496277
1761399393132091000,4.9750908203125,-0.7884125113487244,0.5734438896179199,-0.6377612948417664
1761399393142167600,4.98516748046875,-0.9011594653129578,0.47906622290611267,-0.6580623984336853
1761399393152266200,4.995266357421875,-0.9697901606559753,0.356426864862442,-0.6217901706695557
1761399393162333000,5.0053330078125,-0.9959201812744141,0.31922203302383423,-0.525364100933075
1761399393172413400,5.015413330078125,-0.9761686325073242,0.3463679254055023,-0.42129382491111755
1761399393182494200,5.025494140625,-0.9182963371276855,0.3939647674560547,-0.35554420948028564
1761399393192574700,5.03557470703125,-0.8538623452186584,0.4390468895435333,-0.3536290228366852
1761399393202652700,5.045652587890625,-0.7839492559432983,0.448456346988678,-0.3796091079711914
1761399393212736500,5.055736572265625,-0.7104056477546692,0.44830647110939026,-0.38921841979026794
1761399393222795800,5.065795654296875,-0.6290512681007385,0.48316308856010437,-0.349465548992157
1761399393232868900,5.075868896484375,-0.5123740434646606,0.5446992516517639,-0.2629818022251129
1761399393242978800,5.085978759765625,-0.36636924743652344,0.5733606219291687,-0.16284188628196716
1761399393253059600,5.0960595703125,-0.20460987091064453,0.5658164024353027,-0.07632484287023544
1761399393263140000,5.10614013671875,-0.07918931543827057,0.511907696723938,0.01194084994494915
1761399393273217000,5.116217041015625,0.021100496873259544,0.4604804813861847,0.10458651930093765
1761399393283301400,5.12630126953125,0.08954804390668869,0.48800936341285706,0.21003904938697815
1761399393293382100,5.136382080078125,0.14545521140098572,0.5908305644989014,0.35875841975212097
1761399393303462400,5.14646240234375,0.20219506323337555,0.7157182097434998,0.5345403552055359
1761399393313521200,5.156521240234375,0.3298472464084625,0.6901211738586426,0.705376148223877
1761399393323627000,5.166626953125,0.5194352865219116,0.5375047922134399,0.8496322631835938
1761399393333696500,5.176696533203125,0.7368020415306091,0.31334322690963745,0.9764517545700073
1761399393343785500,5.186785400390625,0.9722049832344055,0.042517419904470444,1.1263868808746338
1761399393353866000,5.196865966796875,1.1959002017974854,-0.2484596073627472,1.212087869644165
1761399393363946800,5.20694677734375,1.3213707208633423,-0.3278154730796814,1.2651138305664062
1761399393374027300,5.21702734375,1.3439035415649414,-0.19858115911483765,1.4200618267059326
1761399393384108000,5.22710791015625,1.3344939947128296,-0.07619161158800125,1.778403878211975
1761399393394171600,5.237171630859375,1.3226864337921143,0.10395367443561554,2.2789535522460938
1761399393404265200,5.24726513671875,1.3112285137176514,0.42269274592399597,2.774757146835327
1761399393414349800,5.257349853515625,1.2650805711746216,0.7459783554077148,3.1722190380096436
1761399393424431000,5.26743115234375,1.1325820684432983,1.058955192565918,3.3922672271728516
1761399393434511600,5.27751171875,0.9529364109039307,1.3839061260223389,3.399078607559204
1761399393444591900,5.287591796875,0.8295809626579285,1.6580793857574463,3.231107234954834
1761399393454673700,5.297673583984375,0.83029705286026,1.7354700565338135,2.9387147426605225
1761399393464753700,5.307753662109375,0.9082540273666382,1.6976491212844849,2.650602102279663
1761399393474791400,5.31779150390625,1.0151220560073853,1.6272196769714355,2.493039608001709
1761399393484915000,5.3279150390625,1.0944780111312866,1.4784836769104004,2.478567361831665
1761399393494996500,5.33799658203125,1.095593810081482,1.3059159517288208,2.5217509269714355
1761399393505076000,5.348075927734375,1.0486130714416504,1.100390076637268,2.5291452407836914
1761399393515156700,5.35815673828125,0.9610801935195923,0.7614665031433105,2.381425142288208
1761399393535281700,5.37828173828125,0.7628154754638672,0.149468794465065,1.6768150329589844
1761399393545398500,5.3883984375,0.6734839081764221,0.005862174555659294,1.3383244276046753
1761399393555479600,5.3984794921875,0.5616029500961304,-0.17533230781555176,1.0856680870056152
1761399393565560800,5.408560791015625,0.42089414596557617,-0.40337422490119934,0.9055727124214172
1761399393575615200,5.418615234375,0.2697599530220032,-0.5774408578872681,0.7837494015693665
1761399393585721600,5.4287216796875,0.10974923521280289,-0.6971990466117859,0.7077243328094482
1761399393595804000,5.438803955078125,-0.03159245848655701,-0.7406491041183472,0.6639245748519897
1761399393605862700,5.448862548828125,-0.1127469390630722,-0.6982982158660889,0.6227061748504639
1761399393615964400,5.45896435546875,-0.1423242688179016,-0.5797057747840881,0.5716785788536072
1761399393626045200,5.469045166015625,-0.15546420216560364,-0.4385306239128113,0.5046465992927551
1761399393636101400,5.479101318359375,-0.1962662637233734,-0.3238518238067627,0.40225842595100403
1761399393646205700,5.489205810546875,-0.28301647305488586,-0.22667630016803741,0.2507578432559967
1761399393656254200,5.499254150390625,-0.36991652846336365,-0.08087135851383209,0.05017821490764618
1761399393666368000,5.509367919921875,-0.44460928440093994,0.14314031600952148,-0.16843760013580322
1761399393676448500,5.519448486328125,-0.518086314201355,0.3896680772304535,-0.3476502597332001
1761399393686528300,5.5295283203125,-0.5933453440666199,0.6165775060653687,-0.451820433139801
1761399393696609300,5.539609375,-0.6738502979278564,0.8166242241859436,-0.49793508648872375
1761399393706689800,5.549689697265625,-0.7564703226089478,0.9836962223052979,-0.539503276348114
1761399393716743700,5.55974365234375,-0.8273326754570007,1.1433905363082886,-0.6161112189292908
1761399393726851600,5.5698515625,-0.8787266612052917,1.2817012071609497,-0.7281586527824402
1761399393736932600,5.5799326171875,-0.9092366099357605,1.375629186630249,-0.8480501174926758
1761399393747012400,5.590012451171875,-0.9118512272834778,1.4207279682159424,-0.9492226243019104
1761399393757093000,5.600093017578125,-0.8708993196487427,1.3652538061141968,-0.9734207391738892
1761399393767174000,5.610173828125,-0.7632983922958374,1.1577461957931519,-0.7685111165046692
1761399393777255200,5.620255126953125,-0.5987578630447388,0.875379204750061,-0.2595844268798828
1761399393787335200,5.630335205078125,-0.3884856402873993,0.7563037872314453,0.2403324991464615
1761399393797395200,5.640395263671875,-0.07044601440429688,0.6167274117469788,0.6489693522453308
1761399393807496700,5.65049658203125,0.26869410276412964,0.7660130262374878,0.8904010057449341
1761399393817577200,5.6605771484375,0.6349301338195801,1.003048062324524,0.9313363432884216
1761399393827633000,5.6706328125,0.885871171951294,0.9829134345054626,0.8237521052360535
1761399393837739300,5.6807392578125,0.9761852622032166,0.7639479041099548,0.7344372272491455
1761399393847819300,5.6908193359375,0.9550015330314636,0.45420193672180176,0.7624657154083252
1761399393857875500,5.70087548828125,0.8250178098678589,0.31987154483795166,0.7706428170204163
1761399393867985200,5.710985107421875,0.5841357111930847,0.39607980847358704,0.6012559533119202
1761399393878057500,5.721057373046875,0.30326759815216064,0.34846630692481995,0.3834395110607147
1761399393898227700,5.741227783203125,-0.3233022689819336,0.45843204855918884,0.26786139607429504
1761399393908281300,5.75128125,-0.7002800703048706,0.7108885645866394,0.16996975243091583
1761399393918384000,5.761384033203125,-1.0856513977050781,0.878326952457428,0.040102601051330566
1761399393928465000,5.77146484375,-1.2895618677139282,0.9452256560325623,0.0021150459069758654
1761399393938521300,5.781521240234375,-1.0633351802825928,1.0585554838180542,-0.1805782914161682
1761399393948626200,5.791626220703125,-0.4031577408313751,1.6591452360153198,-0.5162544250488281
1761399393958707200,5.801707275390625,0.44004613161087036,1.9129674434661865,-0.6224563717842102
1761399393968778000,5.811778076171875,0.893481969833374,1.776888370513916,-0.3530794382095337
1761399393978868200,5.8218681640625,0.6394932866096497,1.7608673572540283,0.01978483982384205
1761399393988949000,5.831948974609375,0.008993108756840229,1.7895619869232178,0.1970823109149933
1761399393999030300,5.8420302734375,-0.6469042897224426,1.8238856792449951,0.1648070365190506
1761399394009110300,5.8521103515625,-1.2143361568450928,1.6598447561264038,-0.034123849123716354
1761399394019191000,5.86219091796875,-1.6348471641540527,1.5349737405776978,-0.2529228627681732
1761399394029271600,5.872271484375,-1.791560411453247,1.6259040832519531,-0.44357675313949585
1761399394039348500,5.882348388671875,-1.5007998943328857,1.5559409856796265,-0.6244381666183472
1761399394049433000,5.89243310546875,-0.8071314692497253,1.4065388441085815,-0.7054927349090576
1761399394059513600,5.902513671875,-0.12963399291038513,1.4485232830047607,-0.5404857993125916
1761399394069594600,5.9125947265625,0.24309705197811127,1.4985682964324951,-0.22864146530628204
1761399394079675100,5.922675048828125,0.3027679920196533,1.529977560043335,-0.005712289363145828
1761399394089755600,5.932755615234375,0.16968663036823273,1.6184598207473755,-0.004396630916744471
1761399394099815400,5.9428154296875,-0.06123640760779381,1.812544345855713,-0.2294408529996872
1761399394109890800,5.952890869140625,-0.28564777970314026,2.0895822048187256,-0.5457817912101746
1761399394119998500,5.96299853515625,-0.425790399312973,2.36432147026062,-0.7421979308128357
1761399394130078500,5.973078369140625,-0.5069615244865417,2.481431722640991,-0.741948127746582
1761399394140159500,5.983159423828125,-0.546697735786438,2.3574435710906982,-0.5877662897109985
1761399394150240000,5.993239990234375,-0.5497287511825562,2.1008734703063965,-0.3359259068965912
1761399394160316400,6.00331640625,-0.5211173295974731,1.8618565797805786,-0.08346936851739883
1761399394170401300,6.0134013671875,-0.4904741644859314,1.7560709714889526,0.0951104536652565
1761399394180482000,6.02348193359375,-0.46302852034568787,1.6749497652053833,0.1633581519126892
1761399394190563800,6.033563720703125,-0.445608526468277,1.5775078535079956,0.14154154062271118
1761399394200643300,6.043643310546875,-0.43588265776634216,1.4570168256759644,0.0617193728685379
1761399394210724000,6.05372412109375,-0.4193120300769806,1.3582924604415894,-0.06953005492687225
1761399394220805000,6.06380517578125,-0.39679592847824097,1.2416151762008667,-0.23130609095096588
1761399394230860000,6.073860107421875,-0.390733927488327,1.041118860244751,-0.38498830795288086
1761399394240967200,6.08396728515625,-0.4351332187652588,0.8000202775001526,-0.4731041193008423
1761399394251046700,6.094046630859375,-0.4667256772518158,0.6775141358375549,-0.46599289774894714
1761399394261102000,6.10410205078125,-0.5249477624893188,0.7407656908035278,-0.4532027244567871
1761399394271209200,6.114209228515625,-0.5818707942962646,0.8366588950157166,-0.46239566802978516
1761399394281289000,6.1242890625,-0.6040371060371399,0.8670522570610046,-0.4868602454662323
1761399394291365600,6.13436572265625,-0.6030712127685547,0.7755057215690613,-0.5039305090904236
1761399394301450200,6.1444501953125,-0.603704035282135,0.6442063450813293,-0.49238935112953186
1761399394311531000,6.154531005859375,-0.6170105338096619,0.5412019491195679,-0.40462327003479004
1761399394321611500,6.164611572265625,-0.6134132742881775,0.38775286078453064,-0.2741565704345703
1761399394331692300,6.1746923828125,-0.6046866178512573,0.31783977150917053,-0.15476474165916443
1761399394341772800,6.184772705078125,-0.5917298793792725,0.28196725249290466,-0.0894814282655716
1761399394351828200,6.194828125,-0.5692304372787476,0.2410985827445984,-0.08588418364524841
1761399394361908700,6.20490869140625,-0.5349400639533997,0.19998009502887726,-0.11817611008882523
1761399394372014800,6.215014892578125,-0.49044084548950195,0.13201549649238586,-0.1619592308998108
1761399394382096400,6.225096435546875,-0.4629285931587219,0.03745463117957115,-0.20387710630893707
1761399394392160300,6.23516015625,-0.4227094054222107,-0.07201148569583893,-0.22259609401226044
1761399394402257200,6.245257080078125,-0.4095361828804016,-0.10210508853197098,-0.2083403468132019
1761399394412338200,6.255338134765625,-0.3897513449192047,-0.17233461141586304,-0.15941117703914642
1761399394422414300,6.265414306640625,-0.3939148187637329,-0.47740083932876587,-0.06057025119662285
1761399394432499200,6.275499267578125,-0.3128103017807007,-0.6156948804855347,0.08098793774843216
1761399394442579700,6.285579833984375,-0.27841997146606445,-0.4206276834011078,0.13922664523124695
1761399394452660700,6.29566064453125,-0.32361868023872375,-0.2803185284137726,0.12035776674747467
1761399394462741000,6.305740966796875,-0.3146422207355499,-0.3292810022830963,0.09810815006494522
1761399394472797000,6.315796875,-0.2604004442691803,-0.4398462772369385,0.1271192580461502
1761399394482898400,6.3258984375,-0.21565140783786774,-0.5903476476669312,0.2283250391483307
1761399394492945000,6.33594482421875,-0.19138666987419128,-0.7535725235939026,0.3797423243522644
1761399394503064000,6.34606396484375,-0.16887059807777405,-0.8509312868118286,0.5261967778205872
1761399394513138200,6.35613818359375,-0.12985049188137054,-0.8363091349601746,0.6092830896377563
1761399394523225000,6.36622509765625,-0.06923028081655502,-0.7628154754638672,0.6264366507530212
1761399394533281300,6.37628125,0.06120309978723526,-0.8520804047584534,0.5864505767822266
1761399394543386400,6.386386474609375,0.35700976848602295,-1.2230128049850464,0.5274457931518555
1761399394553463300,6.39646337890625,0.6937683820724487,-1.7466448545455933,0.6370118856430054
1761399394563548000,6.4065478515625,1.0593215227127075,-1.8881198167800903,1.0919299125671387
1761399394573628400,6.41662841796875,1.2572365999221802,-1.5873502492904663,1.7186330556869507
1761399394583709200,6.426709228515625,1.1832932233810425,-1.4214107990264893,2.2485435009002686
1761399394593790200,6.436790283203125,1.0006998777389526,-1.6116483211517334,2.683260440826416
1761399394603870700,6.44687060546875,0.7644142508506775,-1.824918270111084,3.114047050476074
1761399394613947400,6.456947509765625,0.5656998157501221,-1.7472944259643555,3.5010337829589844
1761399394624033300,6.467033203125,0.5438332557678223,-1.3132935762405396,3.644573926925659
1761399394634088000,6.477087890625,0.6506513953208923,-0.7905941605567932,3.416365385055542
1761399394644193300,6.487193359375,0.8541954159736633,-0.5835361480712891,2.846219062805176
1761399394654273800,6.497273681640625,1.1175103187561035,-0.6506680846214294,2.116894483566284
1761399394664354800,6.507354736328125,1.385704755783081,-0.79339200258255,1.4783670902252197
1761399394674435800,6.517435791015625,1.6303672790527344,-0.8689507842063904,1.148669719696045
1761399394684512000,6.527511962890625,1.8037344217300415,-0.9272894263267517,1.0579060316085815
1761399394694596900,6.537596923828125,1.8818246126174927,-1.0633851289749146,1.0295443534851074
1761399394704677600,6.547677734375,1.8480838537216187,-1.3368256092071533,0.9345671534538269
1761399394714758400,6.55775830078125,1.7021123170852661,-1.4769515991210938,0.6890220046043396
1761399394724839000,6.5678388671875,1.5833699703216553,-1.5774744749069214,0.3646039366722107
1761399394734920000,6.577919921875,1.538620948791504,-1.7774379253387451,0.03802086412906647
1761399394745000700,6.588000732421875,1.4670923948287964,-2.0049970149993896,-0.27230799198150635
1761399394755081200,6.598081298828125,1.3475340604782104,-2.1801626682281494,-0.5552245378494263
1761399394765162200,6.608162353515625,1.3115116357803345,-2.361973285675049,-0.8563770651817322
1761399394775220700,6.618220703125,1.3829069137573242,-2.521151304244995,-1.172784686088562
1761399394785298000,6.6282978515625,1.4187960624694824,-2.468658208847046,-1.4105024337768555
1761399394795378400,6.63837841796875,1.4517874717712402,-2.2478108406066895,-1.5129739046096802
1761399394805459700,6.648459716796875,1.3994442224502563,-2.0588223934173584,-1.491024136543274
1761399394815540700,6.658540771484375,1.3232693672180176,-2.013740301132202,-1.4171640872955322
1761399394825620000,6.668619873046875,1.2678451538085938,-2.0874836444854736,-1.3496158123016357
1761399394845770500,6.6887705078125,1.25983464717865,-2.559088945388794,-1.473803997039795
1761399394855872000,6.6988720703125,1.178863286972046,-2.8424885272979736,-1.6449894905090332
1761399394865950700,6.70895068359375,1.1103324890136719,-2.976985454559326,-1.8167911767959595
1761399394876041000,6.719041015625,1.0713623762130737,-2.893949031829834,-1.943593978881836
1761399394886130200,6.729130126953125,0.9855281114578247,-2.745745897293091,-2.0097265243530273
1761399394896211500,6.73921142578125,0.8712323904037476,-2.5487468242645264,-2.02801251411438
1761399394906291200,6.749291259765625,0.7818841934204102,-2.346651792526245,-2.0056464672088623
1761399394916372200,6.759372314453125,0.7073579430580139,-2.2318897247314453,-1.9381980895996094
1761399394926438000,6.76943798828125,0.6528164148330688,-2.2478442192077637,-1.8427046537399292
1761399394936520700,6.779520751953125,0.618526041507721,-2.290444850921631,-1.7487432956695557
1761399394946614800,6.78961474609375,0.5957268476486206,-2.2917604446411133,-1.685241937637329
1761399394956683300,6.799683349609375,0.5660495758056641,-2.292093515396118,-1.6696206331253052
1761399394966775300,6.809775390625,0.5450490117073059,-2.291344165802002,-1.6696538925170898
1761399394976856000,6.81985595703125,0.5359393358230591,-2.2981722354888916,-1.669520616531372
1761399394986926600,6.829926513671875,0.5569232106208801,-2.29733943939209,-1.673917293548584
1761399394997015600,6.840015625,0.5719117522239685,-2.263232469558716,-1.6946680545806885
1761399395007096000,6.850095947265625,0.5692304372787476,-2.1990814208984375,-1.7289750576019287
1761399395017175600,6.860175537109375,0.5314094424247742,-2.082237720489502,-1.760634183883667
1761399395027248400,6.870248291015625,0.4481399357318878,-1.9126176834106445,-1.7571702003479004
1761399395037340700,6.880340576171875,0.3498152792453766,-1.736003041267395,-1.6959004402160645
1761399395047421200,6.890421142578125,0.2768711745738983,-1.590897560119629,-1.5855683088302612
1761399395057500200,6.900500244140625,0.2500417232513428,-1.4962533712387085,-1.4542189836502075
1761399395067577300,6.910577392578125,0.24824310839176178,-1.4831467866897583,-1.3529132604599
1761399395077672000,6.920671875,0.25537097454071045,-1.5348238945007324,-1.319638729095459
1761399395087743700,6.93074365234375,0.25966769456863403,-1.583419919013977,-1.306748628616333
1761399395097814000,6.94081396484375,0.2302735447883606,-1.6214241981506348,-1.2823840379714966
1761399395107905500,6.950905517578125,0.17666462063789368,-1.630217432975769,-1.2330551147460938
1761399395117973200,6.96097314453125,0.11118146777153015,-1.6663230657577515,-1.1550648212432861
1761399395128053800,6.9710537109375,0.04781335964798927,-1.7350038290023804,-1.0744266510009766
1761399395138147000,6.98114697265625,-0.02593012899160385,-1.767895221710205,-1.065150499343872
1761399395148228400,6.991228271484375,-0.09073047339916229,-1.6977490186691284,-1.1229894161224365
1761399395158287600,7.00128759765625,-0.16588954627513885,-1.5440168380737305,-1.1808618307113647
1761399395168389600,7.0113896484375,-0.32515084743499756,-1.451654314994812,-1.227376103401184
1761399395178470000,7.021469970703125,-0.5244814157485962,-1.4256908893585205,-1.2397500276565552
1761399395188536000,7.0315361328125,-0.6038206219673157,-1.5270631313323975,-1.1002734899520874
1761399395198618600,7.04161865234375,-0.43529975414276123,-1.9280558824539185,-0.6569965481758118
1761399395208712000,7.0517119140625,-0.10681814700365067,-2.3643882274627686,-0.06979651749134064
1761399395218795800,7.061795654296875,0.19836466014385223,-2.5187532901763916,0.31520846486091614
1761399395228866600,7.071866455078125,0.42898792028427124,-2.5309438705444336,0.32206985354423523
1761399395238941400,7.08194140625,0.5673152804374695,-2.5532102584838867,0.053125955164432526
1761399395249032700,7.09203271484375,0.6135631799697876,-2.6148128509521484,-0.3089299201965332
1761399395259115500,7.102115478515625,0.5608868598937988,-2.656564235687256,-0.6499019861221313
1761399395269184300,7.112184326171875,0.4091198146343231,-2.7414326667785645,-0.9602475166320801
1761399395279276800,7.12227685546875,0.20309436321258545,-2.890451669692993,-1.2649307250976562
1761399395289344800,7.1323447265625,0.07927259057760239,-3.1251718997955322,-1.6013562679290771
1761399395299438600,7.1424384765625,0.09417783468961716,-3.1838436126708984,-1.8586090803146362
1761399395309506600,7.152506591796875,0.23865045607089996,-3.0969433784484863,-1.947924017906189
1761399395319597800,7.162597900390625,0.38941824436187744,-2.879460096359253,-1.8127275705337524
1761399395329680600,7.1726806640625,0.5017155408859253,-2.630784034729004,-1.5114418268203735
1761399395339761200,7.18276123046875,0.5729109644889832,-2.4503390789031982,-1.210239291191101
1761399395349843000,7.192843017578125,0.5423843860626221,-2.34843373298645,-1.0650838613510132
1761399395359922400,7.20292236328125,0.4220266044139862,-2.3082644939422607,-1.1070350408554077
1761399395370003200,7.213003173828125,0.27314069867134094,-2.2779877185821533,-1.2787867784500122
1761399395380066600,7.223066650390625,0.15083441138267517,-2.217017889022827,-1.4728879928588867
1761399395390152000,7.23315185546875,0.05006163939833641,-2.1321661472320557,-1.5900648832321167
1761399395400245000,7.243244873046875,-0.050994258373975754,-2.0705299377441406,-1.5928794145584106
1761399395410313500,7.2533134765625,-0.13296477496623993,-2.0671160221099854,-1.5000005960464478
1761399395420406500,7.263406494140625,-0.16465716063976288,-2.064034938812256,-1.3632386922836304
1761399395430474800,7.273474853515625,-0.15046803653240204,-2.0459654331207275,-1.2544887065887451
1761399395440564200,7.283564208984375,-0.11339643597602844,-2.02716326713562,-1.2095232009887695
1761399395450633700,7.2936337890625,-0.07659130543470383,-1.9708564281463623,-1.2408491373062134
1761399395460727800,7.303727783203125,-0.07760719954967499,-1.8868707418441772,-1.3243517875671387
1761399395470809900,7.313809814453125,-0.11093165725469589,-1.8466682434082031,-1.4239921569824219
1761399395480891000,7.323890869140625,-0.15309934318065643,-1.862639307975769,-1.5144062042236328
1761399395490958300,7.333958251953125,-0.17947913706302643,-1.8896520137786865,-1.5681483745574951
1761399395501048600,7.344048583984375,-0.19513380527496338,-1.8733477592468262,-1.5689643621444702
1761399395511129000,7.354129150390625,-0.19343510270118713,-1.8300310373306274,-1.5197020769119263
1761399395521201700,7.36420166015625,-0.20127908885478973,-1.7909109592437744,-1.4358830451965332
1761399395531268600,7.3742685546875,-0.21280360221862793,-1.737435221672058,-1.3366256952285767
1761399395541374700,7.384374755859375,-0.23140600323677063,-1.6909708976745605,-1.2301074266433716
1761399395551441200,7.394441162109375,-0.2590015232563019,-1.6390939950942993,-1.1337312459945679
1761399395561523000,7.40452294921875,-0.29544028639793396,-1.5609039068222046,-1.0569233894348145
1761399395571612400,7.4146123046875,-0.3256837725639343,-1.4268566370010376,-0.9886257648468018
1761399395581685200,7.424685302734375,-0.35637691617012024,-1.3116449117660522,-0.9288548827171326
1761399395591778000,7.434778076171875,-0.3476835787296295,-1.1999138593673706,-0.8782603144645691
1761399395601846500,7.444846435546875,-0.3305133879184723,-1.0898481607437134,-0.8242517113685608
1761399395611939600,7.454939697265625,-0.31459227204322815,-0.9699234366416931,-0.7676450610160828
1761399395621994500,7.464994384765625,-0.31535834074020386,-0.8334779739379883,-0.713819682598114
1761399395632088800,7.4750888671875,-0.2992207109928131,-0.7712423205375671,-0.6693370938301086
1761399395642177300,7.48517724609375,-0.28659704327583313,-0.7483432292938232,-0.6238052845001221
1761399395652262700,7.4952626953125,-0.29763859510421753,-0.736868679523468,-0.5758587121963501
1761399395662330000,7.505330078125,-0.31647413969039917,-0.7023451328277588,-0.5259969234466553
1761399395672424000,7.515423828125,-0.3008028268814087,-0.71408611536026,-0.4846286177635193
1761399395682504400,7.52550439453125,-0.2820005714893341,-0.7201648354530334,-0.4489726126194
1761399395692585500,7.53558544921875,-0.2931253910064697,-0.7011460661888123,-0.41804632544517517
1761399395702653700,7.54565380859375,-0.30723124742507935,-0.7095395922660828,-0.38437211513519287
1761399395712746200,7.555746337890625,-0.29377487301826477,-0.7124373912811279,-0.3584919571876526
1761399395722825700,7.56582568359375,-0.271808385848999,-0.7194153666496277,-0.3416215479373932
1761399395732907800,7.57590771484375,-0.2604004442691803,-0.7493258118629456,-0.331762433052063
1761399395742973400,7.585973388671875,-0.2552710473537445,-0.7874798774719238,-0.321370393037796
1761399395753068800,7.59606884765625,-0.2470773309469223,-0.7949408292770386,-0.30668166279792786
1761399395763135000,7.606135009765625,-0.27966901659965515,-0.7990210652351379,-0.2799854576587677
1761399395773231000,7.616231201171875,-0.304150253534317,-0.7978219389915466,-0.2508244514465332
1761399395783311000,7.62631103515625,-0.3178897500038147,-0.7956736087799072,-0.2156347632408142
1761399395793391900,7.636391845703125,-0.35068127512931824,-0.7567034959793091,-0.18795597553253174
1761399395803472400,7.646472412109375,-0.3676016330718994,-0.761283278465271,-0.1619592308998108
1761399395813540400,7.656540283203125,-0.37457963824272156,-0.7569866180419922,-0.14795328676700592
1761399395823634700,7.666634765625,-0.3732140064239502,-0.7697767615318298,-0.14052565395832062
1761399395833700000,7.6767001953125,-0.3971123695373535,-0.7952739000320435,-0.13559609651565552
1761399395843795000,7.686794921875,-0.39386484026908875,-0.8513143062591553,-0.14339011907577515
1761399395853876000,7.6968759765625,-0.39401474595069885,-0.9426943063735962,-0.15146726369857788
1761399395863956700,7.706956787109375,-0.3882191777229309,-1.0880162715911865,-0.14855283498764038
1761399395874025200,7.717025146484375,-0.3989109694957733,-1.1925528049468994,-0.1341305524110794
1761399395884118500,7.727118408203125,-0.4049396812915802,-1.3189226388931274,-0.11427909135818481
1761399395894196500,7.737196533203125,-0.38505494594573975,-1.3954473733901978,-0.08981450647115707
1761399395904266500,7.7472666015625,-0.35276299715042114,-1.418995976448059,-0.05672319978475571
1761399395914360300,7.7573603515625,-0.35199692845344543,-1.4374651908874512,-0.0011158116394653916
1761399395924440600,7.767440673828125,-0.3463512659072876,-1.4412789344787598,0.09899081289768219
1761399395934509000,7.777509033203125,-0.32418492436408997,-1.4504718780517578,0.23095634579658508
1761399395944610800,7.78761083984375,-0.2775539755821228,-1.4986848831176758,0.38220712542533875
1761399395954682600,7.7976826171875,-0.23841729760169983,-1.5899815559387207,0.5350067019462585
1761399395964742700,7.80774267578125,-0.1784132868051529,-1.685308575630188,0.6685543656349182
1761399395974844400,7.817844482421875,-0.09855780750513077,-1.7679952383041382,0.7896448969841003
1761399395984936000,7.82793603515625,-0.014305704273283482,-1.819555640220642,0.9036908149719238
1761399395995005700,7.838005615234375,0.09121343493461609,-1.811128854751587,1.0136898756027222
1761399396005074000,7.848073974609375,0.20510949194431305,-1.78827965259552,1.1396267414093018
1761399396015166700,7.858166748046875,0.37081584334373474,-1.7429144382476807,1.3013027906417847
1761399396025230000,7.86822998046875,0.5857178568840027,-1.5830868482589722,1.450938105583191
1761399396035328500,7.87832861328125,0.8690007328987122,-1.3875367641448975,1.584469199180603
1761399396045409000,7.888408935546875,1.1475039720535278,-1.2102725505828857,1.6829769611358643
1761399396055494700,7.89849462890625,1.3681015968322754,-1.0634183883666992,1.7524737119674683
1761399396065568300,7.908568359375,1.5300441980361938,-1.0245648622512817,1.7980555295944214
1761399396075649800,7.91864990234375,1.6104159355163574,-1.0875166654586792,1.7993378639221191
1761399396085730000,7.92872998046875,1.614029884338379,-1.251124620437622,1.7103726863861084
1761399396095818000,7.93881787109375,1.5659000873565674,-1.369800329208374,1.4972527027130127
1761399396105893000,7.94889306640625,1.4984850883483887,-1.3893853425979614,1.1896883249282837
1761399396115974000,7.958973876953125,1.4520872831344604,-1.3570600748062134,0.8539789319038391
1761399396126035200,7.96903515625,1.4121679067611694,-1.2562706470489502,0.5611866116523743
1761399396136110000,7.979110107421875,1.4038575887680054,-1.058072566986084,0.3644040822982788
1761399396146213600,7.989213623046875,1.4066886901855469,-0.7129703164100647,0.2572028934955597
1761399396156295000,7.999294921875,1.420494794845581,-0.3719649612903595,0.20697472989559174
1761399396166374000,8.009373779296874,1.4607973098754883,-0.3094128966331482,0.17736408114433289
1761399396176445000,8.01944482421875,1.4535194635391235,-0.44081220030784607,0.18928828835487366
1761399396186525700,8.029525634765625,1.4369155168533325,-0.6510011553764343,0.22526071965694427
1761399396196606500,8.0396064453125,1.4663763046264648,-0.9835962653160095,0.19540026783943176
1761399396206698000,8.049697998046875,1.5385876893997192,-1.3626724481582642,0.10162212699651718
1761399396216779300,8.059779296875,1.619425654411316,-1.5492794513702393,0.005629019811749458
1761399396226861600,8.069861572265625,1.6576131582260132,-1.551794171333313,-0.06739835441112518
1761399396236943000,8.079943115234375,1.6300675868988037,-1.5384211540222168,-0.11849253624677658
1761399396247010600,8.090010498046874,1.5840028524398804,-1.5207346677780151,-0.15228331089019775
1761399396257103600,8.100103515625,1.5548585653305054,-1.5144728422164917,-0.16840428113937378
1761399396267150600,8.110150634765626,1.557989478111267,-1.4398133754730225,-0.18124444782733917
1761399396277263000,8.12026318359375,1.5820543766021729,-1.3144594430923462,-0.21351970732212067
1761399396287343600,8.130343505859376,1.591530442237854,-1.1958669424057007,-0.2828332781791687
1761399396297426400,8.140426513671875,1.5538926124572754,-1.1011728048324585,-0.3823903203010559
1761399396307494400,8.150494384765626,1.48223078250885,-1.0556743144989014,-0.5085769295692444
1761399396317587500,8.16058740234375,1.3893519639968872,-1.0348902940750122,-0.6440564393997192
1761399396327668500,8.17066845703125,1.2444297075271606,-1.039869785308838,-0.760400652885437
1761399396337738000,8.180738037109375,1.1241052150726318,-1.0959935188293457,-0.8811414241790771
1761399396347830000,8.190830078125,1.0116081237792969,-1.1039873361587524,-1.0179365873336792
1761399396357910300,8.20091015625,0.8204712867736816,-1.060120940208435,-1.133864402770996
1761399396367978200,8.210978271484375,0.6648572087287903,-0.9663095474243164,-1.2014793157577515
1761399396378063600,8.221063720703125,0.5145556926727295,-0.8208209872245789,-1.2227963209152222
1761399396388129300,8.23112939453125,0.33299481868743896,-0.6123141050338745,-1.2154852151870728
1761399396398231600,8.2412314453125,0.13244850933551788,-0.3530794382095337,-1.2097896337509155
1761399396408313600,8.251313720703125,-0.0885821208357811,-0.11581125110387802,-1.1995973587036133
1761399396418393600,8.2613935546875,-0.34991520643234253,0.0399194099009037,-1.1518672704696655
1761399396428475000,8.271474853515626,-0.6389104127883911,0.10743433982133865,-1.0453989505767822
1761399396438543600,8.281543701171875,-0.9361492991447449,0.13646209239959717,-0.8866539001464844
1761399396448636700,8.29163671875,-1.1707361936569214,0.043150268495082855,-0.6606104373931885
1761399396458717700,8.3017177734375,-1.2343873977661133,-0.259284645318985,-0.3210040032863617
1761399396468795600,8.311795654296875,-1.0907808542251587,-0.6334312558174133,-0.10521937161684036
1761399396478878700,8.321878662109375,-0.7665126323699951,-0.8873034119606018,-0.15694640576839447
1761399396488957000,8.33195703125,-0.3756454885005951,-1.0730277299880981,-0.25695309042930603
1761399396499039700,8.342039794921876,-0.008526799269020557,-1.0973924398422241,-0.2152850329875946
1761399396509113000,8.352113037109374,0.26702871918678284,-0.88628751039505,-0.044732388108968735
1761399396519201000,8.362200927734374,0.43455034494400024,-0.543267011642456,0.09013093262910843
1761399396529279700,8.37227978515625,0.5253807306289673,-0.11611102521419525,0.10671821981668472
1761399396539362800,8.38236279296875,0.540119469165802,0.2625654637813568,0.011457886546850204
1761399396549443600,8.392443603515625,0.4993506968021393,0.44497567415237427,-0.12716922163963318
1761399396559513300,8.402513427734375,0.4306866228580475,0.47342056035995483,-0.24741041660308838
1761399396569604400,8.412604248046875,0.21953177452087402,0.47022300958633423,-0.4133332669734955
1761399396579685600,8.422685546875,-0.24248085916042328,0.3543950915336609,-0.6455386877059937
1761399396589766400,8.432766357421874,-0.7786866426467896,0.190837100148201,-0.7987212538719177
1761399396599833600,8.44283349609375,-1.1415085792541504,0.12270597368478775,-0.8672687411308289
1761399396609924900,8.4529248046875,-1.0563071966171265,-0.07840658724308014,-0.8469676375389099
1761399396620008200,8.46300830078125,-0.5817375779151917,-0.2779703140258789,-0.719515323638916
1761399396630070000,8.473070068359375,0.015971094369888306,-0.5190355777740479,-0.49875113368034363
1761399396640169700,8.483169677734375,0.5582888722419739,-0.9609802961349487,-0.21863245964050293
1761399396650237400,8.493237548828125,0.7563870549201965,-1.0309933423995972,-0.05632350593805313
1761399396660329000,8.503328857421875,0.4881259500980377,-0.6759153604507446,-0.1277354508638382
1761399396670404400,8.513404296875,-0.15331584215164185,-0.49475419521331787,-0.3635047674179077
1761399396680492800,8.523492919921875,-0.9109686017036438,-0.4667423367500305,-0.6139128804206848
1761399396690571000,8.533571044921874,-1.483546495437622,-0.710239052772522,-0.7959733605384827
1761399396700658200,8.543658203125,-1.689538598060608,-1.300386905670166,-0.9220268130302429
1761399396710733300,8.5537333984375,-1.538637638092041,-2.0163216590881348,-1.0912138223648071
1761399396720811000,8.56381103515625,-1.1439067125320435,-2.2987217903137207,-1.2125707864761353
1761399396730896100,8.573896240234374,-0.5942279696464539,-1.812011480331421,-1.215435266494751
1761399396740965600,8.583965576171876,-0.02712921053171158,-1.0068284273147583,-1.0977587699890137
1761399396751057000,8.594056884765624,0.12818510830402374,-0.6320989727973938,-0.8903676867485046
1761399396761137700,8.6041376953125,-0.05214337632060051,-0.44101205468177795,-0.8537624478340149
1761399396771193000,8.614193115234375,-0.2872798442840576,-0.22567705810070038,-1.0826536417007446
1761399396781299200,8.62429931640625,-0.42525747418403625,-0.08623392134904861,-1.3425711393356323
1761399396791376000,8.6343759765625,-0.4686075747013092,-0.009159647859632969,-1.444159984588623
1761399396801459500,8.64445947265625,-0.4613298177719116,-0.031742341816425323,-1.4010263681411743
1761399396811541200,8.654541259765624,-0.45808231830596924,-0.14788667857646942,-1.2748897075653076
1761399396821610000,8.66460986328125,-0.4569498300552368,-0.29675593972206116,-1.1218903064727783
1761399396841770200,8.684770263671876,-0.49848467111587524,-0.38415563106536865,-0.8702498078346252
1761399396851862300,8.6948623046875,-0.5321755409240723,-0.3227693438529968,-0.7830832600593567
1761399396861944600,8.704944580078125,-0.5653667449951172,-0.3118443787097931,-0.7074579000473022
1761399396872012800,8.7150126953125,-0.5854014158248901,-0.369050532579422,-0.6603273153305054
1761399396882078500,8.725078369140626,-0.598491370677948,-0.4445759952068329,-0.6621758937835693
1761399396892186600,8.7351865234375,-0.5996071696281433,-0.46947357058525085,-0.7272093892097473
1761399396902254600,8.745254638671875,-0.6053194999694824,-0.4025748372077942,-0.8367921113967896
1761399396912347400,8.755347412109375,-0.6360792517662048,-0.27966901659965515,-0.9582656621932983
1761399396922427000,8.765427001953125,-0.6935851573944092,-0.18444199860095978,-1.0560407638549805
1761399396932509400,8.775509521484375,-0.7587685585021973,-0.16742169857025146,-1.1203415393829346
1761399396942578000,8.785577880859375,-0.8081140518188477,-0.20822377502918243,-1.1465880870819092
1761399396952670700,8.795670654296876,-0.8241684436798096,-0.26086676120758057,-1.138061285018921
1761399396962752000,8.805751953125,-0.820970892906189,-0.31339317560195923,-1.1090002059936523
1761399396972831500,8.81583154296875,-0.8224530816078186,-0.3867702782154083,-1.0701632499694824
1761399396982911200,8.8259111328125,-0.8332948088645935,-0.45433518290519714,-1.0205678939819336
1761399396992993500,8.83599365234375,-0.8561772704124451,-0.4786165654659271,-0.9741535186767578
1761399397003074300,8.84607421875,-0.8827401995658875,-0.44162824749946594,-0.9486563801765442
1761399397013142300,8.856142333984375,-0.8972124457359314,-0.36998313665390015,-0.9316360950469971
1761399397023231700,8.866231689453125,-0.8715654611587524,-0.3210706412792206,-0.8929823637008667
1761399397033303600,8.876303466796875,-0.8183562159538269,-0.3846885561943054,-0.801552414894104
1761399397043394000,8.88639404296875,-0.7227128744125366,-0.47856661677360535,-0.704143762588501
1761399397053476000,8.89647607421875,-0.6295176148414612,-0.5675650835037231,-0.6047532558441162
1761399397063568000,8.90656787109375,-0.5148887634277344,-0.6271860599517822,-0.4673418700695038
1761399397073639200,8.91663916015625,-0.42359206080436707,-0.575925350189209,-0.315025269985199
1761399397083709000,8.926708984375,-0.3206043243408203,-0.6097826957702637,-0.18344275653362274
1761399397093800400,8.936800537109375,-0.2187490463256836,-0.7340208292007446,-0.07652468979358673
1761399397103875300,8.946875244140625,-0.14608804881572723,-0.7635482549667358,0.004613131750375032
1761399397113959700,8.956959716796876,-0.10899980366230011,-0.6424410343170166,0.09201282262802124
1761399397124042800,8.967042724609374,-0.1020551323890686,-0.4272226095199585,0.2004963606595993
1761399397134108200,8.977108154296875,-0.0967092216014862,-0.23856718838214874,0.31409263610839844
1761399397144191200,8.987191162109376,-0.04987844452261925,-0.21063858270645142,0.4167972803115845
1761399397164365000,9.007364990234375,0.19776512682437897,-0.7810348272323608,0.571728527545929
1761399397174433300,9.017433349609375,0.3678847551345825,-1.1042371988296509,0.6224730014801025
1761399397184514800,9.027514892578125,0.5032310485839844,-1.3228696584701538,0.6477369666099548
1761399397194607400,9.037607421875,0.5804885029792786,-1.5472310781478882,0.6209741234779358
1761399397204688100,9.047688232421875,0.7265266180038452,-1.6257208585739136,0.6553977727890015
1761399397214769200,9.05776904296875,0.925174355506897,-1.609549880027771,0.7410488128662109
1761399397224849400,9.067849365234375,1.038370966911316,-1.7121046781539917,0.861240029335022
1761399397234925800,9.07792578125,1.067865014076233,-1.8307137489318848,1.0342741012573242
1761399397245009000,9.0880087890625,1.0575063228607178,-1.7810019254684448,1.3423047065734863
1761399397255091500,9.098091552734376,1.0450491905212402,-1.5835531949996948,1.8019192218780518
1761399397265171500,9.10817138671875,1.0536925792694092,-1.4092700481414795,2.2423150539398193
1761399397275245600,9.11824560546875,1.068231463432312,-1.2850985527038574,2.470423698425293
1761399397285321000,9.128321044921876,1.1473873853683472,-1.1003234386444092,2.433518648147583
1761399397295401500,9.1384013671875,1.294824481010437,-0.8578593134880066,2.1964001655578613
1761399397305491700,9.14849169921875,1.4156818389892578,-0.6935685276985168,1.8807754516601562
1761399397315573500,9.158573486328125,1.4619797468185425,-0.6516339778900146,1.6206080913543701
1761399397325654300,9.168654296875,1.4665762186050415,-0.6166274547576904,1.5265135765075684
1761399397335737600,9.178737548828124,1.4769515991210938,-0.5885822772979736,1.5972926616668701
1761399397345805800,9.188805908203125,1.4941383600234985,-0.6110151410102844,1.6985816955566406
1761399397355896800,9.198896728515624,1.4749364852905273,-0.627369225025177,1.6706364154815674
1761399397365977300,9.208977294921874,1.4217605590820312,-0.5972923040390015,1.464827537536621
1761399397376046800,9.219046875,1.3537958860397339,-0.5505114793777466,1.1725181341171265
1761399397386140700,9.229140625,1.2384675741195679,-0.5672653317451477,0.8710325360298157
1761399397396220700,9.239220703125,1.1728512048721313,-0.6916033625602722,0.6112316250801086
1761399397406311400,9.2493115234375,1.1446229219436646,-0.9007098078727722,0.40538933873176575
1761399397416382500,9.259382568359374,1.0865007638931274,-1.034257411956787,0.3033675253391266
1761399397426461200,9.269461181640626,1.1027216911315918,-1.2259771823883057,0.22449463605880737
1761399397436531700,9.27953173828125,1.149102807044983,-1.4108688831329346,0.17538227140903473
1761399397446611700,9.28961181640625,1.1756324768066406,-1.7066088914871216,0.03149253502488136
1761399397456692200,9.299692138671874,1.1581958532333374,-1.8836898803710938,-0.15844525396823883
1761399397466785800,9.309785888671875,1.1161280870437622,-1.8202052116394043,-0.31820616126060486
1761399397476866300,9.3198662109375,1.1029714345932007,-1.665873408317566,-0.44087880849838257
1761399397486945800,9.32994580078125,1.1380778551101685,-1.4837796688079834,-0.5309597849845886
1761399397497028000,9.340028076171874,1.1172938346862793,-1.3270996809005737,-0.6058024168014526
1761399397507108900,9.35010888671875,1.0722949504852295,-1.2376848459243774,-0.6760319471359253
1761399397517189400,9.360189453125,1.086600661277771,-1.1834098100662231,-0.7567367553710938
1761399397527270100,9.370270263671875,1.0092931985855103,-1.1559641361236572,-0.850814700126648
1761399397547431200,9.39043115234375,0.7878462672233582,-1.0717453956604004,-0.9960367679595947
1761399397557512700,9.4005126953125,0.7084904313087463,-0.9856613278388977,-1.0500786304473877
1761399397567574500,9.410574462890626,0.5692138075828552,-0.8564770221710205,-1.0560907125473022
1761399397577673200,9.420673095703124,0.38712000846862793,-0.6360293030738831,-1.0059624910354614
1761399397587742700,9.43074267578125,0.20502622425556183,-0.36373794078826904,-0.9236088991165161
1761399397597835300,9.440835205078125,0.05807216465473175,-0.14119181036949158,-0.8378579616546631
1761399397607915800,9.450915771484375,-0.07031278312206268,-0.021100496873259544,-0.7624490857124329
1761399397617973000,9.460972900390624,-0.2175666093826294,-0.015071784146130085,-0.6949341297149658
1761399397628077300,9.471077392578126,-0.38448870182037354,-0.024897588416934013,-0.6194419860839844
1761399397638158000,9.481157958984374,-0.5193686485290527,-0.07549215108156204,-0.48309648036956787
1761399397648238300,9.49123828125,-0.5744931101799011,-0.19386810064315796,-0.3441862463951111
1761399397658309000,9.50130908203125,-0.4979184567928314,-0.3326117992401123,-0.31848928332328796
1761399397668399600,9.511399658203125,-0.2826833724975586,-0.5365721583366394,-0.3726810812950134
1761399397678477000,9.52147705078125,-0.015671323984861374,-0.7591349482536316,-0.37984225153923035
1761399397688561200,9.53156103515625,0.23205551505088806,-0.8343939185142517,-0.28801262378692627
1761399397698642000,9.541641845703126,0.42434149980545044,-0.6314161419868469,-0.1438397765159607
1761399397708722700,9.55172265625,0.5473805665969849,-0.1660560816526413,-0.08436868339776993
1761399397718803200,9.56180322265625,0.5986412763595581,0.2960731089115143,-0.189171701669693
1761399397728884200,9.57188427734375,0.6082838773727417,0.4855445921421051,-0.3738968074321747
1761399397738974700,9.581974609375,0.6170938014984131,0.3878694474697113,-0.557606041431427
1761399397749043500,9.59204345703125,0.618526041507721,0.15234991908073425,-0.7012626528739929
1761399397759126300,9.602126220703125,0.5023816823959351,-0.1659228503704071,-0.8016856908798218
1761399397769194200,9.6121943359375,0.19435106217861176,-0.4799821972846985,-0.8810082077980042
1761399397779284200,9.6222841796875,-0.2890951335430145,-0.6504515409469604,-1.134630560874939
1761399397789355300,9.632355224609375,-0.9289381504058838,-0.6276523470878601,-1.5896984338760376
1761399397799441200,9.642441162109375,-1.5682982206344604,-0.19568337500095367,-1.9415788650512695
1761399397809527800,9.65252783203125,-1.868268370628357,0.07329383492469788,-1.852830171585083
1761399397819610000,9.662610107421875,-1.6009565591812134,-0.18773946166038513,-1.2204813957214355
1761399397829691100,9.672691162109375,-0.8115114569664001,-0.8983116149902344,-0.15256641805171967
1761399397839757300,9.68275732421875,0.19506718218326569,-1.4351168870925903,0.7470108866691589
1761399397849852200,9.69285205078125,0.842787504196167,-1.0928624868392944,0.9519205689430237
1761399397859933200,9.70293310546875,0.8258005380630493,-0.4976353347301483,0.5301936864852905
1761399397870000600,9.713000732421875,0.1933351755142212,-0.39956048130989075,-0.06098660081624985
1761399397880083700,9.723083740234374,-0.7345537543296814,-0.4631783962249756,-0.4852781295776367
1761399397890174700,9.7331748046875,-1.3754127025604248,-0.6885390281677246,-0.7003965973854065
1761399397900255500,9.74325537109375,-1.495470643043518,-1.3315463066101074,-0.8899013996124268
1761399397910327300,9.753327392578125,-1.3011529445648193,-1.912251353263855,-1.081587791442871
1761399397920417500,9.76341748046875,-0.886154294013977,-1.8718656301498413,-1.2179999351501465
1761399397930499600,9.77349951171875,-0.27155858278274536,-1.3591585159301758,-1.2779040336608887
1761399397940565200,9.783565185546875,0.26752832531929016,-0.842171311378479,-1.2233458757400513
1761399397950657300,9.7936572265625,0.30946284532546997,-0.5830032229423523,-1.0644177198410034
1761399397960745000,9.803744873046876,-0.008959800936281681,-0.360507071018219,-1.0392370223999023
1761399397970820900,9.81382080078125,-0.31542494893074036,-0.04409953951835632,-1.190804123878479
1761399397980888000,9.82388818359375,-0.4649770259857178,0.11852584034204483,-1.305516242980957
1761399397990981600,9.833981689453125,-0.5195851922035217,0.06225229799747467,-1.3054496049880981
1761399398001058800,9.844058837890625,-0.5307266116142273,-0.12562040984630585,-1.2240453958511353
1761399398011143000,9.854142822265626,-0.4842788875102997,-0.30876338481903076,-1.095260739326477
1761399398021224200,9.86422412109375,-0.4450756013393402,-0.4138162136077881,-0.944126546382904
1761399398031290000,9.8742900390625,-0.44559186697006226,-0.4109684228897095,-0.8063820600509644
1761399398041385200,9.88438525390625,-0.4826801121234894,-0.3578091561794281,-0.7027614712715149
1761399398051443000,9.89444287109375,-0.5367053747177124,-0.277120977640152,-0.6359792947769165
1761399398061521200,9.904521240234375,-0.5861675143241882,-0.2016121745109558,-0.6011393666267395
1761399398071604500,9.9146044921875,-0.6218234896659851,-0.14392304420471191,-0.5894483327865601
1761399398081688600,9.9246884765625,-0.652350127696991,-0.12395501136779785,-0.6190422773361206
1761399398091763200,9.93476318359375,-0.6600441932678223,-0.16052699089050293,-0.6866405010223389
1761399398101838300,9.94483837890625,-0.6481033563613892,-0.23232197761535645,-0.7711590528488159
1761399398111923500,9.95492333984375,-0.6307000517845154,-0.3012858033180237,-0.8389071226119995
1761399398122014500,9.965014404296875,-0.6424576640129089,-0.32082080841064453,-0.8799257278442383
1761399398132093700,9.97509375,-0.6774641871452332,-0.29217609763145447,-0.90102618932724
1761399398142179300,9.985179443359375,-0.7306734323501587,-0.2218133509159088,-0.9165143370628357
1761399398152264700,9.9952646484375,-0.7800688743591309,-0.16469046473503113,-0.9298208355903625
1761399398162342400,10.00534228515625,-0.8251676559448242,-0.15999406576156616,-0.9466745853424072
1761399398172424400,10.015424560546874,-0.8675019145011902,-0.20524272322654724,-0.969423770904541
1761399398182515200,10.02551513671875,-0.9170472621917725,-0.26459723711013794,-1.01593816280365
1761399398192595700,10.035595703125,-0.9552013874053955,-0.32734915614128113,-1.0902146100997925
1761399398202674400,10.04567431640625,-0.9700067043304443,-0.381191223859787,-1.172418236732483
1761399398212744200,10.055744140625,-0.946724534034729,-0.3934818208217621,-1.2281755208969116
1761399398222837800,10.065837646484376,-0.8951140642166138,-0.3698998689651489,-1.214819073677063
1761399398232918500,10.07591845703125,-0.8180398344993591,-0.34368664026260376,-1.1155118942260742
1761399398242999000,10.0859990234375,-0.7305734753608704,-0.3535623848438263,-0.944742739200592
1761399398253050600,10.096050537109376,-0.6504015922546387,-0.38242360949516296,-0.7337877154350281
1761399398263145700,10.106145751953125,-0.5648837685585022,-0.4351998269557953,-0.5133732557296753
1761399398273228300,10.116228271484376,-0.4669921398162842,-0.5154550075531006,-0.3392733633518219
1761399398283309000,10.12630908203125,-0.3696833848953247,-0.5955935716629028,-0.24494563043117523
1761399398293389600,10.1363896484375,-0.29099369049072266,-0.6594613194465637,-0.18101128935813904
1761399398303483600,10.146483642578126,-0.2364521473646164,-0.6298007369041443,-0.0819205567240715
1761399398313552100,10.15655224609375,-0.2194485068321228,-0.5087268352508545,0.048995789140462875
1761399398323624700,10.166624755859376,-0.19108690321445465,-0.4252241551876068,0.17173506319522858
1761399398333725400,10.176725341796875,-0.10518606007099152,-0.4554843008518219,0.25558748841285706
1761399398343802400,10.18680224609375,0.04538189247250557,-0.6350300312042236,0.29653942584991455
1761399398353876200,10.196876220703125,0.19286887347698212,-0.906322181224823,0.29730549454689026
1761399398363967000,10.206967041015625,0.31785643100738525,-1.244679570198059,0.2468774914741516
1761399398374043100,10.217043212890625,0.42545729875564575,-1.5501288175582886,0.17228464782238007
1761399398384128300,10.227128173828126,0.5374048352241516,-1.673850655555725,0.12295577675104141
1761399398394207500,10.23720751953125,0.6989144086837769,-1.7509582042694092,0.25745272636413574
1761399398404290300,10.247290283203125,0.8486663103103638,-1.8484169244766235,0.5994406342506409
1761399398414360000,10.257360107421874,0.9096529483795166,-1.9130840301513672,0.9892919063568115
1761399398424438500,10.2674384765625,0.9311864376068115,-1.8292316198349,1.3749463558197021
1761399398434532400,10.277532470703125,0.9647607207298279,-1.6027218103408813,1.7684448957443237
1761399398444599600,10.287599609375,1.0065619945526123,-1.2922431230545044,2.174633502960205
1761399398454683100,10.29768310546875,1.0452324151992798,-1.0580558776855469,2.480465888977051
1761399398464774000,10.30777392578125,1.1059691905975342,-0.9514875411987305,2.5475645065307617
1761399398474855000,10.31785498046875,1.2029948234558105,-0.8314628601074219,2.352980136871338
1761399398484935200,10.32793505859375,1.3258006572723389,-0.6294010281562805,1.998335361480713
1761399398495016700,10.3380166015625,1.4289549589157104,-0.4332180321216583,1.6591119766235352
1761399398505096200,10.34809619140625,1.4794496297836304,-0.3511642515659332,1.458382487297058
1761399398515177700,10.358177734375,1.4879097938537598,-0.36360469460487366,1.4130005836486816
1761399398525255700,10.368255615234375,1.4962201118469238,-0.4024416208267212,1.5037643909454346
1761399398535338800,10.3783388671875,1.49225652217865,-0.4626288115978241,1.6417919397354126
1761399398545419800,10.388419677734374,1.455884337425232,-0.5430505275726318,1.7030283212661743
1761399398555480000,10.39847998046875,1.3767783641815186,-0.6099659204483032,1.611215353012085
1761399398565579000,10.4085791015625,1.2727746963500977,-0.6141626834869385,1.361856460571289
1761399398575659800,10.41865966796875,1.224961280822754,-0.6276856660842896,1.0318925380706787
1761399398585729300,10.428729248046874,1.2113550901412964,-0.7036941051483154,0.7349867820739746
1761399398595823600,10.43882373046875,1.2040274143218994,-0.8616230487823486,0.507311224937439
1761399398605903600,10.448903564453126,1.2335214614868164,-0.999617338180542,0.36207255721092224
1761399398615985000,10.45898486328125,1.222496509552002,-1.0972259044647217,0.2727077007293701
1761399398626052600,10.469052490234375,1.1906542778015137,-1.2307568788528442,0.19415122270584106
1761399398636131600,10.479131591796875,1.172967791557312,-1.4276059865951538,0.10921631008386612
1761399398646213000,10.489213134765626,1.1089502573013306,-1.5898816585540771,0.011341309174895287
1761399398656295000,10.499294921875,1.0133235454559326,-1.6677886247634888,-0.08257006108760834
1761399398666385700,10.5093857421875,0.9818809032440186,-1.5714458227157593,-0.11462882906198502
1761399398676468500,10.519468505859376,1.0390371084213257,-1.358825445175171,-0.10060624033212662
1761399398686544100,10.529544189453125,1.1526501178741455,-1.2087737321853638,-0.1114978939294815
1761399398696629800,10.539629638671874,1.1799458265304565,-1.0984582901000977,-0.18502488732337952
1761399398706708700,10.549708740234376,1.0762919187545776,-1.035556435585022,-0.2969890832901001
1761399398716768800,10.559768798828125,0.9858611822128296,-1.0059458017349243,-0.41011905670166016
1761399398726859300,10.569859375,0.9322856068611145,-0.9846621155738831,-0.518702507019043
1761399398736953000,10.579953125,0.8416217565536499,-0.8756623268127441,-0.6104655265808105
1761399398747033600,10.59003369140625,0.7046100497245789,-0.7066918015480042,-0.664890468120575
1761399398757101800,10.600101806640625,0.5437999367713928,-0.618659257888794,-0.7188824415206909
1761399398767183600,10.61018359375,0.3505313992500305,-0.46496036648750305,-0.7736904621124268
1761399398777262800,10.620262939453125,0.1283683031797409,-0.24376320838928223,-0.828448474407196
1761399398787350000,10.63035009765625,-0.10322090238332748,-0.05044467747211456,-0.888752281665802
1761399398797436700,10.640436767578125,-0.3179396986961365,0.07166175544261932,-0.9751860499382019
1761399398807517400,10.650517333984375,-0.525014340877533,0.11910872906446457,-1.0764917135238647
1761399398817598200,10.66059814453125,-0.740848958492279,0.09577661007642746,-1.1375616788864136
1761399398827676000,10.670676025390625,-0.946241557598114,0.003380742622539401,-1.0594547986984253
1761399398837757700,10.6807578125,-1.0538591146469116,-0.1997969001531601,-0.7822505831718445
1761399398847840800,10.6908408203125,-0.9979352951049805,-0.4772842526435852,-0.4459083080291748
1761399398857908500,10.700908447265626,-0.7676783800125122,-0.7190989851951599,-0.3110283315181732
1761399398868001800,10.711001708984375,-0.4058389961719513,-0.9074379801750183,-0.32221975922584534
1761399398878082600,10.72108251953125,-0.021566806361079216,-0.8805086016654968,-0.29592323303222656
1761399398888163800,10.731163818359375,0.26183268427848816,-0.6291512250900269,-0.2157013714313507
1761399398898235000,10.74123486328125,0.42525747418403625,-0.3352597653865814,-0.1416248083114624
1761399398908324400,10.751324462890626,0.5247645378112793,0.02806182950735092,-0.0958765298128128
1761399398918405600,10.761405517578124,0.5740267634391785,0.4047398567199707,-0.08635049313306808
1761399398928475600,10.7714755859375,0.5801054835319519,0.6653234958648682,-0.07502584159374237
1761399398938554000,10.78155419921875,0.5256472229957581,0.7215970158576965,-0.01308996882289648
1761399398948647200,10.791647216796875,0.29126015305519104,0.5534259080886841,-0.026113322004675865
1761399398958726000,10.801725830078125,-0.0955934152007103,0.2999701201915741,-0.2026447206735611
1761399398968809000,10.81180908203125,-0.5045133829116821,0.33332791924476624,-0.3826567828655243
1761399398978889500,10.821889404296876,-0.7420480251312256,0.48974138498306274,-0.46954017877578735
1761399398988960800,10.831960693359376,-0.550195038318634,0.3464178740978241,-0.28523144125938416
1761399398999050500,10.842050537109374,0.005262633785605431,0.10007331520318985,0.04150152951478958
1761399399009131500,10.852131591796875,0.584152340888977,-0.020967265591025352,0.19741538166999817
1761399399019201500,10.862201416015624,0.8781437277793884,-0.15982753038406372,0.21170443296432495
1761399399029291000,10.872291015625,0.7020620107650757,-0.059970710426568985,0.080804742872715
1761399399039373800,10.882373779296875,0.1062852218747139,0.06818109005689621,-0.18492496013641357
1761399399049441800,10.89244189453125,-0.6839925050735474,0.07182829082012177,-0.4692237675189972
1761399399059529000,10.902529052734375,-1.4384809732437134,0.01582120917737484,-0.7296242117881775
1761399399069615600,10.91261572265625,-1.9216440916061401,-0.2676449120044708,-0.9697901606559753
1761399399079696600,10.922696533203125,-1.9414455890655518,-0.8514142036437988,-1.1922364234924316
1761399399089775000,10.932775146484374,-1.7155020236968994,-1.55797278881073,-1.294541358947754
1761399399099846700,10.9428466796875,-1.2813847064971924,-1.6059027910232544,-1.1194255352020264
1761399399109938200,10.952938232421875,-0.6067017316818237,-0.8436201810836792,-0.8538623452186584
1761399399120019700,10.963019775390626,-0.07709092646837234,-0.23427048325538635,-0.6283684968948364
1761399399130099700,10.973099609375,-0.0703294426202774,-0.11865907162427902,-0.5586552619934082
1761399399140168000,10.98316796875,-0.3436366617679596,-0.0860174149274826,-0.7588518261909485
1761399399150261200,10.99326123046875,-0.5034974813461304,-0.1061519905924797,-1.0777240991592407
1761399399160339700,11.003339599609374,-0.5235487818717957,-0.14452259242534637,-1.243447184562683
1761399399170409700,11.01340966796875,-0.5132899880409241,-0.17892955243587494,-1.2368688583374023
1761399399180505600,11.023505615234376,-0.520567774772644,-0.24646113812923431,-1.157612919807434
1761399399190582000,11.03358203125,-0.5350067019462585,-0.34443604946136475,-1.0769413709640503
1761399399200663000,11.0436630859375,-0.553142786026001,-0.4035074710845947,-1.0186693668365479
1761399399210737200,11.053737060546876,-0.570845901966095,-0.4111849069595337,-0.9773011207580566
1761399399220811000,11.06381103515625,-0.575092613697052,-0.4185459315776825,-0.9543520212173462
1761399399230907000,11.073906982421875,-0.5854513645172119,-0.44094544649124146,-0.9558841586112976
1761399399240987400,11.0839873046875,-0.600689709186554,-0.4995671808719635,-0.9785667657852173
1761399399251068200,11.094068115234375,-0.6012226343154907,-0.5887988209724426,-1.0039639472961426
1761399399261149000,11.10414892578125,-0.5827034711837769,-0.6639079451560974,-1.018336296081543
1761399399271230000,11.11422998046875,-0.5849018096923828,-0.6643575429916382,-1.0372884273529053
1761399399281275400,11.124275390625,-0.6069349050521851,-0.6101824045181274,-1.0756924152374268
1761399399301472000,11.144471923828124,-0.7025449872016907,-0.4814643859863281,-1.1710026264190674
1761399399311552000,11.154552001953125,-0.7866138815879822,-0.4525865316390991,-1.1910539865493774
1761399399321633500,11.164633544921875,-0.8583422303199768,-0.44927239418029785,-1.177297830581665
1761399399331713800,11.1747138671875,-0.8954471349716187,-0.44843968749046326,-1.129684329032898
1761399399341794800,11.184794921875,-0.9085038304328918,-0.47370368242263794,-1.0748430490493774
1761399399351842000,11.194842041015624,-0.9058225154876709,-0.5589550137519836,-1.0104923248291016
1761399399361956600,11.20495654296875,-0.9020754098892212,-0.6378611922264099,-0.9352333545684814
1761399399372036400,11.215036376953124,-0.8908506631851196,-0.6593946814537048,-0.8736638426780701
1761399399382117000,11.2251171875,-0.8820740580558777,-0.6118144989013672,-0.8490327000617981
1761399399392187100,11.235187255859374,-0.871532142162323,-0.51129150390625,-0.8516140580177307
1761399399402278400,11.2452783203125,-0.8682513236999512,-0.4084036946296692,-0.836209237575531
1761399399412344600,11.255344482421876,-0.848349928855896,-0.3482997715473175,-0.7822005748748779
1761399399422440000,11.26543994140625,-0.7859810590744019,-0.26508021354675293,-0.6891219019889832
1761399399432502300,11.275502197265626,-0.7074745297431946,-0.1946674883365631,-0.582853376865387
1761399399442601200,11.285601318359374,-0.6163943409919739,-0.28536465764045715,-0.4487394690513611
1761399399452688000,11.29568798828125,-0.49591997265815735,-0.4782501757144928,-0.3193386197090149
1761399399462762500,11.305762451171875,-0.33139604330062866,-0.7003965973854065,-0.211038276553154
1761399399472843500,11.315843505859375,-0.19958040118217468,-0.8578593134880066,-0.1686374396085739
1761399399482911500,11.325911376953124,-0.12410490214824677,-0.9788498878479004,-0.13268165290355682
1761399399493004500,11.336004638671875,-0.11154785752296448,-0.8427541851997375,-0.08097128570079803
1761399399503061000,11.34606103515625,-0.14094199240207672,-0.6977652907371521,-0.02358192950487137
1761399399513166000,11.356166015625,-0.11278024315834045,-0.6989810466766357,0.08433537185192108
1761399399523246600,11.36624658203125,-0.02321554347872734,-0.8864374160766602,0.22779211401939392
1761399399533314800,11.376314697265625,0.10991577059030533,-1.2303239107131958,0.3896180987358093
1761399399543393500,11.3863935546875,0.27100899815559387,-1.5988414287567139,0.4861774444580078
1761399399553481200,11.396481201171875,0.40282464027404785,-1.8800593614578247,0.49552029371261597
1761399399563569400,11.4065693359375,0.5172702670097351,-2.0818047523498535,0.4958866834640503
1761399399573650000,11.41664990234375,0.6841257810592651,-2.1545488834381104,0.5635348558425903
1761399399583731500,11.4267314453125,0.8330782651901245,-2.181494951248169,0.6582788825035095
1761399399593811700,11.436811767578124,0.9255740642547607,-2.1957507133483887,0.8232857584953308
1761399399603890700,11.446890625,1.025947093963623,-2.1262872219085693,1.1107988357543945
1761399399613967600,11.456967529296875,1.1280022859573364,-1.8968631029129028,1.5648841857910156
1761399399624053800,11.4670537109375,1.2073414325714111,-1.5519940853118896,2.098475217819214
1761399399634134800,11.477134765625,1.2001636028289795,-1.1965497732162476,2.4774181842803955
1761399399644189700,11.487189697265626,1.1677885055541992,-0.8815910816192627,2.57940673828125
1761399399654296300,11.49729638671875,1.1351468563079834,-0.5623524188995361,2.45703387260437
1761399399664367000,11.5073671875,1.1360461711883545,-0.3229025602340698,2.1540327072143555
1761399399674455300,11.517455322265626,1.1709027290344238,-0.22822511196136475,1.790944218635559
1761399399684527600,11.527527587890624,1.2689776420593262,-0.2791360914707184,1.5158218145370483
1761399399694629400,11.53762939453125,1.410752296447754,-0.41115158796310425,1.4295711517333984
1761399399704699400,11.547699462890625,1.5288118124008179,-0.5122241377830505,1.5092101097106934
1761399399714779400,11.557779296875,1.5510281324386597,-0.5111916065216064,1.5803723335266113
1761399399724860400,11.5678603515625,1.53175950050354,-0.4266064167022705,1.4842126369476318
1761399399734928400,11.577928466796875,1.5524770021438599,-0.3903008997440338,1.235053539276123
1761399399745022500,11.5880224609375,1.5525436401367188,-0.4191621243953705,0.9104856252670288
1761399399755091700,11.598091796875,1.5251479148864746,-0.6141626834869385,0.5701297521591187
1761399399765183200,11.608183349609375,1.4692240953445435,-0.9301539063453674,0.27127546072006226
1761399399775264300,11.61826416015625,1.3755625486373901,-1.1493359804153442,0.053375765681266785
1761399399785332500,11.62833251953125,1.291393756866455,-1.3503319025039673,-0.09227928519248962
1761399399795426000,11.638426025390626,1.254272222518921,-1.6474875211715698,-0.20594218373298645
1761399399805502000,11.648501953125,1.2314397096633911,-1.855228304862976,-0.26731181144714355
1761399399815577900,11.658577880859376,1.2372685670852661,-1.9209446907043457,-0.26661235094070435
1761399399835738400,11.67873828125,1.3434704542160034,-1.6544156074523926,-0.24126511812210083
1761399399845829000,11.6888291015625,1.3174238204956055,-1.380642056465149,-0.22133038938045502
1761399399855902500,11.69890234375,1.2706096172332764,-1.2501254081726074,-0.28473180532455444
1761399399865988400,11.70898828125,1.2867306470870972,-1.2987548112869263,-0.39951053261756897
1761399399876071200,11.7190712890625,1.3020023107528687,-1.2919100522994995,-0.4818474352359772
1761399399886151700,11.729151611328126,1.253939151763916,-1.2457953691482544,-0.5431171655654907
1761399399896239400,11.7392392578125,1.1338311433792114,-1.1646409034729004,-0.6218568086624146
1761399399906313200,11.749313232421875,1.0183196067810059,-1.0467479228973389,-0.7044934630393982
1761399399916392000,11.759391845703124,0.8728144764900208,-0.8653368949890137,-0.7532228231430054
1761399399926461700,11.769461669921874,0.6778972148895264,-0.6469376087188721,-0.7384008169174194
1761399399936542500,11.77954248046875,0.467291921377182,-0.4146655797958374,-0.6689873337745667
1761399399946602800,11.789602783203126,0.24912576377391815,-0.2018786370754242,-0.5868669748306274
1761399399956716300,11.79971630859375,0.05011159926652908,-0.040968604385852814,-0.5279954075813293
1761399399966779100,11.809779052734376,-0.11942514777183533,0.040935296565294266,-0.5043302178382874
1761399399976877800,11.8198779296875,-0.2845153212547302,0.058005549013614655,-0.5138229131698608
1761399399986958300,11.829958251953125,-0.45571744441986084,0.0399860255420208,-0.5374881029129028
1761399399997039600,11.84003955078125,-0.6177266240119934,0.007427641656249762,-0.5624189972877502
1761399400007120100,11.8501201171875,-0.7441297769546509,-0.038137443363666534,-0.5497786998748779
1761399400017200400,11.860200439453125,-0.7947576642036438,-0.17333383858203888,-0.5158547163009644
1761399400027281700,11.87028173828125,-0.7612999677658081,-0.2956567704677582,-0.4861108362674713
1761399400037362000,11.88036181640625,-0.6247379183769226,-0.2731906473636627,-0.5420013070106506
1761399400047430100,11.89043017578125,-0.38930168747901917,-0.2143857181072235,-0.6261035799980164
1761399400057523700,11.900523681640625,-0.09271229058504105,-0.211038276553154,-0.5670154690742493
1761399400067604500,11.9106044921875,0.18295979499816895,-0.14985182881355286,-0.37622836232185364
1761399400077685000,11.92068505859375,0.3771609961986542,0.005745597183704376,-0.2131366729736328
1761399400087765500,11.930765625,0.4840956926345825,0.28028520941734314,-0.22980722784996033
1761399400097846300,11.94084619140625,0.5276123881340027,0.4060555100440979,-0.42907121777534485
1761399400107926800,11.9509267578125,0.5659496188163757,0.20071285963058472,-0.6255373358726501
1761399400118004200,11.961004150390625,0.627718985080719,-0.184525266289711,-0.6611100435256958
1761399400128076000,11.971075927734375,0.4754023551940918,-0.39533039927482605,-0.5982082486152649
1761399400138169000,11.981169189453125,0.003647205187007785,-0.35692650079727173,-0.794008195400238
1761399400148239000,11.991239013671875,-0.6615263819694519,-0.11216405034065247,-1.1745831966400146
1761399400158330400,12.001330322265625,-1.2649972438812256,0.41170117259025574,-1.3937653303146362
1761399400168410600,12.01141064453125,-1.3560441732406616,0.5396864414215088,-1.339073896408081
1761399400178490000,12.021489990234375,-0.8924494385719299,0.28125113248825073,-1.0039639472961426
1761399400188549000,12.031549072265625,-0.06541653722524643,0.05011159926652908,-0.6048698425292969
1761399400198653000,12.04165283203125,0.7580024600028992,-0.5958101153373718,-0.16880397498607635
1761399400208734000,12.05173388671875,1.0889655351638794,-1.1287683248519897,0.20614203810691833
1761399400218801700,12.0618017578125,0.9376314878463745,-0.775006115436554,0.29224273562431335
1761399400228895700,12.071895751953125,0.44331029057502747,-0.4019586443901062,0.11101493239402771
1761399400238974500,12.081974365234375,-0.38255685567855835,-0.03773774951696396,-0.15444831550121307
1761399400249057300,12.092057373046876,-1.2285752296447754,0.2295074611902237,-0.4309197962284088
1761399400259139000,12.10213916015625,-1.6574299335479736,0.01740333065390587,-0.6892718076705933
1761399400269218000,12.112218017578124,-1.6433407068252563,-0.6990309953689575,-0.8894684314727783
1761399400279298600,12.122298583984374,-1.3752461671829224,-1.068214774131775,-0.9180964827537537
1761399400289366500,12.132366455078126,-0.8473673462867737,-0.869200587272644,-0.8314461708068848
1761399400299460400,12.14246044921875,-0.12074080854654312,-0.43343451619148254,-0.7088068723678589
1761399400309538600,12.15253857421875,0.22955742478370667,-0.023232197389006615,-0.6056358814239502
1761399400319622000,12.162621826171875,0.024980857968330383,0.18167744576931,-0.6547982096672058
1761399400329691100,12.172691162109375,-0.2844986617565155,0.2671286463737488,-0.8631385564804077
1761399400339783000,12.182782958984374,-0.4374314546585083,0.32924771308898926,-0.9882593750953674
1761399400349864000,12.192864013671874,-0.5096427798271179,0.3313627541065216,-0.9530529975891113
1761399400359944400,12.2029443359375,-0.5078774690628052,0.2301403135061264,-0.8572098016738892
1761399400370023200,12.213023193359374,-0.4689573049545288,0.1266196370124817,-0.787146806716919
1761399400380106000,12.22310595703125,-0.4600807726383209,0.09251244366168976,-0.7653801441192627
1761399400390186500,12.2331865234375,-0.4909404516220093,0.06904708594083786,-0.7659797072410583
1761399400400254500,12.24325439453125,-0.5434502363204956,0.05129402503371239,-0.7511244416236877
1761399400410338000,12.253338134765626,-0.5919630527496338,0.03202546015381813,-0.7117046117782593
1761399400420428800,12.2634287109375,-0.6166940927505493,0.003114280290901661,-0.6820273399353027
1761399400430509600,12.273509521484375,-0.6289846897125244,-0.016087671741843224,-0.6970991492271423
1761399400440586000,12.2835859375,-0.6316159963607788,-0.014955206774175167,-0.7530229687690735
1761399400450656000,12.293656005859376,-0.6296841502189636,-0.00782733503729105,-0.8139595985412598
1761399400460751600,12.303751708984375,-0.6370285153388977,0.002864471636712551,-0.8533461093902588
1761399400470819300,12.3138193359375,-0.6606270670890808,0.010208843275904655,-0.8667024970054626
1761399400480912600,12.32391259765625,-0.688705563545227,0.008526799269020557,-0.860140860080719
1761399400490993200,12.3339931640625,-0.7277089953422546,0.002481431933119893,-0.8453189134597778
1761399400501059300,12.344059326171875,-0.7739735841751099,-0.0007161179091781378,-0.8347769975662231
1761399400511155200,12.3541552734375,-0.8434370160102844,0.03858709707856178,-0.8503650426864624
1761399400521235200,12.364235107421875,-0.9093698263168335,0.053708843886852264,-0.8861876130104065
1761399400531296500,12.374296630859375,-0.9670922756195068,0.059854134917259216,-0.9397465586662292
1761399400541406000,12.384406005859375,-1.0113749504089355,0.06032044440507889,-1.0064620971679688
1761399400551464400,12.39446435546875,-1.046597957611084,0.06833097338676453,-1.0891153812408447
1761399400561543400,12.40454345703125,-1.0480302572250366,0.07259437441825867,-1.1772478818893433
1761399400571638800,12.414638671875,-1.0159214735031128,0.10833364725112915,-1.255171537399292
1761399400581716000,12.424716064453126,-0.9990510940551758,0.08265332877635956,-1.2484099864959717
1761399400591788000,12.4347880859375,-0.9878929853439331,0.09161312878131866,-1.1187926530838013
1761399400601880800,12.444880859375,-0.9243916273117065,0.1307165026664734,-0.9106022119522095
1761399400611961600,12.454961669921875,-0.7690773010253906,0.10441998392343521,-0.6872733235359192
1761399400622042000,12.4650419921875,-0.6088001728057861,0.08386906236410141,-0.4847785234451294
1761399400632121300,12.475121337890625,-0.5069615244865417,0.07902278006076813,-0.3442695140838623
1761399400642190800,12.48519091796875,-0.4241083264350891,0.0567898154258728,-0.23944984376430511
1761399400682526500,12.5255263671875,-0.13819409906864166,0.4769178628921509,0.2210472822189331
1761399400692594200,12.53559423828125,-0.019068721681833267,0.4532526731491089,0.3228192925453186
1761399400702690000,12.54568994140625,0.10310432314872742,0.3179563581943512,0.4058389961719513
1761399400712756200,12.555756103515625,0.14145827293395996,0.0993405431509018,0.439912885427475
1761399400722849000,12.56584912109375,0.3562603294849396,-0.2352697104215622,0.40310776233673096
1761399400732930000,12.575929931640625,0.5228826403617859,-0.4690239131450653,0.3317790925502777
1761399400743010300,12.58601025390625,0.6960499286651611,-0.7359360456466675,0.2976052761077881
1761399400753091300,12.59609130859375,0.8862375617027283,-0.8232524991035461,0.3768112361431122
1761399400763158500,12.606158447265624,1.0948443412780762,-0.8926492929458618,0.6606603860855103
1761399400773252600,12.616252685546876,1.191170573234558,-1.0197685956954956,0.9842124581336975
1761399400783334000,12.626333984375,1.1904710531234741,-1.0852017402648926,1.3293979167938232
1761399400793410000,12.63641015625,1.1995973587036133,-0.9516540765762329,1.7236624956130981
1761399400803495200,12.6464951171875,1.221264123916626,-0.6002900004386902,2.1716859340667725
1761399400813575400,12.656575439453125,1.2217137813568115,-0.17148526012897491,2.576558828353882
1761399400823654700,12.666654541015625,1.178613543510437,0.14388974010944366,2.7643816471099854
1761399400833736700,12.67673681640625,1.143273949623108,0.36375460028648376,2.671619415283203
1761399400843818000,12.68681787109375,1.129351258277893,0.5808548927307129,2.410885810852051
1761399400853875000,12.696875,1.1165443658828735,0.7810847759246826,2.1655571460723877
1761399400863979000,12.70697900390625,1.079889178276062,0.8900346159934998,2.031376600265503
1761399400874059800,12.717059814453124,1.0694471597671509,0.9339343309402466,2.022749900817871
1761399400884135700,12.7271357421875,1.1402761936187744,0.9956037402153015,2.1033549308776855
1761399400894221300,12.73722119140625,1.2054429054260254,1.0514276027679443,2.1321661472320557
1761399400904301800,12.7473017578125,1.1843924522399902,0.9882094264030457,2.0160884857177734
1761399400914382800,12.7573828125,1.0819042921066284,0.8065319657325745,1.7769882678985596
1761399400924451300,12.767451416015625,0.9520204663276672,0.4759519398212433,1.4505051374435425
1761399400934531600,12.777531494140625,0.9085371494293213,0.22362864017486572,1.1978321075439453
1761399400944622000,12.7876220703125,0.9426276683807373,-0.037304747849702835,1.0470975637435913
1761399400954703400,12.797703369140624,0.9973524212837219,-0.3084969222545624,0.9210941791534424
1761399400964776200,12.807776123046875,0.9815811514854431,-0.5490126013755798,0.8086303472518921
