time,seconds_elapsed,z,y,x
1761315365929915000,0.216914794921875,-0.0067751407623291016,0.0039844512939453125,0.006546735763549805
1761315365948836600,0.235836669921875,-0.002887725830078125,0.022647857666015625,-0.031708717346191406
1761315365967758600,0.254758544921875,0.008869647979736328,-0.0019092559814453125,-0.03361368179321289
1761315365986680300,0.273680419921875,0.003501415252685547,-0.014086723327636719,-0.003706693649291992
1761315366005602000,0.29260205078125,0.0010576248168945312,-0.013904571533203125,0.02289414405822754
1761315366024524000,0.31152392578125,-0.02043771743774414,-0.014852523803710938,0.0014088153839111328
1761315366043445800,0.33044580078125,-0.0022873878479003906,-0.01708221435546875,-0.03178262710571289
1761315366062367500,0.349367431640625,-0.00015997886657714844,0.00048065185546875,-0.03609514236450195
1761315366081289500,0.36828955078125,0.001430511474609375,-0.007540702819824219,-0.008930444717407227
1761315366100211200,0.387211181640625,-0.0020956993103027344,-0.005710601806640625,0.0023102760314941406
1761315366119133000,0.4061328125,-0.012340068817138672,0.011122703552246094,-0.008757591247558594
1761315366138055000,0.425054931640625,-0.03295707702636719,0.019661903381347656,-0.017843246459960938
1761315366156976600,0.4439765625,-0.008442401885986328,-0.003692626953125,-0.012770414352416992
1761315366175898400,0.4628984375,-0.0330195426940918,0.011073112487792969,0.040022850036621094
1761315366194820400,0.4818203125,0.00966954231262207,-0.0042858123779296875,0.0206301212310791
1761315366213742000,0.5007421875,0.018653392791748047,-0.0118408203125,0.025787353515625
1761315366232663800,0.519663818359375,0.01317906379699707,0.0016918182373046875,0.027618885040283203
1761315366251585800,0.538585693359375,-0.015325069427490234,-0.029595375061035156,0.013329267501831055
1761315366270507500,0.557507568359375,-0.026320695877075195,-0.013475418090820312,0.013573646545410156
1761315366289429200,0.57642919921875,-0.0017273426055908203,-0.004242897033691406,0.01096343994140625
1761315366308351200,0.595351318359375,-0.004972219467163086,0.011719703674316406,-0.012272119522094727
1761315366327273000,0.61427294921875,-0.024924516677856445,-0.0032825469970703125,-0.002155303955078125
1761315366346194700,0.633194580078125,-0.016664505004882812,-0.0035400390625,0.018797636032104492
1761315366365116700,0.65211669921875,-0.043155670166015625,-0.015644073486328125,-0.014270544052124023
1761315366384038400,0.671038330078125,-0.008269548416137695,-0.0131378173828125,-0.008502006530761719
1761315366402960100,0.689960205078125,-0.02606487274169922,0.0031642913818359375,-0.00935983657836914
1761315366421882000,0.708882080078125,-0.0017201900482177734,-0.023839950561523438,0.031800031661987305
1761315366440803800,0.727803955078125,-0.015938520431518555,-0.054787635803222656,0.07702898979187012
1761315366459725600,0.7467255859375,-0.014119148254394531,-0.04778766632080078,0.05974602699279785
1761315366478647600,0.7656474609375,-0.01486063003540039,-0.024717330932617188,0.026664018630981445
1761315366497569300,0.7845693359375,-0.032113075256347656,-0.0001964569091796875,0.011183977127075195
1761315366516491000,0.803490966796875,-0.01849055290222168,0.009912490844726562,0.005406856536865234
1761315366535413000,0.8224130859375,-0.014475107192993164,0.0037202835083007812,-0.019015789031982422
1761315366554334700,0.841334716796875,0.006609916687011719,-0.005454063415527344,-0.05408048629760742
1761315366573256400,0.86025634765625,0.04308819770812988,-0.07341861724853516,0.04780387878417969
1761315366592178400,0.879178466796875,-0.026132822036743164,0.039765357971191406,-0.005650043487548828
1761315366611100200,0.89810009765625,-0.019669532775878906,0.008812904357910156,-0.017409324645996094
1761315366630022000,0.91702197265625,-0.020012378692626953,-0.004820823669433594,-0.005407094955444336
1761315366648943900,0.93594384765625,0.0001392364501953125,-0.0036897659301757812,-0.010731697082519531
1761315366667865600,0.954865478515625,-0.0176236629486084,0.0037708282470703125,0.02898573875427246
1761315366686787300,0.973787353515625,-0.018659591674804688,-0.009916305541992188,-0.0004940032958984375
1761315366705709300,0.992709228515625,-0.03153252601623535,-0.011355400085449219,0.02682328224182129
1761315366724631000,1.011631103515625,-0.020770549774169922,-0.024808883666992188,-0.0003509521484375
1761315366743552800,1.030552734375,-0.03331255912780762,-0.03318977355957031,-0.0007948875427246094
1761315366762474800,1.049474853515625,-0.04400372505187988,-0.03278350830078125,-0.026422500610351562
1761315366781396500,1.068396484375,-0.03046393394470215,-0.035956382751464844,0.015790939331054688
1761315366800318200,1.087318115234375,-0.017268657684326172,-0.008233070373535156,0.03308606147766113
1761315366819240200,1.106240234375,0.016717195510864258,0.0019969940185546875,-0.0016117095947265625
1761315366838162000,1.125161865234375,-0.011600255966186523,0.04470348358154297,-0.0488734245300293
1761315366857083600,1.144083740234375,-0.006181001663208008,0.020201683044433594,-0.05032229423522949
1761315366876005600,1.163005615234375,-0.029415607452392578,-0.024301528930664062,0.009478330612182617
1761315366894927400,1.18192724609375,-0.014616012573242188,-0.03492927551269531,0.020473718643188477
1761315366913849000,1.20084912109375,0.011288881301879883,-0.030991554260253906,-0.0015735626220703125
1761315366932771000,1.21977099609375,-0.01550912857055664,0.014604568481445312,0.010002374649047852
1761315366951692800,1.23869287109375,-0.02310776710510254,0.0045413970947265625,0.01446390151977539
1761315366970614500,1.257614501953125,-0.009345293045043945,-0.019102096557617188,0.014133453369140625
1761315366989536500,1.27653662109375,-0.01668095588684082,-0.02339935302734375,0.029614686965942383
1761315367008458200,1.295458251953125,-0.010131120681762695,-0.022722244262695312,0.051622867584228516
1761315367027380000,1.3143798828125,-0.015278816223144531,-0.012973785400390625,0.04031991958618164
1761315367046302000,1.333302001953125,-0.018277645111083984,0.008298873901367188,0.02965259552001953
1761315367065223700,1.3522236328125,0.04240298271179199,-0.017991065979003906,-0.015585184097290039
1761315367084145700,1.371145751953125,0.028757333755493164,-0.0035543441772460938,-0.010710000991821289
1761315367103067400,1.3900673828125,0.015677213668823242,-0.02046966552734375,-0.020121335983276367
1761315367121989000,1.408989013671875,-0.003936767578125,0.019634246826171875,0.003854513168334961
1761315367140910800,1.427910888671875,0.03278684616088867,0.016457557678222656,-0.019088268280029297
1761315367159832800,1.446832763671875,0.04699587821960449,0.0038433074951171875,0.01724529266357422
1761315367178754600,1.465754638671875,0.025385379791259766,0.02904224395751953,-0.0015916824340820312
1761315367197676500,1.484676513671875,0.0066680908203125,0.0020780563354492188,-0.015197038650512695
1761315367216598300,1.503598388671875,0.0004429817199707031,0.013121604919433594,-0.045343637466430664
1761315367235520000,1.52252001953125,0.009036064147949219,0.021567344665527344,-0.016022205352783203
1761315367254441700,1.541441650390625,0.003678560256958008,0.024987220764160156,-0.019743919372558594
1761315367273363700,1.56036376953125,0.01320505142211914,0.012208938598632812,-0.007120370864868164
1761315367292285400,1.579285400390625,0.008465051651000977,-0.02290058135986328,0.02596449851989746
1761315367311207400,1.59820751953125,0.022251367568969727,-0.010363578796386719,0.04872894287109375
1761315367330129200,1.617129150390625,0.02370929718017578,0.039048194885253906,-0.025252342224121094
1761315367349051000,1.63605078125,-0.005206584930419922,0.030775070190429688,-0.02860879898071289
1761315367367972600,1.65497265625,0.018158435821533203,0.017876625061035156,-0.015280961990356445
1761315367386894600,1.67389453125,0.034071922302246094,0.007464408874511719,-0.0329134464263916
1761315367405816300,1.69281640625,0.002370119094848633,-0.007460594177246094,0.008808612823486328
1761315367424738300,1.71173828125,0.006638050079345703,-0.004590034484863281,0.01602649688720703
1761315367443660000,1.730659912109375,0.01592564582824707,-0.02793598175048828,0.0012159347534179688
1761315367462581800,1.749581787109375,0.04288601875305176,-0.030778884887695312,-0.0021097660064697266
1761315367481503500,1.76850341796875,0.0011606216430664062,0.02924633026123047,-0.017746686935424805
1761315367500425500,1.787425537109375,-0.044016122817993164,0.06841468811035156,-0.060082435607910156
1761315367519347200,1.80634716796875,-0.009901762008666992,0.06908607482910156,-0.006916046142578125
1761315367538269200,1.825269287109375,0.028621435165405273,0.032138824462890625,-0.008743047714233398
1761315367557191000,1.84419091796875,0.00914907455444336,0.0032491683959960938,-0.029508113861083984
1761315367576112600,1.863112548828125,0.006775379180908203,-0.015960693359375,0.009052276611328125
1761315367595034600,1.88203466796875,0.03477907180786133,-0.0859222412109375,0.08198952674865723
1761315367613956400,1.900956298828125,0.05515003204345703,-0.04427623748779297,0.03557705879211426
1761315367632878000,1.919878173828125,-0.004708528518676758,-0.02442169189453125,0.04454159736633301
1761315367651800000,1.938800048828125,-0.04980278015136719,-0.018924713134765625,0.0274200439453125
1761315367670721800,1.9577216796875,-0.013274908065795898,-0.0069484710693359375,0.04607081413269043
1761315367689643500,1.9766435546875,-0.012463808059692383,-0.011140823364257812,0.047266244888305664
1761315367708565500,1.9955654296875,-0.004522085189819336,-0.027317047119140625,0.017542123794555664
1761315367727487200,2.0144873046875,-0.015975236892700195,0.008334159851074219,0.04488372802734375
1761315367746409000,2.033408935546875,-0.04121828079223633,-0.02684307098388672,0.04352259635925293
1761315367765331000,2.0523310546875,-0.011826276779174805,-0.03544330596923828,0.03295254707336426
1761315367784252700,2.071252685546875,-0.03258848190307617,-0.037189483642578125,0.022789478302001953
1761315367803174400,2.09017431640625,-0.013114452362060547,-0.022360801696777344,0.0179290771484375
1761315367822096400,2.109096435546875,0.12216854095458984,0.0772552490234375,-0.03433823585510254
1761315367841018000,2.12801806640625,0.017305374145507812,0.011393547058105469,-0.03372645378112793
1761315367859939800,2.14693994140625,0.0314640998840332,0.004364967346191406,-0.023073196411132812
1761315367878861800,2.16586181640625,0.040204524993896484,0.01513671875,-0.03785347938537598
1761315367897783600,2.184783447265625,0.032364845275878906,0.04027271270751953,-0.03133273124694824
1761315367916705500,2.20370556640625,0.024669885635375977,0.013414382934570312,-0.004416465759277344
1761315367935627300,2.222627197265625,0.037868499755859375,0.008173942565917969,0.021390199661254883
1761315367954549000,2.241549072265625,0.015352010726928711,-0.013136863708496094,-0.0002562999725341797
1761315367973471000,2.260470947265625,0.016909360885620117,-0.026798248291015625,0.01809859275817871
1761315367992392700,2.279392822265625,0.016333818435668945,-0.00064849853515625,0.0177004337310791
1761315368011314400,2.298314453125,0.0231173038482666,-0.012479782104492188,0.0016777515411376953
1761315368030236400,2.317236328125,0.027291059494018555,0.0016374588012695312,0.05133676528930664
1761315368049158100,2.336158203125,0.03161168098449707,-0.008012771606445312,0.04546022415161133
1761315368068079900,2.355079833984375,0.024815797805786133,0.03705024719238281,0.004018306732177734
1761315368087001900,2.374001953125,0.004597902297973633,0.040561676025390625,-0.05973935127258301
1761315368105923600,2.392923583984375,0.046021223068237305,0.06104087829589844,-0.08172988891601562
1761315368124845300,2.41184521484375,0.04669594764709473,0.025142669677734375,-0.012306690216064453
1761315368143767300,2.430767333984375,0.03731584548950195,-0.005446434020996094,0.020003318786621094
1761315368162689000,2.44968896484375,0.011128902435302734,-0.018829345703125,0.02160477638244629
1761315368181610800,2.46861083984375,-0.01723027229309082,0.007951736450195312,0.016559839248657227
1761315368200532700,2.48753271484375,-0.04741621017456055,-0.029824256896972656,0.016667842864990234
1761315368219454500,2.506454345703125,-0.04462456703186035,-0.0500946044921875,0.026429414749145508
1761315368238376400,2.52537646484375,-0.03786587715148926,-0.04926109313964844,0.02657485008239746
1761315368257298200,2.544298095703125,-0.06167316436767578,0.014611244201660156,-0.019775390625
1761315368276220000,2.563219970703125,-0.06080508232116699,0.036434173583984375,-0.03616738319396973
1761315368295141600,2.5821416015625,-0.063720703125,0.04368114471435547,-0.04946112632751465
1761315368314063600,2.601063720703125,-0.01615595817565918,0.05344200134277344,-0.032674312591552734
1761315368332985300,2.6199853515625,0.04015350341796875,0.04457283020019531,-0.03338360786437988
1761315368351907300,2.6389072265625,0.026604890823364258,0.03396892547607422,-0.03472304344177246
1761315368370829000,2.6578291015625,0.02702617645263672,-0.013361930847167969,-0.028321027755737305
1761315368389750800,2.676750732421875,0.010873794555664062,-0.03393840789794922,0.015109777450561523
1761315368408672800,2.6956728515625,0.0435490608215332,-0.04254150390625,0.10454320907592773
1761315368427594500,2.714594482421875,0.06773257255554199,-0.03710746765136719,0.11181330680847168
1761315368446516200,2.73351611328125,0.04387164115905762,-0.05538749694824219,0.05796027183532715
1761315368465438200,2.752438232421875,0.003639698028564453,-0.02932453155517578,0.038967132568359375
1761315368484360000,2.77135986328125,0.004369974136352539,-0.038967132568359375,0.03742623329162598
1761315368503281700,2.79028173828125,-0.004036903381347656,-0.04128456115722656,0.07510828971862793
1761315368522203600,2.80920361328125,0.0016067028045654297,-0.03381538391113281,0.07866501808166504
1761315368541125400,2.82812548828125,-0.025233745574951172,0.036479949951171875,-0.014577865600585938
1761315368560047000,2.847047119140625,-0.010905027389526367,0.020827293395996094,-0.09332656860351562
1761315368578969000,2.865968994140625,-0.01066899299621582,0.02729511260986328,-0.09034371376037598
1761315368597890800,2.884890869140625,-0.030735492706298828,0.06898880004882812,-0.046300411224365234
1761315368616812800,2.903812744140625,-0.042447566986083984,0.10258293151855469,-0.13218474388122559
1761315368635734500,2.922734619140625,-0.009161233901977539,0.0768270492553711,-0.15423846244812012
1761315368654656300,2.94165625,-0.011774539947509766,0.08223915100097656,-0.08413338661193848
1761315368673578200,2.960578125,0.004157304763793945,0.028524398803710938,-0.07163214683532715
1761315368692500000,2.9795,0.016736745834350586,-0.02124786376953125,-0.02704596519470215
1761315368711421700,2.998421630859375,0.021353483200073242,-0.04206371307373047,-0.007031679153442383
1761315368730343700,3.01734375,-0.005078554153442383,-0.041619300842285156,-0.010451078414916992
1761315368749265400,3.036265380859375,-0.01996302604675293,-0.03146648406982422,0.00466156005859375
1761315368768187100,3.055187255859375,-0.02349543571472168,-0.04097938537597656,0.028871774673461914
1761315368787109000,3.074109130859375,-0.026735305786132812,-0.03851890563964844,0.08344364166259766
1761315368806030800,3.09303076171875,-0.009051084518432617,-0.029483795166015625,0.07597899436950684
1761315368824952600,3.11195263671875,0.007040262222290039,-0.008602142333984375,0.0777273178100586
1761315368843874600,3.13087451171875,0.01566600799560547,-0.004391670227050781,0.043491363525390625
1761315368862796300,3.14979638671875,-0.015649080276489258,0.00540924072265625,-0.011777162551879883
1761315368881718300,3.16871826171875,-0.012845754623413086,0.031350135803222656,-0.06342124938964844
1761315368900640000,3.187639892578125,-0.0021295547485351562,0.04723548889160156,-0.06489086151123047
1761315368919561700,3.206561767578125,0.025527477264404297,0.06304454803466797,-0.035178184509277344
1761315368938483700,3.225483642578125,0.05790257453918457,0.050271034240722656,0.002904653549194336
1761315368957405400,3.244405517578125,0.07307267189025879,0.06889820098876953,-0.04286313056945801
1761315368976327200,3.2633271484375,0.04173731803894043,0.11586380004882812,-0.04177451133728027
1761315368995249200,3.282249267578125,0.011290788650512695,0.1054391860961914,-0.10214638710021973
1761315369014171000,3.3011708984375,-0.017136573791503906,0.03690814971923828,-0.06529641151428223
1761315369033092600,3.320092529296875,0.000225067138671875,0.02241230010986328,0.03871583938598633
1761315369052014600,3.3390146484375,0.03801250457763672,-0.029104232788085938,0.1001431941986084
1761315369070936300,3.357936279296875,0.0483705997467041,-0.09103012084960938,0.06933212280273438
1761315369089858300,3.3768583984375,0.05490279197692871,-0.1095743179321289,0.10010600090026855
1761315369108780000,3.395780029296875,-0.005554914474487305,-0.08835887908935547,0.08352518081665039
1761315369127701800,3.41470166015625,-0.007188081741333008,-0.08501529693603516,0.05179858207702637
1761315369146623700,3.433623779296875,0.03965473175048828,-0.07982063293457031,0.06851887702941895
1761315369165545500,3.45254541015625,0.0347898006439209,-0.0572052001953125,0.06729912757873535
1761315369184467200,3.47146728515625,0.03067326545715332,-0.03369617462158203,0.045500755310058594
1761315369203389200,3.49038916015625,0.011873722076416016,-0.006676673889160156,-0.012748003005981445
1761315369222311000,3.509310791015625,-0.03250765800476074,0.06657600402832031,-0.08126401901245117
1761315369241232600,3.528232666015625,-0.049126625061035156,0.07512664794921875,-0.10288000106811523
1761315369260154600,3.547154541015625,-0.0643620491027832,0.0388336181640625,-0.11212968826293945
1761315369279076400,3.566076416015625,-0.059980154037475586,0.04094505310058594,-0.08128118515014648
1761315369297998000,3.584998046875,0.010539770126342773,0.029524803161621094,-0.03259921073913574
1761315369316920000,3.603920166015625,0.022884130477905273,0.041706085205078125,-0.030259370803833008
1761315369335841800,3.622841796875,-0.004258632659912109,0.0745534896850586,-0.07552170753479004
1761315369354763800,3.641763671875,0.007578134536743164,0.060461997985839844,-0.09160232543945312
1761315369373685500,3.660685546875,0.008098602294921875,0.06595039367675781,-0.03125762939453125
1761315369392607200,3.679607177734375,0.00913238525390625,0.04406929016113281,-0.010895013809204102
1761315369411529200,3.698529296875,-0.004036903381347656,0.027388572692871094,-0.0356748104095459
1761315369430451000,3.717450927734375,-0.021281719207763672,-0.03798103332519531,-0.021820068359375
1761315369449372700,3.73637255859375,0.004412412643432617,-0.026472091674804688,0.006005764007568359
1761315369468294700,3.755294677734375,0.03190279006958008,-0.02473735809326172,0.06845569610595703
1761315369487216400,3.77421630859375,0.04668760299682617,-0.037097930908203125,0.06265664100646973
1761315369506138400,3.793138427734375,0.047621726989746094,0.023511886596679688,0.026304960250854492
1761315369525060000,3.81206005859375,0.027587413787841797,0.059380531311035156,-0.039830684661865234
1761315369543981800,3.83098193359375,0.02051544189453125,0.03638648986816406,-0.048570871353149414
1761315369562903800,3.84990380859375,0.03454446792602539,0.02801799774169922,0.0038297176361083984
1761315369581825500,3.868825439453125,0.04874777793884277,0.008351325988769531,0.02450251579284668
1761315369600747500,3.88774755859375,0.08393025398254395,-0.012970924377441406,-0.004554271697998047
1761315369619669200,3.906669189453125,0.08286380767822266,-0.0010242462158203125,-0.02791762351989746
1761315369638591000,3.925591064453125,0.0631110668182373,-0.008870124816894531,-0.024494647979736328
1761315369657513000,3.944512939453125,0.009572505950927734,-0.010229110717773438,0.014838457107543945
1761315369676434700,3.9634345703125,0.03844118118286133,-0.039086341857910156,0.039430856704711914
1761315369695356400,3.9823564453125,0.0354762077331543,-0.02996063232421875,0.058258056640625
1761315369714278400,4.0012783203125,0.02535557746887207,-0.03806591033935547,0.06255912780761719
1761315369733200100,4.0202001953125,-0.021701335906982422,-0.03694438934326172,0.06473350524902344
1761315369752122000,4.0391220703125,-0.02967691421508789,-0.049155235290527344,0.0715339183807373
1761315369771043800,4.0580439453125,-0.024861812591552734,-0.014082908630371094,0.03704190254211426
1761315369789965600,4.076965576171875,0.0000026226043701171875,0.0045719146728515625,0.012301445007324219
1761315369808887600,4.095887451171875,-0.0033316612243652344,0.0015840530395507812,-0.014131784439086914
1761315369827809300,4.114809326171875,0.0024509429931640625,0.0154571533203125,-0.014163017272949219
1761315369846731000,4.13373095703125,0.014180898666381836,0.019084930419921875,-0.04892325401306152
1761315369865653000,4.152653076171875,0.032183170318603516,-0.029100418090820312,-0.004868030548095703
1761315369884574700,4.17157470703125,0.029613971710205078,-0.006117820739746094,0.0056858062744140625
1761315369903496700,4.19049658203125,-0.011518716812133789,-0.037901878356933594,-0.021408796310424805
1761315369922418400,4.20941845703125,-0.04989123344421387,-0.041235923767089844,-0.011340856552124023
1761315369941340200,4.228340087890625,-0.10750985145568848,-0.09223556518554688,-0.012336969375610352
1761315369960262100,4.24726220703125,-0.1368412971496582,-0.07042884826660156,0.018065214157104492
1761315369979183900,4.266183837890625,-0.14517784118652344,-0.08260917663574219,0.08808779716491699
1761315369998105900,4.28510595703125,-0.18132233619689941,-0.12017154693603516,0.11896944046020508
1761315370017027600,4.304027587890625,-0.17577409744262695,-0.10065078735351562,0.11361956596374512
1761315370035949300,4.32294921875,-0.13588929176330566,-0.012906074523925781,0.10812640190124512
1761315370054871300,4.341871337890625,-0.08388566970825195,0.014338493347167969,0.0201718807220459
1761315370073793000,4.36079296875,-0.053453922271728516,0.04836750030517578,0.0016477108001708984
1761315370092714800,4.37971484375,-0.03820610046386719,0.01904582977294922,0.03248858451843262
1761315370111636700,4.39863671875,0.006262063980102539,-0.012676239013671875,0.05246448516845703
1761315370130558500,4.417558349609375,0.03969883918762207,-0.03358936309814453,0.060183048248291016
1761315370149480400,4.43648046875,0.08588314056396484,-0.02797698974609375,0.039998531341552734
1761315370168402200,4.455402099609375,0.057877540588378906,-0.02321910858154297,-0.047411441802978516
1761315370187324000,4.474323974609375,0.023201704025268555,-0.021035194396972656,-0.08020663261413574
1761315370206246000,4.493245849609375,0.050568342208862305,0.034842491149902344,-0.0417628288269043
1761315370225167600,4.512167724609375,0.05856156349182129,0.08165931701660156,-0.02619791030883789
1761315370244089600,4.531089599609375,0.05243206024169922,0.10396099090576172,-0.06271648406982422
1761315370263011300,4.55001123046875,0.04970955848693848,0.09812164306640625,-0.0741274356842041
1761315370281933000,4.56893310546875,0.06680488586425781,0.05981731414794922,-0.05928850173950195
1761315370300855000,4.58785498046875,0.0739436149597168,0.0298614501953125,0.010355949401855469
1761315370319776800,4.60677685546875,0.0834951400756836,0.05242156982421875,-0.03266429901123047
1761315370338698500,4.625698486328125,0.09130096435546875,0.041550636291503906,-0.04651999473571777
1761315370357620500,4.644620361328125,0.08735203742980957,0.01453399658203125,-0.023989200592041016
1761315370376542200,4.663542236328125,0.11342000961303711,0.0048274993896484375,0.007180213928222656
1761315370395464200,4.682464111328125,0.09610772132873535,0.018947601318359375,0.0003285408020019531
1761315370414386000,4.701385986328125,0.04814481735229492,0.05323982238769531,-0.034121036529541016
1761315370433308000,4.720307861328125,0.041687965393066406,0.0021924972534179688,-0.023068904876708984
1761315370452229600,4.739229736328125,0.05669522285461426,-0.012195587158203125,0.038753509521484375
1761315370471151400,4.7581513671875,0.057225942611694336,-0.032479286193847656,0.07955217361450195
1761315370490073300,4.7770732421875,0.003592252731323242,-0.007830619812011719,0.05775856971740723
1761315370508995000,4.7959951171875,-0.01000356674194336,0.00909423828125,0.01567673683166504
1761315370527917000,4.8149169921875,-0.038973331451416016,0.023525238037109375,0.008703470230102539
1761315370546838800,4.8338388671875,-0.0647578239440918,-0.015714645385742188,0.03175616264343262
1761315370565760500,4.852760498046875,-0.060742855072021484,-0.01861572265625,0.019030332565307617
1761315370584682500,4.8716826171875,-0.08648228645324707,0.021246910095214844,-0.035440683364868164
1761315370603604200,4.890604248046875,-0.028517723083496094,0.03164482116699219,-0.013246774673461914
1761315370622526000,4.90952587890625,0.023462533950805664,0.04875755310058594,-0.04269123077392578
1761315370641448000,4.928447998046875,0.024785280227661133,0.07487201690673828,-0.09264945983886719
1761315370660369700,4.94736962890625,0.03230857849121094,0.048605918884277344,-0.14296817779541016
1761315370679291600,4.966291748046875,-0.012377500534057617,0.02369976043701172,-0.10076212882995605
1761315370698213400,4.98521337890625,-0.021181583404541016,-0.010506629943847656,-0.04073023796081543
1761315370717135000,5.004135009765625,-0.004269123077392578,-0.0014009475708007812,0.03355288505554199
1761315370736057000,5.02305712890625,-0.013726472854614258,-0.027579307556152344,0.011555671691894531
1761315370754978800,5.041978759765625,-0.04640984535217285,-0.008661270141601562,0.029944419860839844
1761315370773900800,5.06090087890625,-0.04995417594909668,0.0051727294921875,0.02649211883544922
1761315370792822500,5.079822509765625,-0.05089855194091797,-0.004718780517578125,0.04160356521606445
1761315370811744500,5.09874462890625,-0.032456159591674805,0.011987686157226562,-0.014340400695800781
1761315370830666200,5.117666259765625,-0.025096893310546875,0.028276443481445312,-0.06225895881652832
1761315370849588000,5.136587890625,-0.020092010498046875,0.030595779418945312,-0.06425285339355469
1761315370868510000,5.155510009765625,0.013244152069091797,0.034698486328125,-0.033577680587768555
1761315370887431700,5.174431640625,0.048285722732543945,-0.019850730895996094,-0.028888225555419922
1761315370906353400,5.193353515625,0.052907705307006836,-0.040299415588378906,-0.01880025863647461
1761315370925275400,5.212275390625,0.011410951614379883,0.011763572692871094,0.03574848175048828
1761315370944197000,5.231197021484375,0.02690267562866211,0.003078460693359375,0.012043476104736328
1761315370963119000,5.250119140625,0.07261347770690918,-0.016671180725097656,-0.012345314025878906
1761315370982040800,5.269040771484375,0.06574273109436035,-0.00817108154296875,0.010176420211791992
1761315371000962600,5.287962646484375,0.04005289077758789,-0.0047206878662109375,0.04839158058166504
1761315371019884500,5.306884521484375,0.05056452751159668,-0.033753395080566406,0.0686495304107666
1761315371038806300,5.32580615234375,0.028405189514160156,-0.04732704162597656,0.10013389587402344
1761315371057728300,5.344728271484375,0.018590688705444336,-0.03779411315917969,0.1007833480834961
1761315371076650000,5.36364990234375,0.0018343925476074219,-0.028583526611328125,0.09863400459289551
1761315371095572000,5.382572021484375,0.018256425857543945,-0.012454986572265625,0.07315516471862793
1761315371114493700,5.40149365234375,0.010766744613647461,-0.038867950439453125,0.05327272415161133
1761315371133415400,5.42041552734375,-0.015594959259033203,-0.039008140563964844,0.02655482292175293
1761315371152337400,5.43933740234375,-0.008224010467529297,-0.010756492614746094,-0.008872747421264648
1761315371171259100,5.458259033203125,-0.054920196533203125,-0.009088516235351562,-0.021797895431518555
1761315371190181000,5.47718115234375,-0.03423428535461426,-0.00316619873046875,-0.017314672470092773
1761315371209102800,5.496102783203125,-0.016727447509765625,-0.03039264678955078,0.03185772895812988
1761315371228024600,5.515024658203125,-0.014525413513183594,-0.056733131408691406,0.06365609169006348
1761315371246946600,5.533946533203125,-0.008119583129882812,-0.026495933532714844,0.02191448211669922
1761315371265868300,5.552868408203125,-0.009169578552246094,0.0076007843017578125,0.004830837249755859
1761315371284790300,5.571790283203125,-0.026755809783935547,0.04757213592529297,-0.009419441223144531
1761315371303712000,5.5907119140625,0.019691944122314453,0.0232086181640625,-0.015807151794433594
1761315371322633700,5.6096337890625,0.018070697784423828,-0.0006055831909179688,-0.02010059356689453
1761315371341555700,5.6285556640625,0.014347076416015625,-0.0024042129516601562,-0.024554729461669922
1761315371360477400,5.6474775390625,0.006143808364868164,0.03838157653808594,-0.05251336097717285
1761315371379399400,5.6663994140625,-0.006234884262084961,0.04289054870605469,-0.07019257545471191
1761315371398321200,5.685321044921875,-0.018595218658447266,0.0213775634765625,-0.07120752334594727
1761315371417243000,5.704242919921875,0.011841535568237305,0.0213775634765625,-0.04674124717712402
1761315371436164900,5.723164794921875,0.0013403892517089844,0.01971435546875,-0.03693699836730957
1761315371455086600,5.742086669921875,-0.0042226314544677734,0.04378700256347656,-0.03691244125366211
1761315371474008600,5.761008544921875,-0.0140380859375,0.01572704315185547,-0.058466196060180664
1761315371492930300,5.779930419921875,-0.004850864410400391,0.02112865447998047,-0.02107405662536621
1761315371511852000,5.79885205078125,-0.04295992851257324,-0.02325916290283203,-0.007845163345336914
1761315371530774000,5.81777392578125,-0.04106903076171875,-0.04035663604736328,0.011659383773803711
1761315371549695700,5.83669580078125,-0.07007575035095215,-0.028779029846191406,0.035640716552734375
1761315371568617700,5.85561767578125,-0.07471227645874023,0.0060787200927734375,0.023383378982543945
1761315371587539500,5.87453955078125,-0.03557181358337402,0.0563812255859375,-0.005142927169799805
1761315371606461400,5.89346142578125,-0.043181419372558594,0.02810192108154297,-0.011472940444946289
1761315371625383200,5.912383056640625,-0.010570287704467773,0.01220703125,0.00778651237487793
1761315371644305000,5.931304931640625,-0.011492729187011719,-0.012394905090332031,0.002988576889038086
1761315371663227000,5.950226806640625,0.0059697628021240234,-0.03581809997558594,0.009278535842895508
1761315371682148600,5.969148681640625,0.027855873107910156,-0.016550064086914062,-0.02414107322692871
1761315371701070600,5.988070556640625,0.015901565551757812,-0.027929306030273438,-0.002731800079345703
1761315371719992300,6.006992431640625,-0.0011546611785888672,-0.004408836364746094,0.008381366729736328
1761315371738914000,6.0259140625,-0.00635838508605957,-0.021536827087402344,0.019643783569335938
1761315371757836000,6.0448359375,0.002233266830444336,-0.008059501647949219,0.044938087463378906
1761315371776757800,6.0637578125,0.008540153503417969,0.011809349060058594,0.04439830780029297
1761315371795679700,6.0826796875,0.009842872619628906,-0.020585060119628906,0.049269914627075195
1761315371814601500,6.1016015625,0.027289152145385742,-0.04481792449951172,0.053823232650756836
1761315371833523200,6.120523193359375,0.04405617713928223,-0.045424461364746094,0.07067584991455078
1761315371852445200,6.139445068359375,0.046068668365478516,-0.022203445434570312,0.04681086540222168
1761315371871367000,6.158366943359375,0.030895709991455078,-0.042031288146972656,0.05345582962036133
1761315371890289000,6.177288818359375,0.00010371208190917969,-0.030755996704101562,0.03185129165649414
1761315371909210600,6.196210693359375,0.004706382751464844,-0.022222518920898438,0.03676319122314453
1761315371928132400,6.21513232421875,0.033232688903808594,-0.0003223419189453125,0.044333457946777344
1761315371947054300,6.234054443359375,0.04405999183654785,0.018585205078125,0.007692813873291016
1761315371965976000,6.25297607421875,0.049965620040893555,0.011072158813476562,-0.043865203857421875
1761315371984898000,6.27189794921875,0.02974224090576172,0.0208282470703125,-0.05868387222290039
1761315372003819800,6.29081982421875,0.03781771659851074,0.015137672424316406,-0.06671142578125
1761315372022741800,6.30974169921875,-0.009126663208007812,0.03551197052001953,-0.06228780746459961
1761315372041663500,6.32866357421875,-0.01022791862487793,0.0686941146850586,-0.07414984703063965
1761315372060585200,6.347585205078125,-0.010001182556152344,0.05971336364746094,-0.0765688419342041
1761315372079507200,6.366507080078125,-0.01742720603942871,0.08848285675048828,-0.04870486259460449
1761315372098429000,6.385428955078125,-0.007014751434326172,0.06313323974609375,-0.019679546356201172
1761315372117351000,6.404350830078125,0.008400678634643555,0.0065135955810546875,0.04759359359741211
1761315372136272600,6.423272705078125,0.02381277084350586,-0.04576301574707031,0.06085610389709473
1761315372155194600,6.442194580078125,0.009869575500488281,-0.05162334442138672,0.07306337356567383
1761315372174116400,6.461116455078125,0.04500889778137207,-0.04334449768066406,0.05636858940124512
1761315372193038000,6.4800380859375,0.027245521545410156,-0.04720115661621094,0.028951644897460938
1761315372211960000,6.4989599609375,0.02354121208190918,-0.009061813354492188,0.006795406341552734
1761315372230881800,6.5178818359375,-0.027635812759399414,-0.00748443603515625,-0.016360044479370117
1761315372249803800,6.5368037109375,-0.011567354202270508,0.014801025390625,-0.03825736045837402
1761315372268725500,6.5557255859375,-0.0072498321533203125,0.010441780090332031,-0.02816176414489746
1761315372287647200,6.574647216796875,-0.005462169647216797,0.02927684783935547,-0.008858919143676758
1761315372306569200,6.5935693359375,0.0032072067260742188,0.035976409912109375,-0.01816082000732422
1761315372325491000,6.612490966796875,0.006824493408203125,0.044722557067871094,-0.027694225311279297
1761315372344413000,6.631412841796875,0.0013287067413330078,0.00689697265625,-0.029927968978881836
1761315372363334700,6.650334716796875,-0.022703886032104492,0.0029430389404296875,0.011715888977050781
1761315372382256600,6.669256591796875,-0.008365631103515625,-0.04515552520751953,0.03596210479736328
1761315372401178400,6.688178466796875,0.015269041061401367,-0.028711318969726562,0.06209826469421387
1761315372420100000,6.70710009765625,0.0024683475494384766,-0.04343986511230469,0.03336048126220703
1761315372439022000,6.72602197265625,0.00603485107421875,0.012375831604003906,0.019761085510253906
1761315372457943800,6.74494384765625,0.0025339126586914062,-0.00342559814453125,0.0019047260284423828
1761315372476865800,6.76386572265625,-0.012525320053100586,0.015964508056640625,-0.027265071868896484
1761315372495787500,6.78278759765625,-0.00849771499633789,0.0003204345703125,-0.006410360336303711
1761315372514709200,6.801709228515625,0.009434223175048828,0.0037813186645507812,0.004750728607177734
1761315372533631200,6.82063134765625,0.007862567901611328,-0.016759872436523438,0.024764299392700195
1761315372552553000,6.839552978515625,-0.0010519027709960938,0.009782791137695312,-0.002355337142944336
1761315372571475000,6.858474853515625,-0.0023241043090820312,-0.001739501953125,-0.01429128646850586
1761315372590396700,6.877396728515625,-0.010484457015991211,0.005443572998046875,-0.009804964065551758
1761315372609318400,6.896318359375,0.009844064712524414,0.005657196044921875,0.013432025909423828
1761315372628240400,6.915240478515625,0.0296018123626709,0.008548736572265625,-0.003658771514892578
1761315372647162000,6.934162109375,0.015151023864746094,-0.00029850006103515625,0.0031316280364990234
1761315372666084000,6.953083984375,0.0004439353942871094,-0.01871967315673828,-0.004126071929931641
1761315372685005800,6.972005859375,0.013736248016357422,0.007298469543457031,-0.01789402961730957
1761315372703927600,6.990927490234375,0.001108407974243164,0.004326820373535156,-0.05651569366455078
1761315372722849500,7.009849609375,0.013925790786743164,0.005892753601074219,-0.004243135452270508
1761315372741771300,7.028771240234375,-0.006935834884643555,-0.018462181091308594,0.03707075119018555
1761315372760693200,7.047693359375,0.03607463836669922,-0.01651763916015625,0.013640165328979492
1761315372779615000,7.066614990234375,0.010084390640258789,0.02544879913330078,-0.00028228759765625
1761315372798537000,7.085536865234375,-0.0028400421142578125,0.052165985107421875,-0.043825626373291016
1761315372817458700,7.104458740234375,0.0034873485565185547,0.019830703735351562,-0.035231590270996094
1761315372836380400,7.12338037109375,0.003095865249633789,0.0073604583740234375,-0.005930423736572266
1761315372855302400,7.142302490234375,-0.002244710922241211,-0.00440216064453125,0.02194976806640625
1761315372874224000,7.16122412109375,-0.014038801193237305,-0.013393402099609375,0.002254962921142578
1761315372893146000,7.18014599609375,-0.022873878479003906,-0.01074981689453125,0.013557195663452148
1761315372912067800,7.19906787109375,-0.016941547393798828,0.0036754608154296875,0.01328277587890625
1761315372930989800,7.21798974609375,-0.009085893630981445,-0.0078067779541015625,0.008922338485717773
1761315372949911600,7.23691162109375,0.00029468536376953125,0.006549835205078125,0.04667067527770996
1761315372968833300,7.255833251953125,0.013344526290893555,-0.005618095397949219,0.00877237319946289
1761315372987755300,7.27475537109375,0.0004971027374267578,-0.00818634033203125,0.005182027816772461
1761315373006677000,7.293677001953125,-0.0005135536193847656,-0.032242774963378906,0.017856597900390625
1761315373025599000,7.312598876953125,0.0002319812774658203,-0.03730583190917969,0.01848602294921875
1761315373044520700,7.331520751953125,-0.0022368431091308594,-0.03965568542480469,0.014246463775634766
1761315373063442400,7.3504423828125,-0.014426231384277344,-0.020689010620117188,0.008272171020507812
1761315373082364400,7.369364501953125,-0.04252481460571289,-0.009787559509277344,0.019567012786865234
1761315373101286100,7.3882861328125,-0.04664278030395508,-0.02535533905029297,0.023450136184692383
1761315373120208100,7.4072080078125,-0.022278785705566406,-0.012403488159179688,0.025119543075561523
1761315373139129900,7.4261298828125,-0.0033502578735351562,-0.006545066833496094,0.0264742374420166
1761315373158051600,7.445051513671875,-0.0039806365966796875,-0.019557952880859375,0.006630420684814453
1761315373176973600,7.4639736328125,-0.019184589385986328,-0.0016164779663085938,0.026815176010131836
1761315373195895300,7.482895263671875,-0.005627155303955078,0.015891075134277344,-0.012630224227905273
1761315373214817300,7.5018173828125,-0.02896881103515625,0.032657623291015625,-0.07627987861633301
1761315373233739000,7.520739013671875,-0.013780355453491211,0.03016376495361328,-0.03451347351074219
1761315373252661000,7.539660888671875,-0.00830698013305664,0.02566814422607422,-0.005610227584838867
1761315373271582700,7.558582763671875,0.025164127349853516,0.0005245208740234375,0.0010838508605957031
1761315373290504400,7.57750439453125,0.029528141021728516,0.022798538208007812,0.019243240356445312
1761315373309426400,7.596426513671875,0.05230259895324707,0.03727912902832031,-0.03325939178466797
1761315373328348200,7.61534814453125,0.04370927810668945,-0.0004730224609375,-0.028157711029052734
1761315373347270100,7.634270263671875,0.04454922676086426,-0.002010345458984375,-0.011370182037353516
1761315373366191900,7.65319189453125,0.0518796443939209,-0.005489349365234375,0.0028090476989746094
1761315373385113600,7.672113525390625,0.035097599029541016,-0.011670112609863281,-0.012056827545166016
1761315373404035600,7.69103564453125,0.025672435760498047,-0.005859375,0.0135650634765625
1761315373422957300,7.709957275390625,-0.0023398399353027344,-0.0006361007690429688,-0.00813746452331543
1761315373441879300,7.72887939453125,0.02655792236328125,0.03012847900390625,-0.005998134613037109
1761315373460801000,7.747801025390625,0.008562088012695312,0.048824310302734375,-0.01331639289855957
1761315373479723000,7.766722900390625,0.0032837390899658203,0.029727935791015625,-0.023174285888671875
1761315373498644700,7.785644775390625,-0.012186527252197266,0.07232189178466797,-0.01963067054748535
1761315373517566500,7.80456640625,0.003995656967163086,0.06285762786865234,-0.044335365295410156
1761315373536488400,7.823488525390625,0.02831101417541504,0.07062721252441406,-0.052793264389038086
1761315373555410200,7.84241015625,0.033994197845458984,0.057709693908691406,-0.03343677520751953
1761315373574332200,7.861332275390625,0.04079771041870117,0.05716991424560547,-0.010461091995239258
1761315373593254000,7.88025390625,0.07159066200256348,0.0058383941650390625,-0.004816770553588867
1761315373612176000,7.89917578125,0.07287049293518066,0.021764755249023438,-0.007066488265991211
1761315373631097600,7.91809765625,0.05477499961853027,-0.0058994293212890625,-0.044106245040893555
1761315373650019300,7.937019287109375,0.012479543685913086,-0.03995037078857422,-0.034719228744506836
1761315373668941300,7.95594140625,0.014870405197143555,-0.05460929870605469,0.037812232971191406
1761315373687863000,7.974863037109375,-0.00045418739318847656,-0.09493446350097656,0.09073305130004883
1761315373706785000,7.993784912109375,-0.03235030174255371,-0.09050464630126953,0.05116748809814453
1761315373725706800,8.012706787109375,-0.06622743606567383,-0.04195690155029297,0.07407546043395996
1761315373744628500,8.03162841796875,-0.06609916687011719,-0.044066429138183594,0.09908795356750488
1761315373763550500,8.050550537109375,-0.03486824035644531,-0.0479888916015625,0.11591339111328125
1761315373782472200,8.06947216796875,-0.07184863090515137,-0.02147388458251953,0.08440709114074707
1761315373801394200,8.088394287109375,-0.05821824073791504,0.03299999237060547,0.033358097076416016
1761315373820316000,8.10731591796875,-0.04374432563781738,0.02991771697998047,-0.007126569747924805
1761315373839238000,8.12623779296875,0.03906512260437012,0.01804828643798828,-0.016864299774169922
1761315373858159600,8.14515966796875,0.05901169776916504,0.004406929016113281,-0.05481719970703125
1761315373877081300,8.164081298828124,0.040789127349853516,0.04059314727783203,-0.08918952941894531
1761315373896003300,8.18300341796875,0.05069255828857422,0.02610492706298828,-0.10314607620239258
1761315373914925000,8.201925048828125,0.08320212364196777,0.044582366943359375,-0.07178258895874023
1761315373933847000,8.220846923828125,0.10701227188110352,0.05045127868652344,-0.03871321678161621
1761315373952768800,8.239768798828125,0.06829023361206055,0.037230491638183594,-0.0706028938293457
1761315373971690500,8.2586904296875,0.03693890571594238,-0.017937660217285156,-0.05913710594177246
1761315373990612500,8.277612548828126,-0.0006473064422607422,-0.003987312316894531,-0.02661585807800293
1761315374009534200,8.2965341796875,-0.006448030471801758,0.026253700256347656,0.01677703857421875
1761315374028456200,8.315456298828124,-0.03721785545349121,-0.007841110229492188,0.0044155120849609375
1761315374047378000,8.3343779296875,-0.0430600643157959,0.0015630722045898438,-0.010168790817260742
1761315374066299600,8.353299560546875,-0.05325198173522949,-0.005089759826660156,-0.007838010787963867
1761315374085221600,8.3722216796875,-0.07258296012878418,-0.007008552551269531,0.010826349258422852
1761315374104143400,8.391143310546875,-0.058350324630737305,0.00025272369384765625,-0.008718490600585938
1761315374123065300,8.4100654296875,-0.0349423885345459,0.0030508041381835938,-0.02126169204711914
1761315374141987000,8.428987060546875,-0.047043800354003906,-0.005886077880859375,-0.023544788360595703
1761315374160909000,8.447908935546875,-0.0329594612121582,0.006585121154785156,-0.023088932037353516
1761315374179830800,8.466830810546876,-0.005777597427368164,-0.009272575378417969,-0.018503904342651367
1761315374198752500,8.48575244140625,-0.012169837951660156,-0.020061492919921875,-0.014154434204101562
1761315374217674500,8.504674560546874,-0.02818918228149414,-0.030361175537109375,-0.0005626678466796875
1761315374236596200,8.52359619140625,-0.03913998603820801,-0.015360832214355469,0.026811838150024414
1761315374255518200,8.542518310546875,-0.05290055274963379,-0.03120136260986328,0.020907878875732422
1761315374274440000,8.56143994140625,-0.03147268295288086,-0.02588653564453125,0.031713247299194336
1761315374293361700,8.580361572265625,-0.046483755111694336,-0.004384040832519531,0.0028655529022216797
1761315374312283600,8.59928369140625,-0.049680471420288086,-0.0097808837890625,0.013113737106323242
1761315374331205400,8.618205322265625,-0.034913063049316406,-0.04846763610839844,0.030726909637451172
1761315374350127400,8.63712744140625,-0.039365291595458984,-0.04868507385253906,0.05912184715270996
1761315374369049000,8.656049072265626,-0.02021622657775879,-0.02991771697998047,0.0706641674041748
1761315374387971000,8.67497119140625,-0.0033855438232421875,-0.025420188903808594,0.06497406959533691
1761315374406892800,8.693892822265624,0.008380889892578125,-0.023317337036132812,0.056572914123535156
1761315374425814500,8.712814453125,0.02953624725341797,0.02086925506591797,0.08819293975830078
1761315374444736500,8.731736572265625,0.05090188980102539,0.047898292541503906,0.05466604232788086
1761315374463658200,8.750658203125,0.07492613792419434,0.023308753967285156,0.028617382049560547
1761315374482580200,8.769580322265625,0.08005666732788086,0.04423713684082031,-0.01784348487854004
1761315374501502000,8.788501953125,0.06959724426269531,0.053641319274902344,-0.039930105209350586
1761315374520424000,8.807423828125,0.08521699905395508,0.06469154357910156,-0.06540179252624512
1761315374539345700,8.826345703125,0.08388686180114746,0.028372764587402344,-0.07074689865112305
1761315374558267400,8.845267333984374,0.10802650451660156,-0.009444236755371094,-0.04273819923400879
1761315374577189400,8.864189453125,0.08842706680297852,0.01868724822998047,0.04294943809509277
1761315374596111000,8.883111083984375,0.0550076961517334,0.04592609405517578,-0.01615452766418457
1761315374615033000,8.902033203125,0.0908353328704834,-0.02135467529296875,-0.01739192008972168
1761315374633954800,8.920954833984375,0.10631608963012695,0.016503334045410156,-0.020694494247436523
1761315374652876800,8.939876708984375,0.08596563339233398,0.008563995361328125,-0.021375417709350586
1761315374671798500,8.958798583984375,0.05691266059875488,0.005398750305175781,0.005756378173828125
1761315374690720300,8.97772021484375,0.023670196533203125,0.028357505798339844,0.0038123130798339844
1761315374709642200,8.996642333984376,-0.007914066314697266,-0.0011663436889648438,0.009061098098754883
1761315374728564000,9.01556396484375,-0.03538060188293457,-0.010844230651855469,0.03267240524291992
1761315374747486000,9.03448583984375,-0.0479276180267334,-0.047936439514160156,0.07377457618713379
1761315374766407700,9.05340771484375,-0.036777496337890625,-0.023169517517089844,0.09685206413269043
1761315374785329700,9.07232958984375,-0.049274444580078125,-0.010532379150390625,0.053870439529418945
1761315374804251400,9.09125146484375,-0.08260464668273926,-0.010281562805175781,0.005934715270996094
1761315374823173000,9.110173095703125,-0.06840109825134277,-0.003368377685546875,-0.010283708572387695
1761315374842095000,9.12909521484375,-0.05668282508850098,-0.026900291442871094,-0.03035449981689453
1761315374861016800,9.148016845703125,-0.022355079650878906,-0.035696983337402344,-0.009030580520629883
1761315374879938800,9.166938720703126,-0.01765751838684082,-0.04694843292236328,0.006783008575439453
1761315374898860500,9.185860595703126,-0.035147905349731445,0.011832237243652344,-0.008377552032470703
1761315374917782500,9.204782470703124,-0.028841733932495117,-0.0038003921508789062,-0.036576271057128906
1761315374936704300,9.223704345703124,-0.022239208221435547,0.006731986999511719,0.006189823150634766
1761315374955626000,9.2426259765625,-0.013163566589355469,-0.013428688049316406,0.015000104904174805
1761315374974548000,9.2615478515625,-0.018405914306640625,-0.018698692321777344,0.017953872680664062
1761315374993469700,9.2804697265625,-0.004740715026855469,0.006960868835449219,0.04162263870239258
1761315375012391700,9.2993916015625,-0.004861116409301758,0.01789093017578125,-0.010595560073852539
1761315375031313400,9.3183134765625,-0.0020363330841064453,0.036167144775390625,-0.03572797775268555
1761315375050235100,9.337235107421876,0.01502227783203125,0.023572921752929688,-0.018013477325439453
1761315375069157000,9.3561572265625,-0.012673139572143555,0.02762317657470703,-0.02905440330505371
1761315375088078800,9.375078857421874,0.0004253387451171875,0.01312255859375,-0.0049631595611572266
1761315375107000800,9.394000732421874,0.04146528244018555,-0.008060455322265625,-0.018746137619018555
1761315375125922600,9.412922607421875,0.012901067733764648,-0.0027170181274414062,0.014866828918457031
1761315375144844500,9.431844482421875,0.008056879043579102,-0.004969596862792969,-0.015666961669921875
1761315375163766300,9.450766357421875,-0.004074573516845703,-0.02357769012451172,0.025317907333374023
1761315375182688000,9.46968798828125,0.009389638900756836,-0.016839981079101562,0.02823638916015625
1761315375201610000,9.48860986328125,0.021747112274169922,-0.017185211181640625,0.024663686752319336
1761315375220531700,9.50753173828125,0.0031833648681640625,-0.024796485900878906,0.025776147842407227
1761315375239453700,9.52645361328125,-0.008224248886108398,-0.05341911315917969,0.020151138305664062
1761315375258375400,9.54537548828125,-0.010347127914428711,-0.013756752014160156,0.03815150260925293
1761315375277297400,9.56429736328125,-0.01498103141784668,0.00659942626953125,-0.017783641815185547
1761315375296219100,9.58321923828125,-0.03544926643371582,0.0539703369140625,-0.05514931678771973
1761315375315140900,9.602140869140625,-0.029478073120117188,0.006730079650878906,-0.027675390243530273
1761315375334062800,9.621062744140625,0.004698038101196289,-0.006779670715332031,0.01306295394897461
1761315375352984600,9.639984619140625,0.00482487678527832,-0.012724876403808594,0.012812376022338867
1761315375371906600,9.658906494140625,-0.018942594528198242,-0.011353492736816406,0.03154134750366211
1761315375390828300,9.677828369140625,-0.027827739715576172,0.013060569763183594,-0.025253772735595703
1761315375409750000,9.69675,-0.005894660949707031,0.010725021362304688,-0.015057802200317383
1761315375428672000,9.715672119140624,0.020582914352416992,0.02251148223876953,0.0017642974853515625
1761315375447593700,9.73459375,0.006600141525268555,-0.0027980804443359375,0.022565364837646484
1761315375466515700,9.753515625,-0.01148533821105957,0.00547027587890625,-0.00023484230041503906
1761315375485437400,9.7724375,-0.05404019355773926,0.02309417724609375,-0.04125261306762695
1761315375504359400,9.791359375,-0.012871026992797852,0.01974964141845703,-0.02963709831237793
1761315375523281200,9.81028125,0.0018880367279052734,0.007073402404785156,-0.037645578384399414
1761315375542203000,9.829202880859375,-0.007103443145751953,0.016091346740722656,-0.03157520294189453
1761315375561124900,9.848124755859375,0.0046617984771728516,-0.024443626403808594,0.0031201839447021484
1761315375580046600,9.867046630859376,0.013532161712646484,-0.0008716583251953125,0.020710468292236328
1761315375598968600,9.885968505859376,0.014718770980834961,-0.020307540893554688,0.017035484313964844
1761315375617890300,9.904890380859374,0.05526089668273926,-0.008823394775390625,0.023266077041625977
1761315375636812300,9.923812255859374,0.056524038314819336,0.0019807815551757812,0.02908468246459961
1761315375655734000,9.942734130859375,0.02655649185180664,-0.009067535400390625,-0.002301454544067383
1761315375674655700,9.96165576171875,0.02085089683532715,0.008395195007324219,0.034440040588378906
1761315375693577700,9.98057763671875,0.02234673500061035,-0.0005817413330078125,0.030869483947753906
1761315375712499500,9.99949951171875,0.010018348693847656,0.0003299713134765625,0.029840946197509766
1761315375731421400,10.01842138671875,0.005347251892089844,0.005850791931152344,0.010271310806274414
1761315375750343200,10.03734326171875,-0.00613713264465332,0.00682830810546875,0.009436368942260742
1761315375769265200,10.05626513671875,0.01383209228515625,0.04841136932373047,0.0013132095336914062
1761315375788187000,10.075186767578124,0.013004541397094727,0.06513309478759766,-0.042891740798950195
1761315375807108600,10.094108642578124,0.015382051467895508,0.05829620361328125,-0.09539961814880371
1761315375826030600,10.113030517578125,0.025235652923583984,0.03781414031982422,-0.06685757637023926
1761315375844952300,10.131952392578125,0.03690481185913086,0.04176807403564453,-0.06236577033996582
1761315375863874300,10.150874267578125,0.0249025821685791,-0.0034656524658203125,-0.030148029327392578
1761315375882796000,10.169796142578125,0.02029705047607422,0.025423049926757812,-0.012976408004760742
1761315375901717800,10.1887177734375,0.011004447937011719,0.015501022338867188,-0.01735854148864746
1761315375920639700,10.2076396484375,0.027787446975708008,-0.003841400146484375,-0.018558740615844727
1761315375939561500,10.2265615234375,0.048265695571899414,0.012537956237792969,-0.008071184158325195
1761315375958483500,10.2454833984375,0.010089635848999023,0.023813247680664062,0.006383419036865234
1761315375977405200,10.2644052734375,-0.017688989639282227,0.034758567810058594,-0.02649831771850586
1761315375996327200,10.2833271484375,-0.023305654525756836,-0.026638031005859375,0.01367950439453125
1761315376015249000,10.302248779296875,0.0017147064208984375,-0.02570629119873047,0.024565935134887695
1761315376034170600,10.321170654296875,0.011845827102661133,0.005900382995605469,0.0036475658416748047
1761315376053092600,10.340092529296875,-0.020566463470458984,0.013338088989257812,-0.03515434265136719
1761315376072014300,10.359014404296875,-0.039797067642211914,0.05570507049560547,-0.07924604415893555
1761315376090936300,10.377936279296875,-0.04632449150085449,0.010609626770019531,-0.01622629165649414
1761315376109858000,10.396858154296876,-0.006070375442504883,-0.033931732177734375,0.04265618324279785
1761315376128780000,10.415780029296876,0.03722953796386719,-0.06278610229492188,0.07375764846801758
1761315376147701800,10.43470166015625,0.03392624855041504,-0.028039932250976562,0.06697750091552734
1761315376166623500,10.45362353515625,-0.01215362548828125,-0.0037412643432617188,0.018214702606201172
1761315376185545500,10.47254541015625,-0.03393101692199707,-0.005991935729980469,0.03187203407287598
1761315376204467200,10.49146728515625,0.0012938976287841797,-0.010669708251953125,0.02126145362854004
1761315376223389200,10.51038916015625,-0.003301382064819336,0.027596473693847656,-0.008067607879638672
1761315376242311000,10.529310791015625,-0.007443666458129883,0.029567718505859375,-0.03395223617553711
1761315376261233000,10.54823291015625,-0.003964900970458984,0.0152435302734375,-0.02203536033630371
1761315376280154600,10.567154541015626,-0.026279926300048828,0.0016651153564453125,-0.012963294982910156
1761315376299076400,10.586076416015626,-0.012279987335205078,0.063385009765625,-0.030048370361328125
1761315376317998300,10.604998291015624,-0.0029668807983398438,0.06013774871826172,-0.07213878631591797
1761315376336920000,10.623920166015624,0.0061910152435302734,0.033736228942871094,-0.0451512336730957
1761315376355842000,10.642842041015625,0.019715070724487305,0.008164405822753906,-0.03313159942626953
1761315376374763800,10.661763671875,0.03711700439453125,0.0067539215087890625,0.011098384857177734
1761315376393685800,10.680685791015625,0.032639265060424805,0.0032405853271484375,0.0025229454040527344
1761315376412607500,10.699607421875,0.009777307510375977,-0.026468276977539062,0.0061457157135009766
1761315376431529200,10.718529296875,0.020047426223754883,-0.01729106903076172,0.01931142807006836
1761315376450451200,10.737451171875,0.003729104995727539,-0.035223960876464844,0.058048248291015625
1761315376469373000,10.756373046875,0.015310287475585938,-0.050174713134765625,0.06036019325256348
1761315376488295000,10.775294921875,-0.0035352706909179688,-0.0062961578369140625,0.05526113510131836
1761315376507216600,10.794216552734374,-0.019516706466674805,0.0018777847290039062,0.026894330978393555
1761315376526138600,10.813138671875,-0.0016791820526123047,0.007007598876953125,0.00627446174621582
1761315376545060400,10.832060302734375,-0.009513378143310547,-0.001667022705078125,-0.009244203567504883
1761315376563982000,10.850982177734375,0.001268625259399414,-0.012557029724121094,0.004302263259887695
1761315376582904000,10.869904052734375,-0.006938457489013672,-0.018401145935058594,-0.010504007339477539
1761315376601825800,10.88882568359375,-0.010888814926147461,-0.03375816345214844,-0.0012869834899902344
1761315376620747800,10.907747802734375,0.0036106109619140625,-0.03308391571044922,0.01497507095336914
1761315376639669500,10.92666943359375,0.01512455940246582,-0.0019464492797851562,0.007712602615356445
1761315376658591500,10.945591552734374,0.0073664188385009766,-0.006535530090332031,0.007888078689575195
1761315376677513200,10.96451318359375,-0.0027964115142822266,0.007714271545410156,0.03132367134094238
1761315376696435200,10.983435302734375,0.0032770633697509766,-0.020776748657226562,0.019197940826416016
1761315376715357000,11.00235693359375,-0.016798734664916992,0.005024909973144531,0.03522944450378418
1761315376734278700,11.021278564453125,-0.008012056350708008,0.002323150634765625,0.00841069221496582
1761315376753200600,11.04020068359375,-0.022022008895874023,0.03253650665283203,-0.03360891342163086
1761315376772122400,11.059122314453125,-0.02821183204650879,0.017848968505859375,-0.03236746788024902
1761315376791044400,11.07804443359375,-0.012858390808105469,0.00138092041015625,0.020659446716308594
1761315376809966000,11.096966064453126,0.013873815536499023,-0.010003089904785156,0.036216020584106445
1761315376828888000,11.11588818359375,0.01652693748474121,0.0046939849853515625,0.0060884952545166016
1761315376847809800,11.134809814453124,-0.009459733963012695,0.025821685791015625,-0.027553081512451172
1761315376866731500,11.1537314453125,0.0003726482391357422,0.022869110107421875,-0.04120612144470215
1761315376885653500,11.172653564453125,0.014645099639892578,-0.01984691619873047,-0.0025539398193359375
1761315376904575200,11.1915751953125,0.04231834411621094,-0.005214691162109375,0.02087998390197754
1761315376923497200,11.210497314453125,0.022013425827026367,0.004725456237792969,0.008401870727539062
1761315376942419000,11.2294189453125,0.01666879653930664,0.018385887145996094,-0.008058309555053711
1761315376961340700,11.248340576171875,0.028168201446533203,0.017876625061035156,-0.033493995666503906
1761315376980262700,11.2672626953125,0.02083611488342285,0.005618095397949219,-0.004688739776611328
1761315376999184400,11.286184326171876,0.004029989242553711,0.01548004150390625,0.018364667892456055
1761315377018106400,11.3051064453125,-0.002389192581176758,-0.0031270980834960938,0.0123748779296875
1761315377037028000,11.324028076171874,-0.005686521530151367,0.020799636840820312,-0.0005152225494384766
1761315377055950000,11.3429501953125,-0.022994279861450195,0.0044403076171875,0.03602886199951172
1761315377074871800,11.361871826171875,0.009578704833984375,-0.015406608581542969,0.019986391067504883
1761315377093793500,11.38079345703125,0.012910842895507812,-0.018911361694335938,0.009179830551147461
1761315377112715500,11.399715576171875,0.008919715881347656,-0.022411346435546875,0.019825220108032227
1761315377131637200,11.41863720703125,-0.011451005935668945,-0.042327880859375,0.018749713897705078
1761315377150559200,11.437559326171876,0.012391328811645508,-0.03603553771972656,0.031653404235839844
1761315377169481000,11.45648095703125,0.004914283752441406,-0.004614830017089844,0.00712275505065918
1761315377188403000,11.47540283203125,0.016554594039916992,0.004878044128417969,0.025663137435913086
1761315377207324700,11.49432470703125,0.013712167739868164,0.011959075927734375,-0.0054128170013427734
1761315377226246400,11.513246337890624,-0.003145933151245117,0.01632976531982422,-0.010319709777832031
1761315377245168400,11.53216845703125,-0.00026297569274902344,0.009000778198242188,-0.005379438400268555
1761315377264090000,11.551090087890625,0.005156278610229492,-0.00033092498779296875,0.010857105255126953
1761315377283012000,11.57001220703125,0.006037712097167969,0.02572345733642578,-0.03896188735961914
1761315377301933800,11.588933837890625,-0.006927490234375,0.032329559326171875,-0.04763007164001465
1761315377320855800,11.607855712890625,-0.003270864486694336,-0.012522697448730469,-0.013590812683105469
1761315377339777500,11.626777587890626,0.02335834503173828,-0.0044727325439453125,0.037774085998535156
1761315377358699300,11.64569921875,0.019031524658203125,0.008032798767089844,0.021558761596679688
1761315377377621200,11.664621337890624,-0.010729074478149414,0.036846160888671875,-0.04092693328857422
1761315377396543000,11.68354296875,-0.0014004707336425781,0.010827064514160156,-0.05472588539123535
1761315377415465000,11.70246484375,0.021193265914916992,0.009175300598144531,-0.03755664825439453
1761315377434386700,11.72138671875,0.02890634536743164,0.007549285888671875,0.00946807861328125
1761315377453308700,11.74030859375,0.023934125900268555,-0.03185272216796875,0.008463621139526367
1761315377472230400,11.75923046875,-0.0014390945434570312,0.0022068023681640625,-0.0014600753784179688
1761315377491152100,11.778152099609375,-0.0009026527404785156,-0.020738601684570312,0.012829065322875977
1761315377510074000,11.79707421875,-0.005468130111694336,-0.029241561889648438,0.03309154510498047
1761315377528995800,11.815995849609376,0.008597135543823242,-0.037611961364746094,0.06678056716918945
1761315377547917800,11.834917724609374,-0.030922412872314453,-0.0012073516845703125,0.02708911895751953
1761315377566839600,11.853839599609374,-0.031571388244628906,-0.021894454956054688,0.0234377384185791
1761315377585761300,11.87276123046875,-0.022505521774291992,-0.020732879638671875,0.02657628059387207
1761315377604683300,11.891683349609375,-0.0015096664428710938,-0.0006618499755859375,0.02966761589050293
1761315377623605000,11.91060498046875,0.009194135665893555,-0.011521339416503906,0.058460235595703125
1761315377642527000,11.92952685546875,0.005341291427612305,-0.043201446533203125,0.016269445419311523
1761315377661448700,11.94844873046875,0.012746334075927734,0.007137298583984375,0.005425214767456055
1761315377680370700,11.96737060546875,0.008301258087158203,0.01900959014892578,-0.007230043411254883
1761315377699292400,11.98629248046875,0.0016627311706542969,0.04464912414550781,-0.042453765869140625
1761315377718214100,12.005214111328126,0.01653885841369629,0.03929615020751953,-0.04410219192504883
1761315377737136000,12.02413623046875,0.0005588531494140625,0.033687591552734375,-0.010483264923095703
1761315377756057900,12.043057861328125,0.008395671844482422,0.035564422607421875,-0.026746273040771484
1761315377774979800,12.061979736328125,0.0015392303466796875,-0.011946678161621094,-0.03594779968261719
1761315377793901600,12.080901611328125,-0.002443552017211914,0.010083198547363281,0.011095762252807617
1761315377812823600,12.099823486328125,-0.013078927993774414,-0.019529342651367188,-0.0019271373748779297
1761315377831745300,12.118745361328125,-0.009569168090820312,0.005183219909667969,-0.012219905853271484
1761315377850667000,12.1376669921875,-0.01542353630065918,0.007466316223144531,-0.009916543960571289
1761315377869589000,12.156589111328126,0.0005335807800292969,-0.027174949645996094,0.006577491760253906
1761315377888510700,12.1755107421875,-0.005462169647216797,0.00006866455078125,0.07340550422668457
1761315377907432700,12.1944326171875,0.0003490447998046875,0.01226043701171875,0.012229681015014648
1761315377926354400,12.2133544921875,-0.008140087127685547,0.016997337341308594,-0.0239412784576416
1761315377945276200,12.232276123046875,0.0022068023681640625,-0.0044345855712890625,-0.01428842544555664
1761315377964198100,12.2511982421875,0.012094259262084961,0.021932601928710938,-0.009912729263305664
1761315377983120000,12.270119873046875,-0.011012792587280273,0.024140357971191406,-0.03393077850341797
1761315378002041900,12.289041748046875,-0.0023806095123291016,-0.008835792541503906,-0.047418832778930664
1761315378020963600,12.307963623046875,-0.010337591171264648,0.0011606216430664062,-0.023012161254882812
1761315378039885600,12.326885498046876,-0.015760183334350586,-0.000797271728515625,0.03827357292175293
1761315378058807300,12.345807373046876,0.013180732727050781,-0.014183998107910156,0.05360102653503418
1761315378077729000,12.36472900390625,-0.012733697891235352,-0.006317138671875,0.04020857810974121
1761315378096651000,12.383651123046874,-0.006882667541503906,-0.01494598388671875,0.01088571548461914
1761315378115572700,12.40257275390625,0.010950088500976562,-0.009241104125976562,0.04534292221069336
1761315378134494700,12.42149462890625,0.03476142883300781,-0.0253753662109375,0.05499601364135742
1761315378153416400,12.44041650390625,0.0061261653900146484,-0.015110969543457031,0.005778789520263672
1761315378172338400,12.45933837890625,0.018046855926513672,-0.00031280517578125,-0.013706684112548828
1761315378191260200,12.47826025390625,0.006834745407104492,-0.0070438385009765625,-0.02320694923400879
1761315378210182000,12.497181884765626,0.017176389694213867,0.016798973083496094,0.028684616088867188
1761315378229103900,12.516103759765626,0.029638290405273438,0.006953239440917969,0.025084257125854492
1761315378248025600,12.535025634765624,0.020301342010498047,-0.01657390594482422,0.049963951110839844
1761315378266947600,12.553947509765624,0.01049184799194336,-0.03688335418701172,0.07444977760314941
1761315378285869300,12.572869384765625,0.0007963180541992188,-0.033451080322265625,0.025702953338623047
1761315378304791000,12.591791015625,-0.01986074447631836,0.005023956298828125,0.0018465518951416016
1761315378323713000,12.610713134765625,-0.019524097442626953,-0.016620635986328125,0.005388736724853516
1761315378342634800,12.629634765625,-0.026351213455200195,-0.025964736938476562,0.011208057403564453
1761315378361556700,12.648556640625,-0.028902292251586914,-0.0262451171875,0.03054070472717285
1761315378380478500,12.667478515625,-0.02181720733642578,0.011564254760742188,-0.022921323776245117
1761315378399400400,12.686400390625,-0.0215606689453125,0.02960205078125,-0.039778947830200195
1761315378418322200,12.705322265625,-0.02103447914123535,0.009516716003417969,-0.021163463592529297
1761315378437244000,12.724243896484374,-0.015634775161743164,0.009068489074707031,-0.001436471939086914
1761315378456166000,12.743165771484374,-0.0052106380462646484,0.022705078125,-0.02000594139099121
1761315378475087600,12.762087646484375,-0.006361961364746094,0.026703834533691406,-0.030813217163085938
1761315378494009600,12.781009521484375,0.018163442611694336,0.025754928588867188,-0.024643659591674805
1761315378512931300,12.799931396484375,0.053344011306762695,0.011029243469238281,-0.0375821590423584
1761315378531853300,12.818853271484375,0.04958462715148926,0.03203010559082031,-0.03834867477416992
1761315378550775000,12.837775146484375,0.0365748405456543,0.02864551544189453,-0.08364200592041016
1761315378569696800,12.85669677734375,0.028745412826538086,0.027889251708984375,-0.09947323799133301
1761315378588618800,12.87561865234375,0.022868871688842773,0.00339508056640625,-0.05990266799926758
1761315378607540500,12.89454052734375,0.028128385543823242,-0.01866436004638672,0.0043833255767822266
1761315378626462500,12.91346240234375,0.015706539154052734,-0.035895347595214844,0.04096221923828125
1761315378645384200,12.93238427734375,-0.03220963478088379,-0.04059600830078125,0.05033087730407715
1761315378664306200,12.95130615234375,-0.07469534873962402,-0.05278491973876953,0.0714108943939209
1761315378683228000,12.970227783203125,-0.0822763442993164,-0.0550384521484375,0.07555079460144043
1761315378702149600,12.989149658203125,-0.0678563117980957,-0.0639181137084961,0.10249853134155273
1761315378721071600,13.008071533203125,-0.05349922180175781,-0.048979759216308594,0.11200332641601562
1761315378739993300,13.026993408203126,-0.055741071701049805,-0.017858505249023438,0.04623603820800781
1761315378758915300,13.045915283203126,-0.04125547409057617,0.0055904388427734375,-0.021992921829223633
1761315378777837000,13.064837158203124,-0.003182649612426758,0.02103137969970703,-0.022688865661621094
1761315378796759000,13.083759033203124,0.028496980667114258,-0.00600433349609375,-0.023157119750976562
1761315378815680800,13.1026806640625,0.06151247024536133,0.016211509704589844,0.009309053421020508
1761315378834602500,13.1216025390625,0.09289717674255371,0.01735973358154297,0.01289820671081543
1761315378853524500,13.1405244140625,0.0784909725189209,0.034576416015625,-0.005396366119384766
1761315378872446200,13.1594462890625,0.04106926918029785,0.03030109405517578,-0.060437917709350586
1761315378891368200,13.1783681640625,0.0449070930480957,0.03350067138671875,-0.06527352333068848
1761315378910290000,13.1972900390625,0.023543596267700195,0.04606437683105469,-0.004281044006347656
1761315378929212000,13.2162119140625,0.047498226165771484,0.027608871459960938,0.006009340286254883
1761315378948133600,13.235133544921876,0.04540276527404785,0.0022783279418945312,-0.023380756378173828
1761315378967055400,13.254055419921874,0.04036283493041992,-0.017461776733398438,0.004452705383300781
1761315378985977300,13.272977294921875,0.016406774520874023,-0.029165267944335938,0.03548860549926758
1761315379004899000,13.291899169921875,0.009382247924804688,-0.019349098205566406,0.05602431297302246
1761315379023821000,13.310821044921875,-0.02304863929748535,0.029933929443359375,-0.008855819702148438
1761315379042742800,13.32974267578125,-0.011761188507080078,0.03047466278076172,-0.050642967224121094
1761315379061664800,13.348664794921875,-0.01871466636657715,0.03133964538574219,-0.08405113220214844
1761315379080586500,13.36758642578125,-0.02274298667907715,0.0019140243530273438,-0.04599761962890625
1761315379099508200,13.38650830078125,-0.008371829986572266,-0.033606529235839844,-0.022717952728271484
1761315379118430200,13.40543017578125,-0.010969877243041992,0.001468658447265625,-0.011551141738891602
1761315379137352000,13.42435205078125,0.00039577484130859375,-0.006619453430175781,-0.02171492576599121
1761315379156274000,13.44327392578125,-0.007894039154052734,-0.02878856658935547,-0.010037422180175781
1761315379175195600,13.462195556640625,0.0069561004638671875,-0.0053920745849609375,0.04076552391052246
1761315379194117600,13.48111767578125,0.0048177242279052734,-0.02959918975830078,0.047904253005981445
1761315379213039400,13.500039306640625,-0.022891759872436523,-0.0135650634765625,0.033751726150512695
1761315379231961000,13.518961181640625,-0.019453763961791992,-0.004885673522949219,0.0456085205078125
1761315379250883000,13.537883056640625,0.014473438262939453,-0.014925956726074219,0.045313119888305664
1761315379269804800,13.5568046875,0.0075571537017822266,-0.02241230010986328,0.059385061264038086
1761315379288726800,13.575726806640626,0.0032269954681396484,-0.009016036987304688,0.016879558563232422
1761315379307648500,13.5946484375,-0.013102054595947266,-0.014047622680664062,0.00067138671875
1761315379326570200,13.6135703125,0.010556936264038086,-0.0052738189697265625,-0.010058879852294922
1761315379345492200,13.6324921875,0.029057741165161133,0.0059185028076171875,-0.0231778621673584
1761315379364414000,13.6514140625,0.0079803466796875,0.07062530517578125,-0.052558183670043945
1761315379383336000,13.6703359375,-0.0020360946655273438,0.1220407485961914,-0.08869171142578125
1761315379402257700,13.689257568359375,-0.00860285758972168,0.10464000701904297,-0.09981584548950195
1761315379421179600,13.7081796875,0.04721879959106445,0.05975818634033203,-0.10627508163452148
1761315379440101400,13.727101318359376,0.06832098960876465,0.042603492736816406,-0.08253645896911621
1761315379459023000,13.746023193359376,0.06504106521606445,0.044569969177246094,-0.07381677627563477
1761315379477945000,13.764945068359374,0.05664348602294922,0.03199577331542969,-0.032309770584106445
1761315379496866800,13.78386669921875,0.03669476509094238,0.0171966552734375,-0.03844118118286133
1761315379515788800,13.802788818359375,0.0428776741027832,-0.001956939697265625,-0.011246442794799805
1761315379534710500,13.82171044921875,0.034618377685546875,-0.03709602355957031,0.06880879402160645
1761315379553632300,13.84063232421875,0.0334932804107666,-0.028501510620117188,0.08499503135681152
1761315379572554200,13.85955419921875,0.037255287170410156,0.0032901763916015625,0.032334089279174805
1761315379591476000,13.87847607421875,-0.01706409454345703,0.010748863220214844,-0.002913236618041992
1761315379610398000,13.89739794921875,-0.015080451965332031,0.020517349243164062,-0.0012600421905517578
1761315379629319700,13.916319580078126,0.006087064743041992,-0.0023622512817382812,0.011678457260131836
1761315379648241700,13.93524169921875,0.019176244735717773,-0.02471160888671875,0.04735898971557617
1761315379667163400,13.954163330078124,0.00841379165649414,0.0008935928344726562,0.030585289001464844
1761315379686085000,13.973085205078124,-0.004492044448852539,-0.01901721954345703,0.016767024993896484
1761315379705007000,13.992007080078125,-0.009892463684082031,-0.012711524963378906,-0.005568265914916992
1761315379723928800,14.0109287109375,-0.006212711334228516,-0.03545379638671875,0.02386188507080078
1761315379742850800,14.029850830078125,-0.009749889373779297,-0.010478973388671875,0.017456769943237305
1761315379761772500,14.0487724609375,-0.015045881271362305,0.030536651611328125,0.0017647743225097656
1761315379780694300,14.0676943359375,-0.017301321029663086,0.002246856689453125,-0.025014877319335938
1761315379799616300,14.0866162109375,-0.016590595245361328,0.019500732421875,-0.018539905548095703
1761315379818538000,14.1055380859375,-0.008838176727294922,0.0014848709106445312,0.013528823852539062
1761315379837460000,14.1244599609375,0.0032439231872558594,-0.006220817565917969,0.023351669311523438
1761315379856381700,14.143381591796874,-0.0013630390167236328,-0.00732421875,0.030715227127075195
1761315379875303700,14.1623037109375,-0.003761768341064453,-0.013021469116210938,0.019307613372802734
1761315379894225400,14.181225341796875,-0.02506399154663086,-0.02369976043701172,0.032623291015625
1761315379913147100,14.200147216796875,0.009455680847167969,-0.06224250793457031,0.041260480880737305
1761315379932069000,14.219069091796875,0.029040813446044922,-0.025122642517089844,0.058741092681884766
1761315379950990800,14.237990966796875,0.0312652587890625,0.006581306457519531,0.021750450134277344
1761315379969912800,14.256912841796876,0.012409687042236328,0.01425933837890625,-0.007695674896240234
1761315379988834600,14.27583447265625,0.008542537689208984,-0.00147247314453125,-0.03266143798828125
1761315380007756500,14.294756591796874,-0.004186868667602539,0.06092071533203125,-0.014480113983154297
1761315380026678300,14.31367822265625,-0.04256415367126465,0.01520538330078125,0.00637507438659668
1761315380045600000,14.33260009765625,-0.005276203155517578,-0.0032787322998046875,-0.031618356704711914
