time,seconds_elapsed,z,y,x
1761402281211306000,0.136305908203125,0.003080972470343113,0.0013156584464013577,0.00046630934230051935
1761402281221387500,0.146387451171875,0.0017486599972471595,0.0008993108640424907,0.0014655436389148235
1761402281231493400,0.156493408203125,0.0022149693686515093,0.0021316998172551394,0.0007161179091781378
1761402281241587700,0.166587646484375,0.002364854561164975,0.0019818146247416735,0.00004996171628590673
1761402281251616500,0.176616455078125,0.0018818912794813514,0.003064318560063839,0.0007993874605745077
1761402281261732400,0.186732421875,0.0012823506258428097,0.0011158116394653916,0.0005329249543137848
1761402281271812900,0.196812744140625,0.0017320060869678855,0.0021483537275344133,-0.00008326952229253948
1761402281281899000,0.20689892578125,0.0021483537275344133,0.0017320060869678855,0.0004163476114626974
1761402281291989500,0.216989501953125,0.0017486599972471595,0.0020317763555794954,0.0006994639988988638
1761402281302044400,0.22704443359375,0.002331546740606427,0.0017819678178057075,-0.0002831163874361664
1761402281312144000,0.237143798828125,0.0020317763555794954,0.0019651607144623995,0.0003164241788908839
1761402281322222600,0.24722265625,0.0010658499086275697,0.0018152756383642554,0.0007494257297366858
1761402281332300000,0.257300048828125,0.0016154287150129676,0.0019485069205984473,-0.0007161179091781378
1761402281342384600,0.267384521484375,0.0020650841761380434,0.0018485834589228034,0.0006328483577817678
1761402281352465700,0.277465576171875,0.0013489662669599056,0.0019151991000398993,0.0005662327748723328
1761402281362558500,0.287558349609375,0.002314892830327153,0.0014488897286355495,0.00009992343257181346
1761402281372625400,0.29762548828125,0.0015155053697526455,0.0017153521766886115,-0.0001332312385784462
1761402281382733000,0.307733154296875,0.0016320826252922416,0.0018319295486435294,-0.0003330780891701579
1761402281392790500,0.31779052734375,0.0015155053697526455,0.0014655436389148235,0.0002664624771568924
1761402281402846200,0.32784619140625,0.0017320060869678855,0.0022149693686515093,0.0008326952229253948
1761402281412952300,0.337952392578125,0.0013989279977977276,0.0020317763555794954,0.00011657733557512984
1761402281423037200,0.348037109375,0.0016820443561300635,0.0021650076378136873,0.0009326186846010387
1761402281433108500,0.3581083984375,0.0018985451897606254,0.0019485069205984473,0.0004330015217419714
1761402281443170000,0.368170166015625,0.0018319295486435294,0.0022649310994893312,0.00019984686514362693
1761402281453275400,0.378275390625,0.0018818912794813514,0.0014155819080770016,0.0003663859097287059
1761402281463357400,0.388357421875,0.0021483537275344133,0.0013656201772391796,0.0005495788645930588
1761402281473438200,0.398438232421875,0.0016986982664093375,0.0015488131903111935,0.0007327718194574118
1761402281483527200,0.408527099609375,0.0018485834589228034,0.0016154287150129676,0.0002997702977154404
1761402281493580300,0.418580322265625,0.0020317763555794954,0.0015321592800319195,-0.0000666156192892231
1761402281503681300,0.428681396484375,0.0021483537275344133,0.0017653139075264335,0.0005329249543137848
1761402281513762300,0.43876220703125,0.0018985451897606254,0.0020650841761380434,0.0006495022680610418
1761402281523843800,0.44884375,0.0017819678178057075,0.0014155819080770016,0
1761402281533903000,0.458903076171875,0.0021483537275344133,0.0011657733703032136,0.0002664624771568924
1761402281543994000,0.468994140625,0.0020484302658587694,0.0016320826252922416,-0.0002997702977154404
1761402281554078000,0.479077880859375,0.0022815850097686052,0.0010491959983482957,0.0004330015217419714
1761402281564148500,0.4891484375,0.0013656201772391796,0.0018152756383642554,0.0006994639988988638
1761402281574223600,0.4992236328125,0.0018319295486435294,0.0014655436389148235,0.0006161945057101548
1761402281584330500,0.50933056640625,0.002331546740606427,0.0016487365355715156,0.0002165007608709857
1761402281594385700,0.5193857421875,0.0021650076378136873,0.0016653904458507895,0.00046630934230051935
1761402281604492300,0.5294921875,0.0020151224453002214,0.0015155053697526455,0.0010825038189068437
1761402281614573300,0.5395732421875,0.0018485834589228034,0.0020151224453002214,0.0006161945057101548
1761402281624633300,0.54963330078125,0.0021316998172551394,0.0022815850097686052,0.0003164241788908839
1761402281634719200,0.55971923828125,0.0016820443561300635,0.0022649310994893312,0.0001332312385784462
1761402281644790800,0.569790771484375,0.0018652373692020774,0.0010991577291861176,0.0004330015217419714
1761402281654897700,0.579897705078125,0.0019984685350209475,0.0014821975491940975,0.00039969373028725386
1761402281664978400,0.589978515625,0.0021983154583722353,0.0017986217280849814,0.0007161179091781378
1761402281675033300,0.600033447265625,0.0021983154583722353,0.0020983919966965914,0.00046630934230051935
1761402281685140700,0.610140625,0.0022482771892100573,0.0014655436389148235,0.0006328483577817678
1761402281695221000,0.620220947265625,0.0024980856105685234,0.0022149693686515093,0.0002165007608709857
1761402281705302000,0.630302001953125,0.0020151224453002214,0.0021983154583722353,0.0008493491332046688
1761402281715383000,0.640383056640625,0.0018985451897606254,0.0020650841761380434,0.0003663859097287059
1761402281725464000,0.650464111328125,0.0022482771892100573,0.0021150459069758654,0.00008326952229253948
1761402281735545000,0.660545166015625,0.0019485069205984473,0.0019485069205984473,-0.0002997702977154404
1761402281745632800,0.6706328125,0.0018152756383642554,0.0019151991000398993,0.00023315467115025967
1761402281755708200,0.680708251953125,0.0015654671005904675,0.0010325420880690217,0.0003164241788908839
1761402281765788700,0.69078857421875,0.0015488131903111935,0.0011990811908617616,0.00003330780964461155
1761402281775869200,0.700869140625,0.0020817380864173174,0.0017819678178057075,0.0005995405954308808
1761402281785950200,0.7109501953125,0.002314892830327153,0.0017486599972471595,0.0007993874605745077
1761402281796051200,0.72105126953125,0.0020983919966965914,0.0016487365355715156,0.00016653904458507895
1761402281806112300,0.7311123046875,0.0025647012516856194,0.0012323890114203095,0.00024980856687761843
1761402281816171800,0.741171875,0.002314892830327153,0.0019485069205984473,0.00009992343257181346
1761402281826257200,0.751257080078125,0.0019318530103191733,0.0014155819080770016,0.0006661561783403158
1761402281836330200,0.761330322265625,0.0014988514594733715,0.0019984685350209475,0.00046630934230051935
1761402281846437400,0.771437255859375,0.0018152756383642554,0.0020650841761380434,0.0005162710440345109
1761402281856518400,0.781518310546875,0.002364854561164975,0.0021150459069758654,0.00038303982000797987
1761402281866573600,0.791573486328125,0.0018652373692020774,0.0018319295486435294,0.0006994639988988638
1761402281876662000,0.801662109375,0.0020983919966965914,0.0021983154583722353,0.00024980856687761843
1761402281886736000,0.81173583984375,0.0022482771892100573,0.0016487365355715156,0.00048296325257979333
1761402281896842500,0.821842529296875,0.0017986217280849814,0.0021650076378136873,0.0003330780891701579
1761402281906922800,0.8319228515625,0.0019984685350209475,0.0014322358183562756,-0.00011657733557512984
1761402281916993800,0.841993896484375,0.0017819678178057075,0.0018652373692020774,-0.0001498851488577202
1761402281927080700,0.852080810546875,0.0018652373692020774,0.002448124112561345,-0.00024980856687761843
1761402281937141200,0.862141357421875,0.0016820443561300635,0.002448124112561345,0.0005329249543137848
1761402281947261200,0.87226123046875,0.0018152756383642554,0.0011657733703032136,0.0003164241788908839
1761402281957287000,0.882286865234375,0.0018985451897606254,0.0020484302658587694,-0.0001332312385784462
1761402281967405800,0.89240576171875,0.0013156584464013577,0.0018818912794813514,0.00004996171628590673
1761402281977461000,0.9024609375,0.0018652373692020774,0.0016154287150129676,0.00046630934230051935
1761402281987572000,0.912572021484375,0.0022482771892100573,0.0019651607144623995,0.00004996171628590673
1761402281997653200,0.9226533203125,0.0019818146247416735,0.0018152756383642554,0.00011657733557512984
1761402282007723300,0.93272314453125,0.0017819678178057075,0.0022982389200478792,0.00009992343257181346
1761402282017788400,0.942788330078125,0.0013822740875184536,0.0021150459069758654,0.0009825803572311997
1761402282027870200,0.9528701171875,0.0016154287150129676,0.0016986982664093375,-0.00004996171628590673
1761402282037973000,0.962972900390625,0.0015654671005904675,0.0014821975491940975,0.0008160413126461208
1761402282048057900,0.973057861328125,0.0018652373692020774,0.0018652373692020774,0.00003330780964461155
1761402282058118100,0.9831181640625,0.0017986217280849814,0.0016154287150129676,0.0003497319994494319
1761402282068219400,0.993219482421875,0.0019651607144623995,0.002881125546991825,0.0002997702977154404
1761402282078300400,1.003300537109375,0.0018152756383642554,0.002364854561164975,0.0000666156192892231
1761402282088381400,1.01338134765625,0.0020650841761380434,0.0019818146247416735,0.00048296325257979333
1761402282098458600,1.023458740234375,0.0021483537275344133,0.0018818912794813514,0.0009326186846010387
1761402282108543700,1.033543701171875,0.0018985451897606254,0.0017819678178057075,0.0007827335502952337
1761402282118624500,1.04362451171875,0.002314892830327153,0.0013489662669599056,0.0003663859097287059
1761402282128705500,1.05370556640625,0.0014988514594733715,0.0016154287150129676,0.0000666156192892231
1761402282138786600,1.06378662109375,0.0022149693686515093,0.0018985451897606254,0.0005662327748723328
1761402282148867600,1.07386767578125,0.0025980090722441673,0.0009492725948803127,0.00038303982000797987
1761402282158945000,1.083945068359375,0.0020317763555794954,0.0007327718194574118,0.0007494257297366858
1761402282169030000,1.09402978515625,0.0020983919966965914,0.0006994639988988638,0.0005995405954308808
1761402282179111000,1.10411083984375,0.0021316998172551394,0.0020650841761380434,0.0004330015217419714
1761402282189192000,1.11419189453125,0.0022149693686515093,0.0015155053697526455,-0.0002831163874361664
1761402282199273200,1.124273193359375,0.002364854561164975,0.0012157351011410356,0.0002997702977154404
1761402282209353700,1.134353759765625,0.0025647012516856194,0.0017819678178057075,0.0008160413126461208
1761402282219432200,1.14443212890625,0.0026313168928027153,0.0026812786236405373,0.0000666156192892231
1761402282229512200,1.15451220703125,0.0020317763555794954,0.002398162381723523,0.00016653904458507895
1761402282239596800,1.1645966796875,0.0013989279977977276,0.0019151991000398993,0.0002997702977154404
1761402282249678300,1.17467822265625,0.0013489662669599056,0.0015321592800319195,0.0007494257297366858
1761402282259759000,1.184759033203125,0.0022316232789307833,0.0012656967155635357,0.00039969373028725386
1761402282269840100,1.194840087890625,0.0024980856105685234,0.0015321592800319195,0.0011657733703032136
1761402282279921200,1.204921142578125,0.0016320826252922416,0.0020983919966965914,0.0008826569537632167
1761402282289998300,1.214998291015625,0.0019485069205984473,0.0021483537275344133,0.00004996171628590673
1761402282300083500,1.22508349609375,0.0011990811908617616,0.0019151991000398993,-0.00044965543202124536
1761402282310164200,1.235164306640625,0.0016986982664093375,0.0015654671005904675,0.00038303982000797987
1761402282320245200,1.245245361328125,0.0016986982664093375,0.0017153521766886115,-0.00016653904458507895
1761402282330326500,1.255326416015625,0.0021650076378136873,0.0016154287150129676,0.0003497319994494319
1761402282340389000,1.26538916015625,0.0018319295486435294,0.0022482771892100573,-0.00008326952229253948
1761402282350488600,1.275488525390625,0.0017486599972471595,0.0021316998172551394,0.0005995405954308808
1761402282360531700,1.28553173828125,0.002414816292002797,0.0013822740875184536,-0.0002165007608709857
1761402282370651000,1.29565087890625,0.0018818912794813514,0.0017819678178057075,0.00024980856687761843
1761402282380731600,1.305731689453125,0.0025313934311270714,0.0014488897286355495,0.00003330780964461155
1761402282390787600,1.31578759765625,0.002431470202282071,0.0022149693686515093,0.00048296325257979333
1761402282400894200,1.325894287109375,0.0018818912794813514,0.0020650841761380434,0.0008660030434839427
1761402282410949400,1.335949462890625,0.0025313934311270714,0.0021983154583722353,0.00044965543202124536
1761402282421051600,1.3460517578125,0.0019984685350209475,0.0011990811908617616,0.0010658499086275697
1761402282431137000,1.356136962890625,0.0016154287150129676,0.0009659265051595867,0.0001498851488577202
1761402282441192400,1.3661923828125,0.002481431933119893,0.0019984685350209475,0.0005162710440345109
1761402282451298800,1.376298828125,0.0019818146247416735,0.0013323123566806316,0.00046630934230051935
1761402282461379800,1.3863798828125,0.0021150459069758654,0.0016320826252922416,0.0003330780891701579
1761402282471460900,1.3964609375,0.0017653139075264335,0.0022482771892100573,0.0006828100886195898
1761402282481538000,1.4065380859375,0.0022649310994893312,0.0018485834589228034,0.0005329249543137848
1761402282491623000,1.416622802734375,0.002481431933119893,0.0022149693686515093,0.0002997702977154404
1761402282501704200,1.4267041015625,0.002398162381723523,0.0014988514594733715,0.0008493491332046688
1761402282511785000,1.436784912109375,0.0022149693686515093,0.0017320060869678855,0.0005162710440345109
1761402282521866000,1.446865966796875,0.0017153521766886115,0.0013323123566806316,0.0011824272805824876
1761402282531947000,1.456947021484375,0.0018818912794813514,0.0018818912794813514,0.00038303982000797987
1761402282542028000,1.467028076171875,0.002464778022840619,0.0022815850097686052,0.0005495788645930588
1761402282552105500,1.47710546875,0.0016653904458507895,0.0015321592800319195,0.0001498851488577202
1761402282562190000,1.487190185546875,0.0025480473414063454,0.0015987749211490154,-0.00009992343257181346
1761402282572271400,1.497271240234375,0.0021983154583722353,0.0016487365355715156,0.0004996171337552369
1761402282582352100,1.50735205078125,0.0022649310994893312,0.0008326952229253948,-0.00009992343257181346
1761402282592433400,1.517433349609375,0.0019485069205984473,0.0018985451897606254,0.0000666156192892231
1761402282602514400,1.527514404296875,0.0022482771892100573,0.0016487365355715156,0.0006495022680610418
1761402282612591400,1.53759130859375,0.0016820443561300635,0.0007660796400159597,0.0004996171337552369
1761402282622676200,1.54767626953125,0.0015321592800319195,0.0020650841761380434,0.0006328483577817678
1761402282632757500,1.557757568359375,0.0018485834589228034,0.0017819678178057075,0.0003663859097287059
1761402282642826000,1.567825927734375,0.0017320060869678855,0.0008326952229253948,0.00004996171628590673
1761402282652887600,1.577887451171875,0.0018818912794813514,0.0011824272805824876,0.000016653904822305776
1761402282663000600,1.58800048828125,0.0019651607144623995,0.0017986217280849814,0.0008160413126461208
1761402282673081900,1.598081787109375,0.0017653139075264335,0.0010658499086275697,0.0006828100886195898
1761402282683159000,1.608158935546875,0.0021650076378136873,0.0019651607144623995,0.00046630934230051935
1761402282693218600,1.618218505859375,0.0016487365355715156,0.0020817380864173174,-0.000016653904822305776
1761402282703325400,1.628325439453125,0.0021816615480929613,0.0015821210108697414,0.00044965543202124536
1761402282713406000,1.638406005859375,0.0021983154583722353,0.0013822740875184536,0.0005329249543137848
1761402282723487000,1.648487060546875,0.0025313934311270714,0.0013156584464013577,0.0009492725948803127
1761402282733567700,1.658567626953125,0.0017486599972471595,0.0021816615480929613,0.0005495788645930588
1761402282743649000,1.66864892578125,0.0021650076378136873,0.0013489662669599056,0.0007993874605745077
1761402282753730000,1.67872998046875,0.0020151224453002214,0.0015654671005904675,0.0008326952229253948
1761402282763810800,1.688810791015625,0.0018652373692020774,0.0021150459069758654,0.0006328483577817678
1761402282773891800,1.698891845703125,0.0016820443561300635,0.0015821210108697414,0.0006161945057101548
1761402282783973000,1.70897314453125,0.0022649310994893312,0.0009492725948803127,0.0010158881777897477
1761402282794054100,1.71905419921875,0.0019984685350209475,0.0017153521766886115,0.00024980856687761843
1761402282804135700,1.7291357421875,0.0018652373692020774,0.0009659265051595867,0.00048296325257979333
1761402282814216200,1.73921630859375,0.0018652373692020774,0.0015155053697526455,0
1761402282824297200,1.749297119140625,0.0019818146247416735,0.0017153521766886115,0.0006994639988988638
1761402282834378200,1.759378173828125,0.0020317763555794954,0.0015155053697526455,-0.00008326952229253948
1761402282844459500,1.76945947265625,0.0022815850097686052,0.0018818912794813514,0.0006994639988988638
1761402282854540300,1.779540283203125,0.0019485069205984473,0.0022982389200478792,0.0007161179091781378
1761402282864621300,1.789621337890625,0.0021983154583722353,0.002964395098388195,0.0010158881777897477
1761402282874702800,1.799702880859375,0.0020484302658587694,0.0013323123566806316,0.00044965543202124536
1761402282884783400,1.809783447265625,0.0022149693686515093,0.0014155819080770016,0.0004163476114626974
1761402282894865000,1.819864990234375,0.0022149693686515093,0.0005329249543137848,0.00009992343257181346
1761402282904912100,1.829912109375,0.0017320060869678855,0.0017653139075264335,0.0000666156192892231
1761402282915026400,1.8400263671875,0.0017986217280849814,0.0015654671005904675,0.00046630934230051935
1761402282925107500,1.850107421875,0.0014155819080770016,0.0018485834589228034,-0.0002997702977154404
1761402282935169300,1.860169189453125,0.0012656967155635357,0.002314892830327153,-0.00011657733557512984
1761402282945244700,1.87024462890625,0.0018652373692020774,0.0016154287150129676,0.0002664624771568924
1761402282955350800,1.880350830078125,0.002348200650885701,0.0011657733703032136,0.00044965543202124536
1761402282965431600,1.890431640625,0.0017653139075264335,0.0014821975491940975,0.00038303982000797987
1761402282975512800,1.900512939453125,0.0018818912794813514,0.0002831163874361664,0.00008326952229253948
1761402282985593900,1.91059375,0.0021483537275344133,0.0022149693686515093,0.0007660796400159597
1761402282995675000,1.9206748046875,0.0022815850097686052,0.0020317763555794954,0.0010825038189068437
1761402283005756000,1.930755859375,0.0020151224453002214,0.0020983919966965914,0.0005162710440345109
1761402283015837000,1.9408369140625,0.0027312403544783592,0.0019318530103191733,0.0002997702977154404
1761402283025898500,1.9508984375,0.0022649310994893312,0.0014655436389148235,0.0006161945057101548
1761402283035999000,1.9609990234375,0.0017320060869678855,0.0009326186846010387,0.00046630934230051935
1761402283046081000,1.9710810546875,0.0015821210108697414,0.0017819678178057075,0.0006161945057101548
1761402283056163000,1.9811630859375,0.0019818146247416735,0.0013489662669599056,0.0007494257297366858
1761402283066242600,1.99124267578125,0.0015821210108697414,0.0019651607144623995,0.00046630934230051935
1761402283076308700,2.001308837890625,0.0016487365355715156,0.0021483537275344133,0.0008993108640424907
1761402283086404000,2.011404052734375,0.0017819678178057075,0.0025813551619648933,0.0004330015217419714
1761402283096485000,2.021485107421875,0.0016653904458507895,0.0022982389200478792,0.00048296325257979333
1761402283106532400,2.031532470703125,0.0020151224453002214,0.0007660796400159597,-0.00009992343257181346
1761402283116647200,2.041647216796875,0.0019651607144623995,0.0012157351011410356,-0.0001498851488577202
1761402283126699500,2.051699462890625,0.0022482771892100573,0.0015654671005904675,0.00023315467115025967
1761402283136809500,2.0618095703125,0.0022149693686515093,0.0020983919966965914,0.0013323123566806316
1761402283146891300,2.071891357421875,0.002414816292002797,0.0017486599972471595,0.0005828866851516068
1761402283156947000,2.081947021484375,0.0019318530103191733,0.0014155819080770016,0.0003164241788908839
1761402283167048400,2.09204833984375,0.0016820443561300635,0.0014988514594733715,0.0002165007608709857
1761402283177120500,2.10212060546875,0.0020650841761380434,0.002448124112561345,0.0007161179091781378
1761402283187210200,2.112210205078125,0.0019485069205984473,0.0012823506258428097,0.00044965543202124536
1761402283197295900,2.1222958984375,0.0020317763555794954,0.0018152756383642554,0.00016653904458507895
1761402283207370800,2.132370849609375,0.0015321592800319195,0.0020317763555794954,0.0006495022680610418
1761402283217457700,2.142457763671875,0.0021483537275344133,0.0016320826252922416,0.0001332312385784462
1761402283227513300,2.152513427734375,0.0022982389200478792,0.0013989279977977276,0.00039969373028725386
1761402283237620000,2.162619873046875,0.0017819678178057075,0.0015155053697526455,0.0002664624771568924
1761402283247691800,2.17269189453125,0.0019984685350209475,0.0018319295486435294,-0.00003330780964461155
1761402283257781800,2.18278173828125,0.0017486599972471595,0.0017986217280849814,0.00019984686514362693
1761402283267862800,2.19286279296875,0.0017153521766886115,0.0018652373692020774,-0.00008326952229253948
1761402283277944300,2.2029443359375,0.0020317763555794954,0.0016487365355715156,0.0003663859097287059
1761402283288025000,2.213025146484375,0.0019651607144623995,0.0014821975491940975,0.0005828866851516068
1761402283298106000,2.223106201171875,0.0025980090722441673,0.002464778022840619,0.00011657733557512984
1761402283308187400,2.2331875,0.002348200650885701,0.0016653904458507895,0.00038303982000797987
1761402283318264000,2.24326416015625,0.0015155053697526455,0.0009326186846010387,0.0004330015217419714
1761402283328337000,2.2533369140625,0.0019485069205984473,0.0017986217280849814,-0.00004996171628590673
1761402283338430500,2.263430419921875,0.0017320060869678855,0.0020151224453002214,-0.00023315467115025967
1761402283348511700,2.27351171875,0.002431470202282071,0.0016487365355715156,0.0007660796400159597
1761402283358592000,2.283592041015625,0.0016820443561300635,0.0017153521766886115,0.0006161945057101548
1761402283368673000,2.293673095703125,0.0012656967155635357,0.0015821210108697414,0.0005995405954308808
1761402283378750500,2.30375048828125,0.0022482771892100573,0.0018152756383642554,-0.0001498851488577202
1761402283388810000,2.31381005859375,0.0021650076378136873,0.0014655436389148235,0.0005329249543137848
1761402283398916400,2.323916259765625,0.0027312403544783592,0.0013489662669599056,0.0002831163874361664
1761402283408997400,2.333997314453125,0.0026812786236405373,0.0013156584464013577,-0.00003330780964461155
1761402283419078400,2.344078369140625,0.0016986982664093375,0.0019984685350209475,0.0005995405954308808
1761402283429159400,2.354159423828125,0.0025313934311270714,0.0019318530103191733,0.0010658499086275697
1761402283439215000,2.364215087890625,0.002481431933119893,0.0016653904458507895,0.0008160413126461208
1761402283449321500,2.374321533203125,0.0018152756383642554,0.0013489662669599056,0.0006994639988988638
1761402283459378700,2.384378662109375,0.0025647012516856194,0.0016487365355715156,0.0003497319994494319
1761402283469483500,2.3944833984375,0.0021150459069758654,0.0017819678178057075,0.0007660796400159597
1761402283479564500,2.404564453125,0.0015654671005904675,0.0021483537275344133,0.0007494257297366858
1761402283489637000,2.41463720703125,0.002381508471444249,0.0012990045361220837,0.0004163476114626974
1761402283499726600,2.4247265625,0.0013656201772391796,0.0013822740875184536,0.00039969373028725386
1761402283509823000,2.434822998046875,0.0020484302658587694,0.0018485834589228034,0.00039969373028725386
1761402283519888600,2.444888671875,0.0018985451897606254,0.002448124112561345,-0.00046630934230051935
1761402283529970000,2.454969970703125,0.0021483537275344133,0.0019318530103191733,0.00004996171628590673
1761402283540026000,2.465026123046875,0.002348200650885701,0.0014988514594733715,0.0006161945057101548
1761402283550131700,2.475131591796875,0.0011990811908617616,0.0017819678178057075,0.0005162710440345109
1761402283560180200,2.48518017578125,0.0024980856105685234,0.0013489662669599056,0.0005495788645930588
1761402283570290000,2.4952900390625,0.0021483537275344133,0.0022649310994893312,0.0007660796400159597
1761402283580350000,2.505349853515625,0.0016320826252922416,0.0021816615480929613,0.0008493491332046688
1761402283590466800,2.515466796875,0.0020817380864173174,0.002348200650885701,0.00039969373028725386
1761402283600537000,2.525537109375,0.0018652373692020774,0.002398162381723523,0.0008993108640424907
1761402283610593000,2.535593017578125,0.0016820443561300635,0.0018152756383642554,0.0006994639988988638
1761402283620699600,2.54569970703125,0.002398162381723523,0.0018152756383642554,-0.00009992343257181346
1761402283630780400,2.555780517578125,0.002331546740606427,0.0014322358183562756,0.0002997702977154404
1761402283640875500,2.56587548828125,0.002481431933119893,0.0016154287150129676,-0.0002997702977154404
1761402283650916900,2.575916748046875,0.0016487365355715156,0.0016320826252922416,0.0003164241788908839
1761402283661023500,2.5860234375,0.0016653904458507895,0.0017653139075264335,0.0002997702977154404
1761402283671104500,2.5961044921875,0.0021816615480929613,0.0018652373692020774,0.0001332312385784462
1761402283681185500,2.606185546875,0.0022982389200478792,0.0015821210108697414,0.0011657733703032136
1761402283691273500,2.6162734375,0.0014488897286355495,0.0010991577291861176,0.0001332312385784462
1761402283701322200,2.626322265625,0.0016320826252922416,0.0019318530103191733,0.00039969373028725386
1761402283711428400,2.636428466796875,0.002331546740606427,0.0015654671005904675,0.0013822740875184536
1761402283721509400,2.64650927734375,0.0021983154583722353,0.0016653904458507895,0.0003663859097287059
1761402283731590400,2.65659033203125,0.0016154287150129676,0.0016154287150129676,0.0004330015217419714
1761402283741671400,2.66667138671875,0.0022149693686515093,0.0020817380864173174,0.0003164241788908839
1761402283751752400,2.67675244140625,0.0021650076378136873,0.0018485834589228034,-0.000016653904822305776
1761402283761811700,2.686811767578125,0.0022482771892100573,0.0021316998172551394,0.0001498851488577202
1761402283771871000,2.69687109375,0.002398162381723523,0.0013156584464013577,0.0007327718194574118
1761402283781970700,2.706970703125,0.0017153521766886115,0.0016986982664093375,0.0003663859097287059
1761402283792076800,2.717076904296875,0.0019318530103191733,0.0020650841761380434,0.0013156584464013577
1761402283802132500,2.727132568359375,0.002314892830327153,0.0017320060869678855,0.0004996171337552369
1761402283812238600,2.737238525390625,0.0019984685350209475,0.0007993874605745077,0.0005162710440345109
1761402283822320000,2.747320068359375,0.0021150459069758654,0.0019651607144623995,-0.00016653904458507895
1761402283832375300,2.757375244140625,0.0020151224453002214,0.0010491959983482957,0.0001332312385784462
1761402283842482000,2.76748193359375,0.0016820443561300635,0.0019984685350209475,0.0004163476114626974
1761402283852566500,2.77756640625,0.0019651607144623995,0.0013489662669599056,0.00038303982000797987
1761402283862644000,2.78764404296875,0.0020817380864173174,0.0018485834589228034,0.0007494257297366858
1761402283872725000,2.79772509765625,0.0014988514594733715,0.0014322358183562756,0.00039969373028725386
1761402283882806000,2.807805908203125,0.0014821975491940975,0.0019485069205984473,0.00019984686514362693
1761402283892883000,2.817883056640625,0.0019151991000398993,0.0012490428052842617,0.00039969373028725386
1761402283902968000,2.827968017578125,0.0016986982664093375,0.0007993874605745077,0.0005828866851516068
1761402283913049000,2.838049072265625,0.0018818912794813514,0.0017986217280849814,0.0006328483577817678
1761402283923130400,2.84813037109375,0.0019818146247416735,0.0014988514594733715,0.0008993108640424907
1761402283933211400,2.85821142578125,0.0018985451897606254,0.0025313934311270714,0.0007327718194574118
1761402283943293000,2.86829296875,0.0017986217280849814,0.0014655436389148235,0.00018319295486435294
1761402283953373200,2.878373291015625,0.0025147395208477974,0.0013656201772391796,0.0006828100886195898
1761402283963450400,2.888450439453125,0.0025480473414063454,0.0010158881777897477,-0.00003330780964461155
1761402283973535200,2.89853515625,0.0019651607144623995,0.0017486599972471595,0.0003663859097287059
1761402283983616500,2.908616455078125,0.0020151224453002214,0.0015321592800319195,0.0003663859097287059
1761402283993697500,2.918697509765625,0.0017486599972471595,0.0017819678178057075,0.0008493491332046688
1761402284003778300,2.9287783203125,0.0014155819080770016,0.0018818912794813514,0.0006828100886195898
1761402284013859300,2.938859375,0.0020983919966965914,0.0015488131903111935,0.0002831163874361664
1761402284023940900,2.94894091796875,0.0020151224453002214,0.0014655436389148235,0.00004996171628590673
1761402284034021600,2.959021728515625,0.002364854561164975,0.0020817380864173174,0.0007993874605745077
1761402284044103000,2.96910302734375,0.0022482771892100573,0.0017486599972471595,0.0004330015217419714
1761402284054183700,2.97918359375,0.0019818146247416735,0.0014322358183562756,0.0008660030434839427
1761402284064264700,2.9892646484375,0.0017653139075264335,0.0013489662669599056,0.000016653904822305776
1761402284074345700,2.999345703125,0.0024980856105685234,0.0020983919966965914,0.0005162710440345109
1761402284084426500,3.009426513671875,0.0019318530103191733,0.002314892830327153,0.0003497319994494319
1761402284094508300,3.01950830078125,0.0018485834589228034,0.0024980856105685234,0.00039969373028725386
1761402284104588800,3.0295888671875,0.002464778022840619,0.0021150459069758654,0.0004330015217419714
1761402284114645000,3.03964501953125,0.0019151991000398993,0.0014488897286355495,0.0005495788645930588
1761402284124750800,3.049750732421875,0.0015821210108697414,0.0014655436389148235,0.0002664624771568924
1761402284134807000,3.05980712890625,0.002381508471444249,0.0015488131903111935,0.0002165007608709857
1761402284144942000,3.069942138671875,0.0021816615480929613,0.0022316232789307833,0.0004163476114626974
1761402284154994400,3.079994384765625,0.002398162381723523,0.0019818146247416735,0.0006328483577817678
1761402284165066200,3.090066162109375,0.0016320826252922416,0.0019151991000398993,0.00008326952229253948
1761402284175135000,3.100135009765625,0.0019651607144623995,0.0017153521766886115,0.00024980856687761843
1761402284185237000,3.110237060546875,0.002364854561164975,0.0014988514594733715,0.0008660030434839427
1761402284195318300,3.120318359375,0.0022982389200478792,0.0019318530103191733,0.0008826569537632167
1761402284205374500,3.13037451171875,0.0021816615480929613,0.0016154287150129676,0.0008826569537632167
1761402284215484000,3.14048388671875,0.0018985451897606254,0.0016154287150129676,-0.000016653904822305776
1761402284225535500,3.150535400390625,0.0021483537275344133,0.0015488131903111935,0.0004163476114626974
1761402284235642400,3.160642333984375,0.0018652373692020774,0.0011324655497446656,-0.0003497319994494319
1761402284245743000,3.1707431640625,0.0022316232789307833,0.0025147395208477974,0.00004996171628590673
1761402284255804400,3.180804443359375,0.0027312403544783592,0.0017819678178057075,-0.0005162710440345109
1761402284265885400,3.190885498046875,0.0027145864441990852,0.0019984685350209475,0.00011657733557512984
1761402284275966500,3.200966552734375,0.0021983154583722353,0.0021483537275344133,0.0002997702977154404
1761402284286022100,3.211022216796875,0.002314892830327153,0.002431470202282071,0.0002664624771568924
1761402284296103000,3.22110302734375,0.0020484302658587694,0.0007993874605745077,0.0002664624771568924
1761402284306209800,3.231209716796875,0.0021983154583722353,0.0016820443561300635,0.0003497319994494319
1761402284316290800,3.241290771484375,0.0017486599972471595,0.002448124112561345,0.0010325420880690217
1761402284326354000,3.25135400390625,0.0021150459069758654,0.0016154287150129676,0.0004330015217419714
1761402284336452600,3.26145263671875,0.002448124112561345,0.0015155053697526455,0.0004163476114626974
1761402284346489300,3.2714892578125,0.0019485069205984473,0.0016487365355715156,0.0006495022680610418
1761402284356615000,3.281614990234375,0.0020484302658587694,0.0018652373692020774,0.00008326952229253948
1761402284366695700,3.29169580078125,0.0019651607144623995,0.0014821975491940975,-0.00004996171628590673
1761402284376776700,3.301776611328125,0.0021316998172551394,0.0018485834589228034,0.0005828866851516068
1761402284386857700,3.311857666015625,0.0019984685350209475,0.0018319295486435294,0.0005995405954308808
1761402284396938800,3.321938720703125,0.0014322358183562756,0.0013989279977977276,0.0007327718194574118
1761402284407017000,3.332016845703125,0.0018485834589228034,0.0013656201772391796,-0.0003164241788908839
1761402284417096700,3.3420966796875,0.002314892830327153,0.0005662327748723328,0.0007327718194574118
1761402284427179500,3.352179443359375,0.0016653904458507895,0.0014155819080770016,0.0010658499086275697
1761402284437262800,3.362262939453125,0.0018319295486435294,0.0012656967155635357,0.0002831163874361664
1761402284447346400,3.372346435546875,0.0024980856105685234,0.0016653904458507895,0.0004163476114626974
1761402284457425700,3.38242578125,0.0022982389200478792,0.0013822740875184536,0.0006661561783403158
1761402284467480600,3.39248046875,0.0025647012516856194,0.0019818146247416735,0.00038303982000797987
1761402284477587700,3.402587646484375,0.0016986982664093375,0.0018152756383642554,-0.0003164241788908839
1761402284487668700,3.412668701171875,0.0014821975491940975,0.0013822740875184536,-0.0001498851488577202
1761402284497749500,3.42274951171875,0.0021983154583722353,0.0014988514594733715,0.0007327718194574118
1761402284507830300,3.432830322265625,0.0014988514594733715,0.0014988514594733715,-0.0006661561783403158
1761402284517912000,3.442912109375,0.0020317763555794954,0.0011990811908617616,0.00008326952229253948
1761402284527988700,3.45298876953125,0.002331546740606427,0.002331546740606427,-0.00003330780964461155
1761402284538073900,3.463073974609375,0.0017653139075264335,0.0011158116394653916,0.0005162710440345109
1761402284548155100,3.473155029296875,0.0017486599972471595,0.0018152756383642554,0.0003164241788908839
1761402284558235400,3.4832353515625,0.0019984685350209475,0.0014488897286355495,0.0004163476114626974
1761402284568317200,3.493317138671875,0.0017153521766886115,0.0015155053697526455,0.00019984686514362693
1761402284578398200,3.503398193359375,0.0014488897286355495,0.0011990811908617616,0.0003164241788908839
1761402284588470800,3.513470703125,0.0014488897286355495,0.0014655436389148235,0.0009326186846010387
1761402284598555400,3.523555419921875,0.0018818912794813514,0.0014155819080770016,0.00016653904458507895
1761402284608640500,3.533640625,0.0014488897286355495,0.0019984685350209475,0.0003164241788908839
1761402284618721500,3.543721435546875,0.0016154287150129676,0.0015987749211490154,0.0002664624771568924
1761402284628802800,3.553802734375,0.0019151991000398993,0.0015821210108697414,0.0007161179091781378
1761402284638883600,3.563883544921875,0.0022149693686515093,0.0011824272805824876,0.0006828100886195898
1761402284648939800,3.573939697265625,0.0020484302658587694,0.0020817380864173174,0.0003330780891701579
1761402284659042000,3.5840419921875,0.0025813551619648933,0.0017819678178057075,0.0007494257297366858
1761402284669127000,3.594126953125,0.0019984685350209475,0.0016320826252922416,0.00044965543202124536
1761402284679207700,3.604207763671875,0.0018319295486435294,0.0018652373692020774,0.0003330780891701579
1761402284689249000,3.6142490234375,0.0016653904458507895,0.0007993874605745077,0.0003497319994494319
1761402284699370200,3.624370361328125,0.0020650841761380434,0.0018818912794813514,-0.00008326952229253948
1761402284709451000,3.634450927734375,0.0019984685350209475,0.0018319295486435294,0.0011657733703032136
1761402284719553500,3.644553466796875,0.0020650841761380434,0.0015987749211490154,0.0001332312385784462
1761402284729613000,3.654613037109375,0.0017153521766886115,0.0020484302658587694,0.0001332312385784462
1761402284739694000,3.664694091796875,0.0017153521766886115,0.0012323890114203095,0.0011990811908617616
1761402284749775400,3.674775390625,0.0019485069205984473,0.0020317763555794954,0.00024980856687761843
1761402284759856000,3.684856201171875,0.0018485834589228034,0.0020650841761380434,0.00048296325257979333
1761402284769937200,3.694937255859375,0.0021650076378136873,0.0012656967155635357,0.000016653904822305776
1761402284780018200,3.70501806640625,0.002481431933119893,0.0024980856105685234,-0.00008326952229253948
1761402284790095400,3.715095458984375,0.0020484302658587694,0.0012323890114203095,0.00019984686514362693
1761402284800180500,3.725180419921875,0.0022815850097686052,0.0015987749211490154,0.0006495022680610418
1761402284810261200,3.73526123046875,0.0021816615480929613,0.0018485834589228034,0.0002165007608709857
1761402284820342500,3.745342529296875,0.0017986217280849814,0.0026146629825234413,0.0008993108640424907
1761402284830423300,3.75542333984375,0.0015155053697526455,0.002348200650885701,0.0004330015217419714
1761402284840504600,3.765504638671875,0.002448124112561345,0.0022982389200478792,0.0004163476114626974
1761402284850582000,3.77558203125,0.0016154287150129676,0.0017153521766886115,0.0002997702977154404
1761402284860666600,3.78566650390625,0.0012323890114203095,0.0012990045361220837,-0.0001498851488577202
1761402284870747400,3.795747314453125,0.0018319295486435294,0.0016154287150129676,0.0002831163874361664
1761402284880828400,3.805828369140625,0.002331546740606427,0.0011657733703032136,0.0005329249543137848
1761402284890909400,3.815909423828125,0.0021650076378136873,0.0015821210108697414,0.00044965543202124536
1761402284900990700,3.82599072265625,0.0014155819080770016,0.0020817380864173174,0.0001332312385784462
1761402284911071700,3.83607177734375,0.002348200650885701,0.0016986982664093375,0.0006328483577817678
1761402284921149000,3.84614892578125,0.0021316998172551394,0.0017819678178057075,0.00044965543202124536
1761402284931234000,3.856234130859375,0.0016154287150129676,0.0015987749211490154,0.0009159647743217647
1761402284941314600,3.866314453125,0.0022149693686515093,0.0007494257297366858,0.0008993108640424907
1761402284951395800,3.876395751953125,0.0011324655497446656,0.0013656201772391796,0.0006328483577817678
1761402284961477400,3.886477294921875,0.0016986982664093375,0.0014655436389148235,0.0003663859097287059
1761402284971558100,3.89655810546875,0.0018985451897606254,0.0011990811908617616,0.0005828866851516068
1761402284981625600,3.90662548828125,0.002381508471444249,0.0021483537275344133,0.00009992343257181346
1761402284991720000,3.916719970703125,0.0018319295486435294,0.0019485069205984473,0.0001498851488577202
1761402285001801200,3.92680126953125,0.0014655436389148235,0.0017153521766886115,-0.00019984686514362693
1761402285011857000,3.93685693359375,0.0013323123566806316,0.0014655436389148235,0.0009492725948803127
1761402285021963300,3.94696337890625,0.0017653139075264335,0.0012490428052842617,-0.0002165007608709857
1761402285032044000,3.9570439453125,0.0019485069205984473,0.002381508471444249,0.0006495022680610418
1761402285042121200,3.967121337890625,0.0015987749211490154,0.0016320826252922416,0.0002831163874361664
1761402285052165600,3.97716552734375,0.0021316998172551394,0.0015321592800319195,0.00046630934230051935
1761402285062287000,3.987287109375,0.0016653904458507895,0.0016487365355715156,0.0006328483577817678
1761402285072368000,3.9973681640625,0.0017153521766886115,0.0017486599972471595,0.0005495788645930588
1761402285082449200,4.00744921875,0.0021650076378136873,0.0015155053697526455,0.00003330780964461155
1761402285092530200,4.0175302734375,0.0021816615480929613,0.0018152756383642554,0.00003330780964461155
1761402285102611200,4.027611083984375,0.0015821210108697414,0.002364854561164975,0.0005162710440345109
1761402285112688000,4.037688232421875,0.0016320826252922416,0.0025313934311270714,-0.00019984686514362693
1761402285122748400,4.04774853515625,0.0015987749211490154,0.0018152756383642554,0.0007827335502952337
1761402285132854300,4.057854248046875,0.002381508471444249,0.0017653139075264335,0.00004996171628590673
1761402285142910200,4.06791015625,0.002314892830327153,0.0021150459069758654,0.00048296325257979333
1761402285153016300,4.078016357421875,0.0018152756383642554,0.0020983919966965914,0.0004330015217419714
1761402285163097600,4.08809765625,0.0014655436389148235,0.0019485069205984473,-0.0000666156192892231
1761402285173175000,4.098175048828125,0.0017986217280849814,0.0014488897286355495,0.0003164241788908839
1761402285183259600,4.108259765625,0.0014322358183562756,0.0018652373692020774,0.0003164241788908839
1761402285193340700,4.118340576171875,0.0016320826252922416,0.0012656967155635357,-0.00011657733557512984
1761402285203421400,4.12842138671875,0.0018985451897606254,0.0013323123566806316,-0.0003497319994494319
1761402285213502700,4.138502685546875,0.0016820443561300635,0.0016986982664093375,0.00011657733557512984
1761402285223583700,4.148583740234375,0.002331546740606427,0.0021150459069758654,0.0005828866851516068
1761402285233664800,4.158664794921875,0.002448124112561345,0.00019984686514362693,-0.000016653904822305776
1761402285243741400,4.168741455078125,0.0021983154583722353,0.0014655436389148235,0.0005828866851516068
1761402285253826800,4.178826904296875,0.0021483537275344133,0.0013323123566806316,0.0009159647743217647
1761402285263874800,4.188874755859375,0.0019984685350209475,0.0010158881777897477,0.00009992343257181346
1761402285273988900,4.19898876953125,0.0022482771892100573,0.0012157351011410356,0.00023315467115025967
1761402285284070000,4.20906982421875,0.0019651607144623995,0.0017653139075264335,0.0002997702977154404
1761402285294143000,4.21914306640625,0.002414816292002797,0.0016653904458507895,-0.00024980856687761843
1761402285304232700,4.229232666015625,0.0024980856105685234,0.0018985451897606254,0.00038303982000797987
1761402285314313000,4.23931298828125,0.0019318530103191733,0.0013156584464013577,0.0002831163874361664
1761402285324394200,4.249394287109375,0.0016986982664093375,0.0022982389200478792,0.0005495788645930588
1761402285334475300,4.259475341796875,0.0019151991000398993,0.002864471636712551,0.0006661561783403158
1761402285344569600,4.269569580078125,0.0018319295486435294,0.0021150459069758654,0.0010825038189068437
1761402285354630700,4.279630615234375,0.0019984685350209475,0.0018818912794813514,0.0003164241788908839
1761402285364718600,4.289718505859375,0.0012656967155635357,0.0024980856105685234,0.0002165007608709857
1761402285374799400,4.29979931640625,0.0012990045361220837,0.0021650076378136873,0.0001332312385784462
1761402285384880400,4.30988037109375,0.002431470202282071,0.0018485834589228034,0.0001498851488577202
1761402285394961700,4.319961669921875,0.0017986217280849814,0.0015654671005904675,0.0004996171337552369
1761402285405042700,4.330042724609375,0.0022649310994893312,0.0022482771892100573,-0.00004996171628590673
1761402285415123500,4.34012353515625,0.002331546740606427,0.0020817380864173174,-0.0001332312385784462
1761402285425179100,4.35017919921875,0.002331546740606427,0.0015987749211490154,0.0005162710440345109
1761402285435285200,4.36028515625,0.0021316998172551394,0.0008993108640424907,0.00019984686514362693
1761402285445367300,4.3703671875,0.0016320826252922416,0.0016820443561300635,-0.0000666156192892231
1761402285455447800,4.38044775390625,0.0018485834589228034,0.0018319295486435294,0.0005828866851516068
1761402285465528600,4.390528564453125,0.0021150459069758654,0.0014155819080770016,0.0003497319994494319
1761402285475609600,4.400609619140625,0.002348200650885701,0.0015155053697526455,0.00038303982000797987
1761402285485691000,4.41069091796875,0.0012990045361220837,0.0015155053697526455,-0.0001498851488577202
1761402285495772000,4.42077197265625,0.0011491194600239396,0.0017653139075264335,0.0003663859097287059
1761402285505853200,4.430853271484375,0.0018818912794813514,0.0016487365355715156,-0.0006328483577817678
1761402285515933700,4.44093359375,0.0021150459069758654,0.0016653904458507895,-0.00009992343257181346
1761402285526014700,4.4510146484375,0.0025980090722441673,0.0014988514594733715,-0.0005662327748723328
1761402285536096000,4.461095947265625,0.002431470202282071,0.0014488897286355495,0.0001498851488577202
1761402285546177800,4.471177734375,0.0022149693686515093,0.0015155053697526455,0.0005162710440345109
1761402285556252700,4.481252685546875,0.002448124112561345,0.0016320826252922416,0.0007660796400159597
1761402285566314000,4.49131396484375,0.0012990045361220837,0.0012656967155635357,-0.00019984686514362693
1761402285576420000,4.501420166015625,0.0015321592800319195,0.0022482771892100573,-0.0005662327748723328
1761402285586500900,4.5115009765625,0.0013489662669599056,0.0014322358183562756,0.00008326952229253948
1761402285596582100,4.52158203125,0.002448124112561345,0.0015821210108697414,0.0009492725948803127
1761402285606641700,4.5316416015625,0.0013489662669599056,0.0013489662669599056,0.0005662327748723328
1761402285616744200,4.541744140625,0.002398162381723523,0.0017986217280849814,0.0007993874605745077
1761402285626825700,4.55182568359375,0.0020650841761380434,0.0013989279977977276,0.00044965543202124536
1761402285636906500,4.561906494140625,0.0020817380864173174,0.0014988514594733715,0.00039969373028725386
1761402285646955000,4.571955078125,0.0026646247133612633,0.0021316998172551394,-0.00004996171628590673
1761402285657065000,4.58206494140625,0.0019818146247416735,0.0018652373692020774,0.0005495788645930588
1761402285667171300,4.59217138671875,0.0018985451897606254,0.0015488131903111935,0.0007161179091781378
1761402285677204500,4.60220458984375,0.0017819678178057075,0.0008660030434839427,-0.00046630934230051935
1761402285687312100,4.61231201171875,0.0018152756383642554,0.0019818146247416735,0.0003164241788908839
1761402285697392400,4.622392333984375,0.0021483537275344133,0.0018985451897606254,0.0005329249543137848
1761402285707474000,4.632473876953125,0.0019984685350209475,0.0014988514594733715,0.0003663859097287059
1761402285717554400,4.642554443359375,0.002348200650885701,0.0017653139075264335,0.0003497319994494319
1761402285727635500,4.652635498046875,0.0019984685350209475,0.0017153521766886115,0.0008993108640424907
1761402285737716200,4.66271630859375,0.0018985451897606254,0.0021816615480929613,0.00011657733557512984
1761402285747793400,4.67279345703125,0.0017986217280849814,0.0017986217280849814,0.00016653904458507895
1761402285757879300,4.68287939453125,0.0016154287150129676,0.0013822740875184536,0.0006661561783403158
1761402285767959800,4.692959716796875,0.002314892830327153,0.0010491959983482957,0.00018319295486435294
1761402285778041600,4.70304150390625,0.0018985451897606254,0.0017653139075264335,-0.00011657733557512984
1761402285788122600,4.71312255859375,0.0017320060869678855,0.0012490428052842617,0.00016653904458507895
1761402285798203400,4.723203369140625,0.0018818912794813514,0.0011324655497446656,0.0003164241788908839
1761402285808279800,4.73327978515625,0.002414816292002797,0.0009659265051595867,0.0006495022680610418
1761402285818364700,4.74336474609375,0.0018652373692020774,0.0013822740875184536,0.0006661561783403158
1761402285828446500,4.753446533203125,0.0019318530103191733,0.0021816615480929613,0.00038303982000797987
1761402285838526700,4.763526611328125,0.0021316998172551394,0.0019151991000398993,0.00038303982000797987
1761402285848608500,4.7736083984375,0.0016154287150129676,0.002381508471444249,0.0002831163874361664
1761402285858688800,4.783688720703125,0.0024980856105685234,0.0019485069205984473,0.00039969373028725386
1761402285868770000,4.79377001953125,0.0025980090722441673,0.0012656967155635357,0.00008326952229253948
1761402285878847000,4.803846923828125,0.0018652373692020774,0.0016986982664093375,0.0006661561783403158
1761402285888932000,4.81393212890625,0.002464778022840619,0.0019818146247416735,0.0005329249543137848
1761402285899013000,4.82401318359375,0.0019651607144623995,0.0017153521766886115,0.0003663859097287059
1761402285909094400,4.834094482421875,0.0017320060869678855,0.0013156584464013577,0.0005495788645930588
1761402285919175200,4.844175048828125,0.0017486599972471595,0.0008826569537632167,-0.0000666156192892231
1761402285929256200,4.854256103515625,0.0022815850097686052,0.0014988514594733715,-0.00003330780964461155
1761402285939331000,4.8643310546875,0.002364854561164975,0.0017153521766886115,0.00023315467115025967
1761402285949418800,4.874418701171875,0.0018652373692020774,0.0017486599972471595,0.00038303982000797987
1761402285959499800,4.884499755859375,0.0018818912794813514,0.0020817380864173174,0.0000666156192892231
1761402285969560800,4.894560791015625,0.0021150459069758654,0.0016820443561300635,0.0005162710440345109
1761402285979661300,4.904661376953125,0.0019151991000398993,0.0015654671005904675,0.0009159647743217647
1761402285989717800,4.9147177734375,0.0016653904458507895,0.0016653904458507895,-0.000016653904822305776
1761402285999819500,4.924819580078125,0.0019151991000398993,0.0011824272805824876,0.0007660796400159597
1761402286009904600,4.934904541015625,0.0014988514594733715,0.0019651607144623995,0.0008160413126461208
1761402286019985400,4.9449853515625,0.0017819678178057075,0.0014988514594733715,0.0004163476114626974
1761402286030066700,4.955066650390625,0.002331546740606427,0.0021483537275344133,0.0005662327748723328
1761402286040148000,4.96514794921875,0.002314892830327153,0.0015155053697526455,0.0009159647743217647
1761402286050228700,4.975228759765625,0.002398162381723523,0.0022649310994893312,0.0005329249543137848
1761402286060288000,4.9852880859375,0.0013656201772391796,0.0020484302658587694,-0.0003663859097287059
1761402286070387000,4.995386962890625,0.0022649310994893312,0.0021150459069758654,0.0006828100886195898
1761402286080471800,5.005471923828125,0.0015987749211490154,0.0022649310994893312,0.00018319295486435294
1761402286090552800,5.015552734375,0.0012823506258428097,0.0016487365355715156,0.00004996171628590673
1761402286100633900,5.0256337890625,0.0017653139075264335,0.0016487365355715156,0.00023315467115025967
1761402286110714600,5.035714599609375,0.0015654671005904675,0.0020817380864173174,0.0004996171337552369
1761402286120795600,5.045795654296875,0.0015488131903111935,0.0021150459069758654,0.0002831163874361664
1761402286130873000,5.055873046875,0.0021316998172551394,0.0020484302658587694,0.00024980856687761843
1761402286140958000,5.0659580078125,0.002348200650885701,0.0020151224453002214,0.00023315467115025967
1761402286151039000,5.0760390625,0.0021650076378136873,0.0014655436389148235,0.00048296325257979333
1761402286161120000,5.0861201171875,0.0021983154583722353,0.0017986217280849814,-0.00004996171628590673
1761402286171201000,5.096200927734375,0.0019485069205984473,0.0010825038189068437,0.0005495788645930588
1761402286181282000,5.106281982421875,0.0015155053697526455,0.0013822740875184536,0.0006495022680610418
1761402286191362600,5.116362548828125,0.0014322358183562756,0.0018152756383642554,0.0010325420880690217
1761402286201441000,5.12644091796875,0.0015654671005904675,0.0018652373692020774,0.0006994639988988638
1761402286211525400,5.136525390625,0.0014988514594733715,0.0017819678178057075,0.0003663859097287059
1761402286221606100,5.146606201171875,0.002314892830327153,0.0013489662669599056,0.0006495022680610418
1761402286231687400,5.1566875,0.0022482771892100573,0.0014322358183562756,0.0002831163874361664
1761402286241752800,5.1667529296875,0.0017819678178057075,0.0019318530103191733,0.0005828866851516068
1761402286251849200,5.17684912109375,0.0015987749211490154,0.0012990045361220837,0
1761402286261926400,5.186926513671875,0.0018319295486435294,0.0018818912794813514,0.0003330780891701579
1761402286272011300,5.19701123046875,0.002331546740606427,0.0010825038189068437,0.00016653904458507895
1761402286282092300,5.20709228515625,0.0019651607144623995,0.0016986982664093375,-0.00038303982000797987
1761402286292173300,5.21717333984375,0.0026146629825234413,0.0012990045361220837,0.0000666156192892231
1761402286302254300,5.22725439453125,0.0019984685350209475,0.0017320060869678855,0.0008160413126461208
1761402286312335600,5.237335693359375,0.0018152756383642554,0.0016986982664093375,0.0009326186846010387
1761402286322402800,5.24740283203125,0.0014988514594733715,0.0022316232789307833,0.00023315467115025967
1761402286332497400,5.257497314453125,0.0015987749211490154,0.002448124112561345,0.00019984686514362693
1761402286342568200,5.267568115234375,0.0025147395208477974,0.0020817380864173174,0.0007660796400159597
1761402286352634600,5.277634521484375,0.002414816292002797,0.0019485069205984473,0.00016653904458507895
1761402286362741000,5.287740966796875,0.0020650841761380434,0.0020983919966965914,0.0003663859097287059
1761402286372821500,5.297821533203125,0.0018652373692020774,0.0015821210108697414,0.0013489662669599056
1761402286382902800,5.30790283203125,0.0008493491332046688,0.0011824272805824876,0.0004330015217419714
1761402286392980000,5.31797998046875,0.0015821210108697414,0.0008660030434839427,0.00004996171628590673
1761402286403064800,5.32806494140625,0.0013323123566806316,0.0014821975491940975,0.0006994639988988638
1761402286413146000,5.33814599609375,0.0022482771892100573,0.0017986217280849814,-0.00008326952229253948
1761402286423227000,5.348226806640625,0.0022815850097686052,0.002381508471444249,0.0002664624771568924
1761402286433309700,5.358309814453125,0.0021483537275344133,0.0022982389200478792,-0.00016653904458507895
1761402286443389400,5.368389404296875,0.0019485069205984473,0.0020151224453002214,-0.00018319295486435294
1761402286453470200,5.37847021484375,0.0022149693686515093,0.0010991577291861176,0.0008993108640424907
1761402286463551000,5.388551025390625,0.0022482771892100573,0.0015321592800319195,-0.000016653904822305776
1761402286473632000,5.398632080078125,0.0022982389200478792,0.0019984685350209475,0.0005495788645930588
1761402286483713000,5.408713134765625,0.0014655436389148235,0.0013156584464013577,0.0009326186846010387
1761402286493794000,5.4187939453125,0.0016154287150129676,0.0014821975491940975,0.0009159647743217647
1761402286503875000,5.428875,0.0017486599972471595,0.0022982389200478792,0.0007161179091781378
1761402286513956400,5.438956298828125,0.0016653904458507895,0.0015488131903111935,0.0003330780891701579
1761402286534095000,5.45909521484375,0.0017819678178057075,0.0013323123566806316,0.0001332312385784462
1761402286544200000,5.469199951171875,0.0021650076378136873,0.0013156584464013577,0.0003330780891701579
1761402286554280200,5.4792802734375,0.0021483537275344133,0.0016986982664093375,0.0004163476114626974
1761402286564361200,5.489361328125,0.0015155053697526455,0.0012990045361220837,0.0002664624771568924
1761402286574421000,5.4994208984375,0.0019818146247416735,0.0015987749211490154,0.00009992343257181346
1761402286584523800,5.509523681640625,0.0021150459069758654,0.0021816615480929613,-0.0001332312385784462
1761402286594604300,5.519604248046875,0.0021483537275344133,0.0017986217280849814,0.000016653904822305776
1761402286604685600,5.529685546875,0.0026479708030819893,0.0015488131903111935,0.0008493491332046688
1761402286614766300,5.539766357421875,0.0013656201772391796,0.0021150459069758654,0.0002831163874361664
1761402286624848000,5.549847900390625,0.0021150459069758654,0.0014821975491940975,0.00024980856687761843
1761402286634928400,5.559928466796875,0.0018485834589228034,0.0015987749211490154,0.00003330780964461155
1761402286645010400,5.570010498046875,0.0022982389200478792,0.0014322358183562756,0.0007660796400159597
1761402286655090700,5.580090576171875,0.002448124112561345,0.0014821975491940975,-0.0004330015217419714
1761402286665171700,5.590171630859375,0.0026646247133612633,0.0018152756383642554,-0.0001498851488577202
1761402286675252700,5.600252685546875,0.0018152756383642554,0.0017819678178057075,0.0001332312385784462
1761402286685334300,5.610334228515625,0.0020817380864173174,0.0024980856105685234,0.00023315467115025967
1761402286695390000,5.620389892578125,0.0021816615480929613,0.0015821210108697414,0.0003497319994494319
1761402286705496000,5.63049609375,0.0022149693686515093,0.0016820443561300635,0.00009992343257181346
1761402286715577300,5.640577392578125,0.0026146629825234413,0.0016320826252922416,-0.00003330780964461155
1761402286725657900,5.650657958984375,0.0021983154583722353,0.0019485069205984473,0.0009825803572311997
1761402286735739000,5.66073876953125,0.0019318530103191733,0.0020983919966965914,0.00044965543202124536
1761402286745820400,5.6708203125,0.0012823506258428097,0.0019318530103191733,0.0005329249543137848
1761402286755901000,5.68090087890625,0.0016653904458507895,0.0018319295486435294,0.00046630934230051935
1761402286765982000,5.69098193359375,0.0018818912794813514,0.002314892830327153,0.00019984686514362693
1761402286776063000,5.70106298828125,0.0019651607144623995,0.002448124112561345,0.00003330780964461155
1761402286786143700,5.711143798828125,0.0021983154583722353,0.0014988514594733715,0.0006161945057101548
1761402286796225000,5.72122509765625,0.0018818912794813514,0.0015488131903111935,0.0005662327748723328
1761402286806306300,5.731306396484375,0.0015488131903111935,0.0016487365355715156,-0.0000666156192892231
1761402286816387000,5.741386962890625,0.0022316232789307833,0.0021650076378136873,0.0003164241788908839
1761402286826468900,5.75146875,0.002864471636712551,0.0021150459069758654,-0.00048296325257979333
1761402286836549400,5.76154931640625,0.0026146629825234413,0.0014488897286355495,0.00046630934230051935
1761402286846608600,5.771608642578125,0.0016653904458507895,0.0012990045361220837,0.00019984686514362693
1761402286856712200,5.781712158203125,0.0021316998172551394,0.0013822740875184536,0.0008993108640424907
1761402286866770200,5.791770263671875,0.0016320826252922416,0.0014821975491940975,0.0015155053697526455
1761402286876835300,5.80183544921875,0.0014322358183562756,0.0019984685350209475,0.0018485834589228034
1761402286886913500,5.81191357421875,0.0015321592800319195,0.0017653139075264335,0.00018319295486435294
1761402286897009700,5.822009765625,0.0022649310994893312,0.0016154287150129676,0.0004163476114626974
1761402286907112200,5.8321123046875,0.0026479708030819893,0.0016986982664093375,0.0002997702977154404
1761402286917174500,5.842174560546875,0.002831163816154003,0.0016320826252922416,0.0002165007608709857
1761402286927278800,5.85227880859375,0.0019485069205984473,0.0020817380864173174,0.0003164241788908839
1761402286937360100,5.862360107421875,0.0020151224453002214,0.0010825038189068437,0.00038303982000797987
1761402286947441000,5.87244091796875,0.0025147395208477974,0.0010658499086275697,0.0001498851488577202
1761402286957525200,5.882525146484375,0.0021816615480929613,0.0014155819080770016,0.00044965543202124536
1761402286967603700,5.892603759765625,0.002348200650885701,0.0009825803572311997,0.0005329249543137848
1761402286977683500,5.902683349609375,0.0020484302658587694,0.0014155819080770016,0.00008326952229253948
1761402286987765500,5.912765625,0.0021650076378136873,0.0016820443561300635,0.0005828866851516068
1761402286997845800,5.922845703125,0.0022482771892100573,0.0010658499086275697,-0.0004330015217419714
1761402287007927300,5.93292724609375,0.0022982389200478792,0.0008493491332046688,0.0007327718194574118
1761402287018007800,5.9430078125,0.0020817380864173174,0.0015321592800319195,0.0003330780891701579
1761402287028084700,5.953084716796875,0.0018152756383642554,0.0015155053697526455,0.0006328483577817678
1761402287038170600,5.963170654296875,0.0021483537275344133,0.0014821975491940975,0.0007993874605745077
1761402287048251000,5.9732509765625,0.0016986982664093375,0.0017486599972471595,0.00003330780964461155
1761402287058332400,5.98333251953125,0.0021150459069758654,0.0019984685350209475,0.0003497319994494319
1761402287068413700,5.99341357421875,0.002348200650885701,0.0017486599972471595,0.0001498851488577202
1761402287078494200,6.003494140625,0.0011990811908617616,0.0015321592800319195,-0.00011657733557512984
1761402287088571400,6.0135712890625,0.0021816615480929613,0.0011158116394653916,0.0008660030434839427
1761402287098656300,6.02365625,0.0015654671005904675,0.0016154287150129676,0.00009992343257181346
1761402287108713500,6.03371337890625,0.002331546740606427,0.0018652373692020774,0.0005662327748723328
1761402287118818300,6.043818359375,0.0019151991000398993,0.0010325420880690217,0.0005495788645930588
1761402287128875800,6.053875732421875,0.0011657733703032136,0.0016487365355715156,0.0005995405954308808
1761402287138980900,6.06398095703125,0.0022649310994893312,0.0020484302658587694,0.0003330780891701579
1761402287149061600,6.0740615234375,0.0019651607144623995,0.0018985451897606254,0.0003663859097287059
1761402287159138300,6.08413818359375,0.0019984685350209475,0.0021316998172551394,0.00024980856687761843
1761402287169223400,6.094223388671875,0.0022815850097686052,0.002314892830327153,0.0008826569537632167
1761402287179305200,6.10430517578125,0.002414816292002797,0.0018152756383642554,0.0012823506258428097
1761402287189385500,6.114385498046875,0.0018818912794813514,0.0018985451897606254,0.0005495788645930588
1761402287199466200,6.12446630859375,0.0018319295486435294,0.0015321592800319195,0.0001332312385784462
1761402287209548000,6.134548095703125,0.0014821975491940975,0.0007993874605745077,0.0002997702977154404
1761402287219625200,6.144625244140625,0.0018152756383642554,0.0009825803572311997,0.0005162710440345109
1761402287229710000,6.1547099609375,0.0019984685350209475,0.0018818912794813514,0.00019984686514362693
1761402287239790600,6.16479052734375,0.0018818912794813514,0.0018652373692020774,0.0003164241788908839
1761402287249871600,6.17487158203125,0.002897779457271099,0.0022649310994893312,-0.0005162710440345109
1761402287259952600,6.18495263671875,0.0025147395208477974,0.0022815850097686052,0.0002831163874361664
1761402287270055200,6.19505517578125,0.0025313934311270714,0.002331546740606427,-0.0004330015217419714
1761402287280111000,6.205111083984375,0.0021816615480929613,0.002464778022840619,0.0007494257297366858
1761402287290153200,6.2151533203125,0.0016653904458507895,0.0019318530103191733,0.0005329249543137848
1761402287300253000,6.2252529296875,0.0015321592800319195,0.0016320826252922416,-0.0003663859097287059
1761402287310336800,6.235336669921875,0.002364854561164975,0.0021316998172551394,0.00046630934230051935
1761402287320439300,6.245439208984375,0.0018319295486435294,0.0016986982664093375,0.0006495022680610418
1761402287330520000,6.25552001953125,0.0017486599972471595,0.0020317763555794954,0.0008326952229253948
1761402287340601300,6.265601318359375,0.0019151991000398993,0.0017153521766886115,0.00039969373028725386
1761402287350678000,6.275677978515625,0.0020817380864173174,0.0016487365355715156,0.0004163476114626974
1761402287360764000,6.285763916015625,0.0026146629825234413,0.0011491194600239396,0.00019984686514362693
1761402287370844400,6.295844482421875,0.0018152756383642554,0.002364854561164975,-0.00004996171628590673
1761402287380919800,6.305919921875,0.0022316232789307833,0.0020317763555794954,0.0002997702977154404
1761402287391006000,6.316005859375,0.0012990045361220837,0.0018818912794813514,0.00046630934230051935
1761402287401087000,6.3260869140625,0.0016653904458507895,0.0012323890114203095,0.0006994639988988638
1761402287411164200,6.3361640625,0.0018818912794813514,0.0016154287150129676,0.0007660796400159597
1761402287421249300,6.346249267578125,0.0021983154583722353,0.0015488131903111935,0.00003330780964461155
1761402287431330000,6.356330078125,0.002348200650885701,0.0012823506258428097,0.0003497319994494319
1761402287441411300,6.366411376953125,0.0019151991000398993,0.0019485069205984473,0.00048296325257979333
1761402287451492400,6.376492431640625,0.0022316232789307833,0.0019984685350209475,0.00038303982000797987
1761402287461548500,6.386548583984375,0.0020484302658587694,0.002381508471444249,0.00044965543202124536
1761402287471654400,6.396654296875,0.0010491959983482957,0.0020484302658587694,0.000016653904822305776
1761402287481731300,6.4067314453125,0.0017320060869678855,0.0016154287150129676,0.00024980856687761843
1761402287491792100,6.416792236328125,0.0022815850097686052,0.0020484302658587694,0.0004163476114626974
1761402287501897200,6.426897216796875,0.002364854561164975,0.0021650076378136873,0.0010825038189068437
1761402287511998700,6.436998779296875,0.0019485069205984473,0.0020650841761380434,0.0003330780891701579
1761402287522059500,6.4470595703125,0.0015488131903111935,0.0016487365355715156,0.0003663859097287059
1761402287532140500,6.457140625,0.0020817380864173174,0.0022149693686515093,0.0002997702977154404
1761402287542217700,6.4672177734375,0.0021983154583722353,0.0016320826252922416,0.00039969373028725386
1761402287552302600,6.477302490234375,0.002314892830327153,0.0024980856105685234,0.0003663859097287059
1761402287562383600,6.487383544921875,0.0025147395208477974,0.0018319295486435294,0.00019984686514362693
1761402287572434000,6.497433837890625,0.0020650841761380434,0.0025813551619648933,0.0006828100886195898
1761402287582528500,6.507528564453125,0.0012990045361220837,0.0019818146247416735,0.00024980856687761843
1761402287592626700,6.517626708984375,0.0019318530103191733,0.0020317763555794954,0.00016653904458507895
1761402287602703600,6.52770361328125,0.0019318530103191733,0.0007327718194574118,0.0003164241788908839
1761402287612788700,6.537788818359375,0.0020817380864173174,0.0009825803572311997,0.00008326952229253948
1761402287622869800,6.547869873046875,0.0021316998172551394,0.0011824272805824876,0.00004996171628590673
1761402287632951000,6.557950927734375,0.0021983154583722353,0.0013489662669599056,0.0007827335502952337
1761402287643007000,6.568007080078125,0.0018818912794813514,0.0017986217280849814,0.0006161945057101548
1761402287653112800,6.57811279296875,0.002464778022840619,0.0013489662669599056,0.0010825038189068437
1761402287663193900,6.58819384765625,0.002398162381723523,0.0017486599972471595,0.0001332312385784462
1761402287673271000,6.59827099609375,0.0021316998172551394,0.0013323123566806316,0.0002165007608709857
1761402287683356200,6.608356201171875,0.0021316998172551394,0.0015155053697526455,0.0001332312385784462
1761402287693412000,6.618412109375,0.0020650841761380434,0.0017986217280849814,0.00023315467115025967
1761402287713599200,6.63859912109375,0.0017153521766886115,0.0022482771892100573,0.00038303982000797987
1761402287723655000,6.648655029296875,0.0021150459069758654,0.0025813551619648933,0.0004996171337552369
1761402287733761500,6.658761474609375,0.0025147395208477974,0.003014356829226017,0.0009159647743217647
1761402287743843000,6.668843017578125,0.0016653904458507895,0.0014655436389148235,0.00024980856687761843
1761402287753923300,6.67892333984375,0.0018985451897606254,0.0022316232789307833,-0.00016653904458507895
1761402287763979000,6.68897900390625,0.0018985451897606254,0.0020317763555794954,0.00039969373028725386
1761402287774085400,6.69908544921875,0.0020484302658587694,0.0013323123566806316,-0.0002165007608709857
1761402287784166400,6.70916650390625,0.0018985451897606254,0.0012990045361220837,0.00024980856687761843
1761402287794247200,6.7192470703125,0.0019485069205984473,0.0019651607144623995,0.0008160413126461208
1761402287804329000,6.729328857421875,0.0016154287150129676,0.0014655436389148235,0.0006994639988988638
1761402287814409500,6.739409423828125,0.0021816615480929613,0.0020983919966965914,0.0007827335502952337
1761402287824484900,6.74948486328125,0.0012157351011410356,0.0020484302658587694,0.0009159647743217647
1761402287834571800,6.75957177734375,0.0020983919966965914,0.0020983919966965914,-0.00018319295486435294
1761402287844614100,6.7696142578125,0.0018652373692020774,0.0016820443561300635,0.00016653904458507895
1761402287854733600,6.779733642578125,0.0018152756383642554,0.0020983919966965914,0.00024980856687761843
1761402287864814300,6.789814453125,0.0016154287150129676,0.0018485834589228034,0.0010325420880690217
1761402287874909700,6.79990966796875,0.0014655436389148235,0.002331546740606427,0.0006661561783403158
1761402287884976600,6.8099765625,0.002414816292002797,0.0017819678178057075,0.00039969373028725386
1761402287895047000,6.820046875,0.0019318530103191733,0.0009992342675104737,0.0008826569537632167
1761402287905139200,6.83013916015625,0.0016154287150129676,0.0017486599972471595,0.00016653904458507895
1761402287915220200,6.84022021484375,0.002364854561164975,0.0018152756383642554,0.00039969373028725386
1761402287925301800,6.8503017578125,0.0019318530103191733,0.0016154287150129676,0.0001332312385784462
1761402287935382300,6.86038232421875,0.0018652373692020774,0.0016653904458507895,0.0005828866851516068
1761402287945463800,6.8704638671875,0.0021316998172551394,0.0015821210108697414,0.0002831163874361664
1761402287955553800,6.8805537109375,0.0016820443561300635,0.0021650076378136873,0.0007827335502952337
1761402287965620200,6.8906201171875,0.0019485069205984473,0.0019818146247416735,0.0003663859097287059
1761402287975706600,6.90070654296875,0.0011657733703032136,0.0016154287150129676,0.00019984686514362693
1761402287985787000,6.910786865234375,0.0020650841761380434,0.0013989279977977276,0.00011657733557512984
1761402287995869200,6.920869140625,0.0017653139075264335,0.0017153521766886115,0.00009992343257181346
1761402288005949000,6.930948974609375,0.0022982389200478792,0.0012157351011410356,-0.00019984686514362693
1761402288016038400,6.941038330078125,0.0018985451897606254,0.0017320060869678855,-0.0003663859097287059
1761402288026111000,6.951111083984375,0.0019151991000398993,0.0014155819080770016,-0.0000666156192892231
1761402288036192300,6.961192138671875,0.0020817380864173174,0.0014155819080770016,-0.00008326952229253948
1761402288046274000,6.971274169921875,0.0016320826252922416,0.0017153521766886115,-0.0002165007608709857
1761402288056354800,6.981354736328125,0.0021150459069758654,0.0019318530103191733,0.0007161179091781378
1761402288066436000,6.99143603515625,0.0020484302658587694,0.0027145864441990852,-0.0004163476114626974
1761402288076516400,7.001516357421875,0.0019984685350209475,0.0011990811908617616,0.00011657733557512984
1761402288086573000,7.011572998046875,0.0018985451897606254,0.0025813551619648933,0.0004163476114626974
1761402288096679200,7.02167919921875,0.0019151991000398993,0.0022815850097686052,0.0007827335502952337
1761402288106734000,7.031734130859375,0.0022316232789307833,0.0016487365355715156,0.0007161179091781378
1761402288116841200,7.04184130859375,0.0020484302658587694,0.0017153521766886115,-0.0002664624771568924
1761402288126896400,7.051896484375,0.002314892830327153,0.0015155053697526455,0.0008993108640424907
1761402288137000700,7.062000732421875,0.0022649310994893312,0.0019984685350209475,0.0007827335502952337
1761402288147079400,7.072079345703125,0.0019318530103191733,0.0021650076378136873,-0.00003330780964461155
1761402288157163300,7.082163330078125,0.0018985451897606254,0.0018319295486435294,0.0002165007608709857
1761402288167246300,7.092246337890625,0.0014988514594733715,0.0011491194600239396,0.0002165007608709857
1761402288177323000,7.102322998046875,0.0017653139075264335,0.0016653904458507895,0.0004330015217419714
1761402288187407600,7.11240771484375,0.0019151991000398993,0.0015654671005904675,0.0010825038189068437
1761402288197488600,7.122488525390625,0.0016487365355715156,0.0020817380864173174,0.0007494257297366858
1761402288207570000,7.13256982421875,0.0014655436389148235,0.0013822740875184536,0.0005329249543137848
1761402288217651000,7.14265087890625,0.0026979325339198112,0.0025313934311270714,0.0009659265051595867
1761402288227731700,7.152731689453125,0.0017986217280849814,0.0014988514594733715,0.0005162710440345109
1761402288237809000,7.162808837890625,0.0020317763555794954,0.0012157351011410356,0.00044965543202124536
1761402288247905300,7.1729052734375,0.0019984685350209475,0.002881125546991825,0.0002664624771568924
1761402288257950000,7.182949951171875,0.0012656967155635357,0.0022982389200478792,0.0004996171337552369
1761402288268056000,7.19305615234375,0.0016487365355715156,0.0018985451897606254,0.0006328483577817678
1761402288278137000,7.20313720703125,0.0014988514594733715,0.0011491194600239396,0.00044965543202124536
1761402288288217900,7.2132177734375,0.0021816615480929613,0.0021983154583722353,0.0006495022680610418
1761402288298299100,7.223299072265625,0.0020151224453002214,0.0016154287150129676,0.00018319295486435294
1761402288308376000,7.2333759765625,0.002398162381723523,0.0012490428052842617,0.00009992343257181346
1761402288318460400,7.24346044921875,0.0025980090722441673,0.0017986217280849814,0.00024980856687761843
1761402288328542000,7.2535419921875,0.0017653139075264335,0.0015488131903111935,0.0003663859097287059
1761402288338623200,7.263623291015625,0.0022482771892100573,0.0014988514594733715,0.000016653904822305776
1761402288348715300,7.27371533203125,0.0018818912794813514,0.0018485834589228034,-0.0004163476114626974
1761402288358785300,7.283785400390625,0.0018985451897606254,0.0016986982664093375,0.00011657733557512984
1761402288368862000,7.293862060546875,0.0014655436389148235,0.0016653904458507895,0.0004163476114626974
1761402288378947000,7.303947021484375,0.0021483537275344133,0.0021316998172551394,-0.0002165007608709857
1761402288389000000,7.314,0.0018319295486435294,0.0010158881777897477,-0.000016653904822305776
1761402288399085000,7.3240849609375,0.0016820443561300635,0.0022149693686515093,0.00023315467115025967
1761402288409190400,7.3341904296875,0.0018152756383642554,0.0012990045361220837,0.0000666156192892231
1761402288419271400,7.344271484375,0.0016986982664093375,0.0017986217280849814,0.0006495022680610418
1761402288429352400,7.3543525390625,0.0022316232789307833,0.0014988514594733715,0.00024980856687761843
1761402288439429600,7.3644296875,0.0024980856105685234,0.0015654671005904675,0.0007327718194574118
1761402288449501000,7.3745009765625,0.0017819678178057075,0.0015987749211490154,0.0005329249543137848
1761402288459595500,7.384595458984375,0.0014488897286355495,0.0015488131903111935,0.00003330780964461155
1761402288469654500,7.394654541015625,0.0019318530103191733,0.0013989279977977276,-0.00011657733557512984
1761402288479757600,7.404757568359375,0.002431470202282071,0.0017486599972471595,0.00004996171628590673
1761402288489838600,7.414838623046875,0.0019318530103191733,0.0019818146247416735,0.0007660796400159597
1761402288499895600,7.4248955078125,0.0019984685350209475,0.0012490428052842617,-0.0000666156192892231
1761402288510001000,7.4350009765625,0.0016154287150129676,0.002481431933119893,0.0003330780891701579
1761402288520057900,7.445057861328125,0.0018319295486435294,0.0015821210108697414,0.00008326952229253948
1761402288530162700,7.45516259765625,0.0016820443561300635,0.0010158881777897477,0.00038303982000797987
1761402288540244000,7.465243896484375,0.0016487365355715156,0.0020317763555794954,0.0006828100886195898
1761402288550325000,7.475324951171875,0.0013989279977977276,0.0018985451897606254,0.0001332312385784462
1761402288560402200,7.485402099609375,0.0010825038189068437,0.0017320060869678855,-0.0001498851488577202
1761402288570486800,7.49548681640625,0.0018152756383642554,0.0020151224453002214,0.00023315467115025967
1761402288580568000,7.505568115234375,0.0020983919966965914,0.0013489662669599056,0.0012157351011410356
1761402288590648800,7.51564892578125,0.002481431933119893,0.0018652373692020774,0.0007327718194574118
1761402288600705000,7.525705078125,0.0018818912794813514,0.0016986982664093375,-0.00024980856687761843
1761402288610811000,7.535810791015625,0.0020317763555794954,0.0012157351011410356,-0.00004996171628590673
1761402288620892000,7.545891845703125,0.0020817380864173174,0.0018652373692020774,0.0002165007608709857
1761402288630969000,7.555968994140625,0.0016154287150129676,0.0020151224453002214,0.0009492725948803127
1761402288641029400,7.566029296875,0.0020151224453002214,0.0021150459069758654,0.0009159647743217647
1761402288651111200,7.576111083984375,0.0019485069205984473,0.0014655436389148235,0.00038303982000797987
1761402288661191200,7.586191162109375,0.0016986982664093375,0.0018652373692020774,0.0008160413126461208
1761402288671297300,7.59629736328125,0.0027312403544783592,0.0011657733703032136,0.0007161179091781378
1761402288681378000,7.6063779296875,0.0021983154583722353,0.0014322358183562756,0.0005162710440345109
1761402288691455500,7.61645556640625,0.002348200650885701,0.0010325420880690217,0.0006661561783403158
1761402288701540400,7.626540283203125,0.0021316998172551394,0.0021150459069758654,-0.00018319295486435294
1761402288711621400,7.636621337890625,0.0024980856105685234,0.0019318530103191733,-0.0003497319994494319
1761402288721702400,7.646702392578125,0.0020484302658587694,0.0016653904458507895,0.000016653904822305776
1761402288731783200,7.656783203125,0.0021650076378136873,0.0014821975491940975,0.00009992343257181346
1761402288741864400,7.666864501953125,0.0013489662669599056,0.0020317763555794954,-0.0006328483577817678
1761402288751946500,7.676946533203125,0.0016487365355715156,0.0018485834589228034,0.00024980856687761843
1761402288762022700,7.687022705078125,0.0018152756383642554,0.0015654671005904675,0.00019984686514362693
1761402288772107800,7.697107666015625,0.0018319295486435294,0.0011324655497446656,0.0003663859097287059
1761402288782188800,7.707188720703125,0.0011324655497446656,0.0010491959983482957,0.0004163476114626974
1761402288792269600,7.71726953125,0.0018818912794813514,0.0017986217280849814,0.0006328483577817678
1761402288812431600,7.737431640625,0.0022482771892100573,0.0022649310994893312,-0.00018319295486435294
1761402288822509000,7.747509033203125,0.0016820443561300635,0.002947741188108921,0.0003330780891701579
1761402288832602000,7.75760205078125,0.0017153521766886115,0.0015155053697526455,0.0005995405954308808
1761402288842649600,7.767649658203125,0.0021316998172551394,0.0020484302658587694,0.00011657733557512984
1761402288852756000,7.777755859375,0.0019485069205984473,0.0019818146247416735,0.0013822740875184536
1761402288862837000,7.7878369140625,0.0015488131903111935,0.0015321592800319195,0.0009492725948803127
1761402288872917800,7.797917724609375,0.0015321592800319195,0.0014155819080770016,0.00044965543202124536
1761402288882994700,7.80799462890625,0.0020817380864173174,0.0021816615480929613,0.0008493491332046688
1761402288893080000,7.818080078125,0.0017986217280849814,0.0019651607144623995,0.00016653904458507895
1761402288903141600,7.8281416015625,0.0015987749211490154,0.0008993108640424907,0.0004163476114626974
1761402288913241900,7.838241943359375,0.0018818912794813514,0.0015654671005904675,0.0012656967155635357
1761402288923323100,7.8483232421875,0.0021316998172551394,0.0012823506258428097,0.0001498851488577202
1761402288933404200,7.858404052734375,0.0018319295486435294,0.0020317763555794954,0.0007827335502952337
1761402288943470300,7.86847021484375,0.0018319295486435294,0.0016986982664093375,0.0006828100886195898
1761402288953566500,7.87856640625,0.0020484302658587694,0.0017653139075264335,0.0009326186846010387
1761402288963647500,7.8886474609375,0.0017486599972471595,0.0020151224453002214,-0.0000666156192892231
1761402288973728300,7.898728271484375,0.0016820443561300635,0.0011657733703032136,-0.000016653904822305776
1761402288983809000,7.90880908203125,0.0013489662669599056,0.0013323123566806316,-0.000016653904822305776
1761402288993889500,7.9188896484375,0.0017653139075264335,0.0013323123566806316,0.00038303982000797987
1761402289003936800,7.928936767578125,0.0020650841761380434,0.0011990811908617616,0.0009159647743217647
1761402289014052900,7.939052978515625,0.0025313934311270714,0.0016487365355715156,0.0003663859097287059
1761402289024133400,7.94913330078125,0.0018485834589228034,0.0022649310994893312,-0.00009992343257181346
1761402289034215000,7.95921484375,0.0012990045361220837,0.0017153521766886115,0.0003497319994494319
1761402289044296000,7.9692958984375,0.0020983919966965914,0.0013989279977977276,0.00008326952229253948
1761402289054376400,7.97937646484375,0.0018818912794813514,0.0013323123566806316,0.000016653904822305776
1761402289064457500,7.98945751953125,0.0018485834589228034,0.0010991577291861176,0.0005995405954308808
1761402289074525000,7.99952490234375,0.0017819678178057075,0.0017320060869678855,0.0006661561783403158
1761402289084620000,8.0096201171875,0.0021816615480929613,0.002464778022840619,0.0003164241788908839
1761402289094660000,8.01966015625,0.0019485069205984473,0.0019318530103191733,-0.00003330780964461155
1761402289104782300,8.0297822265625,0.0015821210108697414,0.0022482771892100573,0.0004330015217419714
1761402289114863400,8.03986328125,0.0022815850097686052,0.0017819678178057075,0.00024980856687761843
1761402289124939000,8.04993896484375,0.0021650076378136873,0.0017320060869678855,-0.00011657733557512984
1761402289135025200,8.060025146484374,0.0019318530103191733,0.0020983919966965914,0.0004330015217419714
1761402289145080600,8.07008056640625,0.002481431933119893,0.002464778022840619,-0.000016653904822305776
1761402289155187500,8.0801875,0.0016820443561300635,0.0021483537275344133,-0.0005329249543137848
1761402289165267700,8.090267822265625,0.0018319295486435294,0.0020484302658587694,0.00009992343257181346
1761402289175349000,8.100348876953126,0.0018985451897606254,0.0012157351011410356,0.0006328483577817678
1761402289205592800,8.1305927734375,0.0010658499086275697,0.0018985451897606254,0.0010158881777897477
1761402289215645700,8.140645751953125,0.0021483537275344133,0.0013156584464013577,0.0004996171337552369
1761402289225754400,8.15075439453125,0.0016820443561300635,0.0014155819080770016,0.0002165007608709857
1761402289235835100,8.160835205078126,0.0018319295486435294,0.0015488131903111935,0.00023315467115025967
1761402289245916700,8.170916748046874,0.0013656201772391796,0.0015654671005904675,0.0001498851488577202
1761402289255997200,8.1809970703125,0.0016986982664093375,0.0017986217280849814,0.0006661561783403158
1761402289266078200,8.191078125,0.002348200650885701,0.0018818912794813514,0.0009159647743217647
1761402289276160500,8.201160400390625,0.0026979325339198112,0.0018818912794813514,0.0006495022680610418
1761402289286217000,8.211217041015624,0.0022982389200478792,0.0018985451897606254,0.00046630934230051935
1761402289296321800,8.22132177734375,0.0020817380864173174,0.0025647012516856194,-0.0003330780891701579
1761402289306402300,8.23140234375,0.0021316998172551394,0.0015654671005904675,0.0006495022680610418
1761402289316483800,8.24148388671875,0.0019151991000398993,0.0016487365355715156,0.0006328483577817678
1761402289326564400,8.251564453125,0.0020484302658587694,0.0013656201772391796,-0.0002165007608709857
1761402289336646100,8.261646240234375,0.0018319295486435294,0.0008326952229253948,-0.00019984686514362693
1761402289346727400,8.2717275390625,0.0022815850097686052,0.0015321592800319195,0.00003330780964461155
1761402289356827000,8.281826904296874,0.0016154287150129676,0.0015155053697526455,0.0006994639988988638
1761402289366889200,8.29188916015625,0.0015488131903111935,0.0015654671005904675,0.0007327718194574118
1761402289376971000,8.301970947265625,0.0018485834589228034,0.0009992342675104737,0.00046630934230051935
1761402289387024400,8.3120244140625,0.0018985451897606254,0.0009659265051595867,0.0007660796400159597
1761402289397128000,8.3221279296875,0.0014988514594733715,0.002314892830327153,0.0000666156192892231
1761402289407187500,8.3321875,0.0019651607144623995,0.0021316998172551394,0.00018319295486435294
1761402289417268700,8.342268798828124,0.0027145864441990852,0.0019151991000398993,0.0008160413126461208
1761402289427350500,8.3523505859375,0.0026146629825234413,0.0012823506258428097,0.00018319295486435294
1761402289437456400,8.362456298828125,0.002314892830327153,0.0013822740875184536,0.00046630934230051935
1761402289447537200,8.372537109375,0.0024980856105685234,0.0015488131903111935,0.00023315467115025967
1761402289457613800,8.38261376953125,0.0020983919966965914,0.0013989279977977276,0.0010491959983482957
1761402289467699500,8.392699462890626,0.0017819678178057075,0.0019818146247416735,0.00008326952229253948
1761402289477783600,8.402783447265625,0.0016154287150129676,0.0020650841761380434,0.00038303982000797987
1761402289487861800,8.41286181640625,0.002331546740606427,0.0025313934311270714,0.0009659265051595867
1761402289497942500,8.422942626953125,0.0021816615480929613,0.0018818912794813514,0.0006495022680610418
1761402289518100700,8.443100830078125,0.0022316232789307833,0.0011824272805824876,0.0002997702977154404
1761402289528185000,8.45318505859375,0.0017986217280849814,0.0019485069205984473,-0.00019984686514362693
1761402289538266000,8.46326611328125,0.0018652373692020774,0.0019651607144623995,0.00044965543202124536
1761402289548347000,8.473346923828124,0.0022815850097686052,0.0015654671005904675,0.0006161945057101548
1761402289558428000,8.483427978515625,0.0019485069205984473,0.0020817380864173174,0.0005495788645930588
1761402289568510000,8.493510009765625,0.0017986217280849814,0.0014655436389148235,0.0011824272805824876
1761402289578567200,8.503567138671874,0.0020484302658587694,0.0017320060869678855,0.0005828866851516068
1761402289588667400,8.51366748046875,0.0016820443561300635,0.0016154287150129676,0.0005828866851516068
1761402289598752800,8.523752685546874,0.0025147395208477974,0.0016487365355715156,0.00048296325257979333
1761402289608833300,8.533833251953125,0.0021150459069758654,0.0018818912794813514,0.00048296325257979333
1761402289618914300,8.543914306640625,0.0020484302658587694,0.0013489662669599056,0.0007827335502952337
1761402289628996000,8.55399609375,0.0011324655497446656,0.0018985451897606254,0.0005162710440345109
1761402289639077000,8.5640771484375,0.0016653904458507895,0.0014655436389148235,0.0007161179091781378
1761402289649137400,8.574137451171875,0.0019984685350209475,0.0015654671005904675,0.0009659265051595867
1761402289659238400,8.58423828125,0.0020151224453002214,0.0017819678178057075,-0.0002831163874361664
1761402289669295900,8.5942958984375,0.0021650076378136873,0.0018818912794813514,0.0006661561783403158
1761402289679400400,8.604400390625,0.0015155053697526455,0.002464778022840619,0.0005828866851516068
1761402289689481500,8.6144814453125,0.0022316232789307833,0.0016820443561300635,0.0005162710440345109
1761402289699562500,8.6245625,0.0019485069205984473,0.002464778022840619,0.0002831163874361664
1761402289709643500,8.6346435546875,0.0019651607144623995,0.002331546740606427,0.0001498851488577202
1761402289719720700,8.644720703125,0.0021150459069758654,0.0019818146247416735,0.00044965543202124536
1761402289729805600,8.6548056640625,0.0021483537275344133,0.0017320060869678855,0.00039969373028725386
1761402289739886300,8.66488623046875,0.0014155819080770016,0.0015987749211490154,0
1761402289749967600,8.674967529296875,0.0015987749211490154,0.0013489662669599056,0.0011491194600239396
1761402289760048600,8.685048583984376,0.0017819678178057075,0.0016487365355715156,0.0009492725948803127
1761402289770129700,8.695129638671874,0.0018319295486435294,0.0015821210108697414,0.0005329249543137848
1761402289780170500,8.70517041015625,0.0018652373692020774,0.0015155053697526455,0.0006161945057101548
1761402289790292000,8.7152919921875,0.0015987749211490154,0.0020983919966965914,-0.00023315467115025967
1761402289800372700,8.725372802734375,0.0021316998172551394,0.0017986217280849814,0.0008326952229253948
1761402289810453800,8.735453857421875,0.0016986982664093375,0.0017819678178057075,0.0002997702977154404
1761402289820534800,8.74553466796875,0.0019318530103191733,0.0022149693686515093,0.00039969373028725386
1761402289830615800,8.75561572265625,0.0019651607144623995,0.002747894264757633,0.0008660030434839427
1761402289840693200,8.765693359375,0.0011491194600239396,0.0017986217280849814,0.0006161945057101548
1761402289850778000,8.775778076171875,0.0018485834589228034,0.0022815850097686052,0.0003497319994494319
1761402289860859100,8.785859130859375,0.0022316232789307833,0.0018985451897606254,0.0006828100886195898
1761402289870940200,8.795940185546876,0.0020151224453002214,0.0015987749211490154,0.0005662327748723328
1761402289881021000,8.80602099609375,0.0022982389200478792,0.00044965543202124536,0.00003330780964461155
1761402289891102200,8.816102294921874,0.0018485834589228034,0.0015821210108697414,-0.00018319295486435294
1761402289901183000,8.826182861328125,0.0015488131903111935,0.0015987749211490154,0.0005495788645930588
1761402289911260200,8.83626025390625,0.0021483537275344133,0.0012157351011410356,0.0002997702977154404
1761402289921345500,8.846345458984375,0.0022316232789307833,0.0017320060869678855,0.0005495788645930588
1761402289931426300,8.85642626953125,0.002881125546991825,0.0011824272805824876,0.0009825803572311997
1761402289941507600,8.866507568359374,0.0021650076378136873,0.0015321592800319195,0.0004996171337552369
1761402289951588400,8.87658837890625,0.002348200650885701,0.0018818912794813514,0.0010158881777897477
1761402289961662500,8.886662353515625,0.0025647012516856194,0.0019318530103191733,0.0011324655497446656
1761402289971746300,8.896746337890624,0.0019151991000398993,0.0018652373692020774,0.0009492725948803127
1761402289981831200,8.9068310546875,0.0015155053697526455,0.0014155819080770016,0.0007494257297366858
1761402289991912700,8.91691259765625,0.0022316232789307833,0.0014988514594733715,0.00023315467115025967
1761402290001993200,8.9269931640625,0.0016653904458507895,0.0015321592800319195,0.00023315467115025967
1761402290012074500,8.937074462890624,0.0017153521766886115,0.0013989279977977276,-0.00004996171628590673
1761402290022155500,8.947155517578125,0.0022149693686515093,0.0018485834589228034,0.0003663859097287059
1761402290032236800,8.95723681640625,0.0025647012516856194,0.0019151991000398993,0.0003497319994494319
1761402290042313700,8.967313720703125,0.002398162381723523,0.0014655436389148235,0.0003164241788908839
1761402290052398600,8.977398681640626,0.0017653139075264335,0.0013822740875184536,0.00009992343257181346
1761402290062479400,8.987479248046874,0.002364854561164975,0.0017153521766886115,0.0006994639988988638
1761402290072560600,8.997560546875,0.0019818146247416735,0.0012823506258428097,0.0011657733703032136
1761402290082641700,9.0076416015625,0.0012490428052842617,0.0015821210108697414,0.00044965543202124536
1761402290092723000,9.017722900390625,0.0016320826252922416,0.0019651607144623995,0.0005828866851516068
1761402290102761700,9.02776171875,0.0021650076378136873,0.0016820443561300635,0.0007494257297366858
1761402290112884700,9.037884765625,0.0019651607144623995,0.0021150459069758654,0.0005162710440345109
1761402290122965800,9.0479658203125,0.0017153521766886115,0.0015654671005904675,0.0006828100886195898
1761402290133041400,9.05804150390625,0.0017819678178057075,0.0018652373692020774,-0.0000666156192892231
1761402290143153200,9.068153076171875,0.0013156584464013577,0.0015321592800319195,0.0005495788645930588
1761402290163286500,9.08828662109375,0.0017653139075264335,0.0017153521766886115,0.0008160413126461208
1761402290173346000,9.098345947265624,0.0020484302658587694,0.0009992342675104737,0.00008326952229253948
1761402290183452400,9.108452392578124,0.0021483537275344133,0.0014655436389148235,0.00039969373028725386
1761402290193533000,9.118532958984375,0.0018485834589228034,0.002331546740606427,0.0006161945057101548
1761402290203614000,9.128614013671875,0.0022149693686515093,0.0026812786236405373,-0.00011657733557512984
1761402290213695000,9.138695068359375,0.0019984685350209475,0.0014655436389148235,0.0003663859097287059
1761402290223739100,9.1487392578125,0.0022482771892100573,0.0010825038189068437,0.00008326952229253948
1761402290233857800,9.15885791015625,0.0021650076378136873,0.0026479708030819893,0.0002664624771568924
1761402290243902200,9.168902099609374,0.0020484302658587694,0.0019984685350209475,-0.0009326186846010387
1761402290254019300,9.179019287109375,0.0017153521766886115,0.0019485069205984473,0.00044965543202124536
1761402290264100400,9.189100341796875,0.0019984685350209475,0.0015321592800319195,0.0002997702977154404
1761402290274155800,9.19915576171875,0.002381508471444249,0.0018152756383642554,0.0009326186846010387
1761402290284262100,9.20926220703125,0.0022316232789307833,0.0015987749211490154,0.0006161945057101548
1761402290294343400,9.219343505859374,0.002747894264757633,0.0019318530103191733,0.0010158881777897477
1761402290304424400,9.229424560546875,0.0025147395208477974,0.0021483537275344133,0.0002997702977154404
1761402290314505200,9.239505126953125,0.0019818146247416735,0.002348200650885701,0.0006994639988988638
1761402290324586500,9.24958642578125,0.0018652373692020774,0.0014655436389148235,0.0003663859097287059
1761402290334667300,9.259667236328125,0.0021150459069758654,0.0019818146247416735,0.00046630934230051935
1761402290344724000,9.269723876953124,0.0019485069205984473,0.0020817380864173174,0.0008493491332046688
1761402290354829800,9.279829833984374,0.002464778022840619,0.0019318530103191733,0.00048296325257979333
1761402290364885500,9.289885498046875,0.002381508471444249,0.0014821975491940975,0.0007827335502952337
1761402290374991600,9.29999169921875,0.0021983154583722353,0.0019818146247416735,0.0005995405954308808
1761402290385073200,9.3100732421875,0.002331546740606427,0.0022316232789307833,0.0008493491332046688
1761402290395153700,9.320153564453125,0.0020650841761380434,0.0013656201772391796,0.0005329249543137848
1761402290405234700,9.330234619140626,0.0025147395208477974,0.0016487365355715156,0.0004163476114626974
1761402290415315700,9.340315673828124,0.0020484302658587694,0.0012490428052842617,0.00004996171628590673
1761402290425372400,9.350372314453125,0.0018485834589228034,0.0020317763555794954,0.0007161179091781378
1761402290435477800,9.360477783203125,0.0019984685350209475,0.0022149693686515093,0.000016653904822305776
1761402290445559800,9.370559814453125,0.002431470202282071,0.0020983919966965914,0.0002664624771568924
1761402290455639800,9.380639892578126,0.0016320826252922416,0.0016653904458507895,0.0006161945057101548
1761402290465721000,9.39072119140625,0.0018485834589228034,0.0015821210108697414,0.00024980856687761843
1761402290475801900,9.4008017578125,0.0015488131903111935,0.0013822740875184536,0.0006161945057101548
1761402290485883400,9.41088330078125,0.0021483537275344133,0.0012990045361220837,0.0009159647743217647
1761402290495964200,9.420964111328125,0.0022649310994893312,0.0016986982664093375,0.0006828100886195898
1761402290506045000,9.431044921875,0.002381508471444249,0.0014155819080770016,0.0005162710440345109
1761402290516126200,9.441126220703126,0.0019318530103191733,0.0019651607144623995,0.0003164241788908839
1761402290526207200,9.451207275390624,0.0017986217280849814,0.0019818146247416735,0.0009492725948803127
1761402290536269300,9.461269287109374,0.0022149693686515093,0.0019151991000398993,0.0005495788645930588
1761402290546368800,9.47136865234375,0.0018652373692020774,0.0012656967155635357,0.0003164241788908839
1761402290556450000,9.481449951171875,0.0018652373692020774,0.0017819678178057075,0.00009992343257181346
1761402290566531000,9.491531005859375,0.0016653904458507895,0.0014988514594733715,0.0003164241788908839
1761402290576612400,9.5016123046875,0.0014821975491940975,0.0011324655497446656,-0.0001498851488577202
1761402290586682600,9.5116826171875,0.002364854561164975,0.0018652373692020774,0.00003330780964461155
1761402290596774400,9.5217744140625,0.0020484302658587694,0.0013989279977977276,0.0004163476114626974
1761402290606855200,9.531855224609375,0.0026313168928027153,0.002331546740606427,0.00009992343257181346
1761402290616936200,9.541936279296875,0.0022149693686515093,0.0025147395208477974,-0.00016653904458507895
1761402290627014100,9.55201416015625,0.0019651607144623995,0.0014821975491940975,0.0012490428052842617
1761402290637073200,9.5620732421875,0.0016986982664093375,0.0016154287150129676,0.0009825803572311997
1761402290647177700,9.572177734375,0.0013323123566806316,0.0019151991000398993,0
1761402290657259800,9.582259765625,0.0015654671005904675,0.0019984685350209475,-0.000016653904822305776
1761402290667341300,9.59234130859375,0.0017653139075264335,0.0013822740875184536,0.0005329249543137848
1761402290677419000,9.6024189453125,0.0018152756383642554,0.0017819678178057075,0.0003164241788908839
1761402290687483600,9.612483642578125,0.0019318530103191733,0.0017986217280849814,0.00046630934230051935
1761402290697571600,9.622571533203125,0.0020650841761380434,0.0008660030434839427,0.0008493491332046688
1761402290707665400,9.63266552734375,0.0014821975491940975,0.0016653904458507895,0.0002997702977154404
1761402290717746700,9.64274658203125,0.0016986982664093375,0.002348200650885701,0.0004163476114626974
1761402290727827500,9.652827392578125,0.0018485834589228034,0.0018652373692020774,0.0005828866851516068
1761402290737905000,9.66290478515625,0.0014988514594733715,0.0011990811908617616,0.0009659265051595867
1761402290747989500,9.672989501953126,0.0019485069205984473,0.0017819678178057075,0.0010825038189068437
1761402290758070800,9.68307080078125,0.0019485069205984473,0.0017986217280849814,0.0013822740875184536
1761402290768151800,9.69315185546875,0.0020317763555794954,0.0014655436389148235,0.0006661561783403158
1761402290778233000,9.703233154296875,0.002431470202282071,0.0020817380864173174,0.00044965543202124536
1761402290788313900,9.71331396484375,0.0016487365355715156,0.002448124112561345,0.0005495788645930588
1761402290798391300,9.723391357421875,0.0020983919966965914,0.0016653904458507895,0.0004163476114626974
1761402290808476200,9.73347607421875,0.0021650076378136873,0.002448124112561345,-0.0001498851488577202
1761402290818557000,9.743556884765624,0.0025647012516856194,0.0014488897286355495,0.0008493491332046688
1761402290828632600,9.753632568359375,0.002431470202282071,0.0016154287150129676,0.00039969373028725386
1761402290838719000,9.763718994140625,0.0020151224453002214,0.0011990811908617616,0.0002664624771568924
1761402290848800500,9.773800537109375,0.0018319295486435294,0.0013656201772391796,0.00046630934230051935
1761402290858856000,9.78385595703125,0.0010991577291861176,0.0012157351011410356,0.0006994639988988638
1761402290868959700,9.793959716796875,0.0017486599972471595,0.0025147395208477974,0.0008660030434839427
1761402290879043000,9.80404296875,0.0018152756383642554,0.0022649310994893312,-0.0002165007608709857
1761402290889133000,9.814133056640625,0.0018319295486435294,0.0015488131903111935,0.0002831163874361664
1761402290899205400,9.824205322265625,0.0015987749211490154,0.0010325420880690217,0.00008326952229253948
1761402290909286700,9.83428662109375,0.0015321592800319195,0.0011990811908617616,-0.0002997702977154404
1761402290919367200,9.8443671875,0.0018818912794813514,0.0012157351011410356,-0.00018319295486435294
1761402290929444900,9.85444482421875,0.0018818912794813514,0.002398162381723523,0.0005162710440345109
1761402290939529200,9.864529296875,0.0018485834589228034,0.0016986982664093375,0.0010825038189068437
1761402290949610200,9.8746103515625,0.0021316998172551394,0.0021816615480929613,0.0000666156192892231
1761402290959691300,9.884691162109375,0.0021650076378136873,0.0013989279977977276,-0.0003497319994494319
1761402290969747500,9.89474755859375,0.0018985451897606254,0.0016986982664093375,-0.00018319295486435294
1761402290979853300,9.904853271484376,0.0015155053697526455,0.0010325420880690217,0.0009659265051595867
1761402290989934600,9.9149345703125,0.002331546740606427,0.0017486599972471595,0.0006161945057101548
1761402291000007000,9.9250068359375,0.0017153521766886115,0.0012157351011410356,0.00018319295486435294
1761402291010096400,9.935096435546875,0.002431470202282071,0.0013822740875184536,-0.00004996171628590673
1761402291020177700,9.945177734375,0.0020983919966965914,0.0020817380864173174,0
1761402291030258700,9.9552587890625,0.0019984685350209475,0.0013989279977977276,0
1761402291040339500,9.96533935546875,0.0017153521766886115,0.0017320060869678855,0.0006328483577817678
1761402291050420500,9.97542041015625,0.0017153521766886115,0.0017986217280849814,0.0010158881777897477
1761402291060477000,9.985476806640625,0.0013156584464013577,0.0020650841761380434,0.0011491194600239396
1761402291070582800,9.995582763671875,0.0016820443561300635,0.0020650841761380434,0.0007494257297366858
1761402291080663800,10.005663818359375,0.0011324655497446656,0.0020817380864173174,0.00003330780964461155
1761402291090744800,10.015744873046875,0.0022149693686515093,0.0020484302658587694,0.0005162710440345109
1761402291100826000,10.025826171875,0.0018985451897606254,0.0020484302658587694,0.0006661561783403158
1761402291110907000,10.035906982421874,0.002314892830327153,0.0015155053697526455,0.0000666156192892231
1761402291120983800,10.04598388671875,0.0018152756383642554,0.0020817380864173174,0.0006328483577817678
1761402291131068700,10.056068603515625,0.0025813551619648933,0.0015321592800319195,0.0003497319994494319
1761402291141150000,10.06614990234375,0.0020484302658587694,0.0012823506258428097,0.00018319295486435294
1761402291151231200,10.076231201171876,0.0020983919966965914,0.0013822740875184536,0.0009326186846010387
1761402291161312000,10.08631201171875,0.002448124112561345,0.0012490428052842617,0.0001498851488577202
1761402291171393000,10.09639306640625,0.002381508471444249,0.0012990045361220837,0.00044965543202124536
1761402291181474000,10.10647412109375,0.0017486599972471595,0.0014821975491940975,0.00019984686514362693
1761402291191551200,10.11655126953125,0.0018485834589228034,0.0017653139075264335,-0.00018319295486435294
1761402291201636400,10.12663623046875,0.0019485069205984473,0.0010491959983482957,0.000016653904822305776
1761402291211717400,10.13671728515625,0.0025813551619648933,0.0015987749211490154,-0.00009992343257181346
1761402291221798100,10.146798095703126,0.0017153521766886115,0.0015821210108697414,-0.0000666156192892231
1761402291231879200,10.156879150390624,0.0022815850097686052,0.0017153521766886115,0.0005162710440345109
1761402291241960200,10.166960205078125,0.0018652373692020774,0.0018319295486435294,0.00044965543202124536
1761402291252037000,10.177037109375,0.0019485069205984473,0.0020817380864173174,0.00004996171628590673
1761402291272203300,10.197203369140626,0.0012823506258428097,0.0019818146247416735,0.0003663859097287059
1761402291282284300,10.2072841796875,0.0020151224453002214,0.0017653139075264335,0.0006161945057101548
1761402291292365300,10.217365234375,0.0018985451897606254,0.0027145864441990852,0.00011657733557512984
1761402291302446600,10.227446533203125,0.0019485069205984473,0.0021316998172551394,0.0002165007608709857
1761402291312527600,10.237527587890625,0.0015821210108697414,0.0019485069205984473,0.00011657733557512984
1761402291322604000,10.24760400390625,0.0020317763555794954,0.0021816615480929613,0.0004330015217419714
1761402291332689400,10.257689453125,0.0021983154583722353,0.0022982389200478792,0.00003330780964461155
1761402291342741800,10.26774169921875,0.0018985451897606254,0.0015155053697526455,0.0006495022680610418
1761402291352826400,10.277826416015625,0.0014155819080770016,0.0005995405954308808,0.0002997702977154404
1761402291362933000,10.28793310546875,0.0022482771892100573,0.0011324655497446656,0.0012157351011410356
1761402291373013500,10.298013427734375,0.0017486599972471595,0.0015987749211490154,0.0003663859097287059
1761402291383086600,10.308086669921876,0.0016487365355715156,0.0017486599972471595,0.0007494257297366858
1761402291393175600,10.318175537109376,0.0014488897286355495,0.0017320060869678855,0.0006495022680610418
1761402291403256800,10.3282568359375,0.0013323123566806316,0.0011158116394653916,0.0004996171337552369
1761402291413337900,10.338337890625,0.0013156584464013577,0.0012323890114203095,-0.0000666156192892231
1761402291423418600,10.348418701171875,0.0015654671005904675,0.0018818912794813514,-0.000016653904822305776
1761402291433499600,10.358499755859375,0.0019818146247416735,0.0015321592800319195,0.0008993108640424907
1761402291443581700,10.368581787109376,0.0022149693686515093,0.0015321592800319195,0.00003330780964461155
1761402291453661700,10.37866162109375,0.0021650076378136873,0.0016820443561300635,0.00024980856687761843
1761402291463710200,10.388710205078125,0.0021816615480929613,0.0016320826252922416,0.0004996171337552369
1761402291473824000,10.398823974609375,0.0019318530103191733,0.0011657733703032136,0.0010658499086275697
1761402291483905000,10.408905029296875,0.0015321592800319195,0.0019984685350209475,-0.00019984686514362693
1761402291493985800,10.41898583984375,0.0019984685350209475,0.0017153521766886115,0.00003330780964461155
1761402291504067000,10.429067138671876,0.0020817380864173174,0.0011657733703032136,-0.00009992343257181346
1761402291514148000,10.439148193359374,0.0026979325339198112,0.0011990811908617616,0.0005162710440345109
1761402291524228900,10.449228759765624,0.0013656201772391796,0.0017153521766886115,0.00044965543202124536
1761402291534310000,10.459309814453125,0.0014988514594733715,0.0014488897286355495,0.000016653904822305776
1761402291544391000,10.469390869140625,0.0022649310994893312,0.0014655436389148235,0.0003497319994494319
1761402291554472200,10.47947216796875,0.0019818146247416735,0.0017819678178057075,0.0003330780891701579
1761402291564553000,10.489552978515626,0.0017819678178057075,0.002414816292002797,0.0006161945057101548
1761402291574634800,10.499634765625,0.002431470202282071,0.0017486599972471595,0.00018319295486435294
1761402291584715300,10.50971533203125,0.0015821210108697414,0.0008326952229253948,0.0007993874605745077
1761402291594796300,10.51979638671875,0.0014322358183562756,0.0002165007608709857,-0.000016653904822305776
1761402291604877600,10.529877685546875,0.0014655436389148235,0.0014988514594733715,0.00046630934230051935
1761402291614958300,10.539958251953125,0.0013323123566806316,0.0015155053697526455,0.0009659265051595867
1761402291625039400,10.550039306640626,0.0017653139075264335,0.0014322358183562756,0.0004996171337552369
1761402291635120400,10.560120361328124,0.0016820443561300635,0.0015654671005904675,-0.00004996171628590673
1761402291645176000,10.570176025390625,0.0018818912794813514,0.0014988514594733715,-0.0003663859097287059
1761402291655257000,10.580257080078125,0.0025147395208477974,0.0018485834589228034,0.000016653904822305776
1761402291665363700,10.59036376953125,0.0014155819080770016,0.0010991577291861176,0.0004330015217419714
1761402291675444500,10.600444580078126,0.0015821210108697414,0.0016653904458507895,0.0006328483577817678
1761402291685525500,10.610525390625,0.0020151224453002214,0.0018985451897606254,-0.00044965543202124536
1761402291695606500,10.6206064453125,0.0016154287150129676,0.0016487365355715156,0.0002165007608709857
1761402291705688300,10.630688232421875,0.0017153521766886115,0.0017819678178057075,0.0006161945057101548
1761402291715768600,10.6407685546875,0.0022149693686515093,0.0014821975491940975,0.0003497319994494319
1761402291725849600,10.650849609375,0.0025980090722441673,0.0009326186846010387,0.0004330015217419714
1761402291735905500,10.660905517578126,0.0022149693686515093,0.0015488131903111935,0.00024980856687761843
1761402291746012000,10.671011962890624,0.0018319295486435294,0.0021816615480929613,0.0001332312385784462
1761402291756093000,10.681093017578124,0.0019651607144623995,0.0017320060869678855,0.00011657733557512984
1761402291766154800,10.69115478515625,0.0020650841761380434,0.0022815850097686052,-0.00018319295486435294
1761402291776254700,10.701254638671875,0.0024980856105685234,0.0021483537275344133,0.0002165007608709857
1761402291786336000,10.7113359375,0.0021483537275344133,0.002348200650885701,0.00008326952229253948
1761402291796416800,10.721416748046876,0.0018652373692020774,0.0012990045361220837,0.0011158116394653916
1761402291806497800,10.731497802734374,0.0013989279977977276,0.0015654671005904675,0.0005329249543137848
1761402291816578800,10.741578857421874,0.0017320060869678855,0.0018485834589228034,0.0000666156192892231
1761402291826660000,10.75166015625,0.0018152756383642554,0.0018319295486435294,0.0002997702977154404
1761402291836740900,10.761740966796875,0.0018652373692020774,0.0022316232789307833,0.0006994639988988638
1761402291846822700,10.77182275390625,0.002398162381723523,0.0014488897286355495,0.0004163476114626974
1761402291856903400,10.7819033203125,0.0022149693686515093,0.0013822740875184536,-0.000016653904822305776
1761402291877061000,10.80206103515625,0.0021150459069758654,0.0014655436389148235,0.0003497319994494319
1761402291887142700,10.812142578125,0.002431470202282071,0.0016653904458507895,-0.000016653904822305776
1761402291897225200,10.82222509765625,0.0022815850097686052,0.0015821210108697414,-0.0002664624771568924
1761402291907308000,10.83230810546875,0.0012823506258428097,0.0020817380864173174,0.0006328483577817678
1761402291917363700,10.84236376953125,0.0019984685350209475,0.0019984685350209475,0.00023315467115025967
1761402291927470300,10.85247021484375,0.0014988514594733715,0.002448124112561345,0.0005828866851516068
1761402291937551000,10.862551025390625,0.0022982389200478792,0.0012323890114203095,0.0009492725948803127
1761402291947607000,10.87260693359375,0.0015987749211490154,0.0010825038189068437,0.0007993874605745077
1761402291957709600,10.88270947265625,0.0021816615480929613,0.0020317763555794954,0.0006994639988988638
1761402291967794200,10.892794189453125,0.0021316998172551394,0.0017486599972471595,-0.00016653904458507895
1761402291977875500,10.90287548828125,0.0018985451897606254,0.0019818146247416735,0.00018319295486435294
1761402291987956500,10.91295654296875,0.0021983154583722353,0.0014322358183562756,0.00009992343257181346
1761402291998037500,10.92303759765625,0.0021816615480929613,0.0018485834589228034,0.0002165007608709857
1761402292008118800,10.933118896484375,0.002398162381723523,0.0015654671005904675,0.0001498851488577202
1761402292018195500,10.943195556640624,0.0021650076378136873,0.0013489662669599056,0.0009825803572311997
1761402292038338600,10.963338623046875,0.0019984685350209475,0.0021316998172551394,0.0008326952229253948
1761402292048442400,10.9734423828125,0.0015987749211490154,0.0015321592800319195,0.00019984686514362693
1761402292058499300,10.983499267578125,0.0009159647743217647,0.0014988514594733715,0.0007327718194574118
1761402292068604700,10.993604736328125,0.0021816615480929613,0.0014655436389148235,-0.0000666156192892231
1761402292078681300,11.003681396484374,0.0018652373692020774,0.0018152756383642554,0.000016653904822305776
1761402292088767000,11.01376708984375,0.0021983154583722353,0.0008160413126461208,0.00016653904458507895
1761402292098847700,11.02384765625,0.0020817380864173174,0.0016154287150129676,0.0010491959983482957
1761402292108929000,11.033928955078125,0.0020650841761380434,0.0011324655497446656,0.00046630934230051935
1761402292119009500,11.044009521484375,0.0015821210108697414,0.0012490428052842617,0.00048296325257979333
1761402292129090800,11.0540908203125,0.002847817726433277,0.0009326186846010387,0.0005995405954308808
1761402292139172000,11.064172119140625,0.0012490428052842617,0.0015488131903111935,0.0006828100886195898
1761402292149249300,11.074249267578125,0.0019651607144623995,0.0015821210108697414,0.00023315467115025967
1761402292159334100,11.084334228515624,0.0019651607144623995,0.0012990045361220837,-0.0002664624771568924
1761402292169413000,11.0944130859375,0.0019485069205984473,0.0013489662669599056,0.00004996171628590673
1761402292179496000,11.104495849609375,0.0022982389200478792,0.0019818146247416735,0.0001332312385784462
1761402292189577200,11.1145771484375,0.0018985451897606254,0.0016154287150129676,0.0000666156192892231
1761402292199658500,11.124658447265626,0.0021983154583722353,0.0016487365355715156,0.0003330780891701579
1761402292209735400,11.1347353515625,0.0015987749211490154,0.0016487365355715156,0.0012490428052842617
1761402292219820000,11.144820068359374,0.0020817380864173174,0.0020650841761380434,-0.0002165007608709857
1761402292229901000,11.154901123046875,0.0025647012516856194,0.0009492725948803127,0.00046630934230051935
1761402292250041600,11.17504150390625,0.0014488897286355495,0.0013989279977977276,0.00038303982000797987
1761402292260145000,11.185144775390626,0.0021650076378136873,0.0017653139075264335,0.0011324655497446656
1761402292270225400,11.195225341796874,0.0017153521766886115,0.0016986982664093375,0.0005329249543137848
1761402292280301800,11.2053017578125,0.0017153521766886115,0.0018152756383642554,0.0000666156192892231
1761402292290387700,11.2153876953125,0.0020317763555794954,0.0013156584464013577,0.0010825038189068437
1761402292300468200,11.22546826171875,0.0019651607144623995,0.0017153521766886115,0.0002997702977154404
1761402292310524200,11.235524169921876,0.0018818912794813514,0.002381508471444249,-0.000016653904822305776
1761402292320630300,11.24563037109375,0.002314892830327153,0.002364854561164975,-0.0003330780891701579
1761402292330711300,11.255711181640624,0.0021816615480929613,0.0018818912794813514,0.00018319295486435294
1761402292340788500,11.26578857421875,0.0022482771892100573,0.0021150459069758654,0.00016653904458507895
1761402292350873300,11.275873291015625,0.0016320826252922416,0.0012656967155635357,-0.00016653904458507895
1761402292360954600,11.28595458984375,0.0022316232789307833,0.0018652373692020774,0.0005995405954308808
1761402292371035400,11.296035400390625,0.0016986982664093375,0.0014821975491940975,0.00003330780964461155
1761402292381116400,11.306116455078126,0.0015821210108697414,0.0018319295486435294,0.00018319295486435294
1761402292391197700,11.31619775390625,0.0020151224453002214,0.0012990045361220837,0.0001498851488577202
1761402292401274400,11.3262744140625,0.0021816615480929613,0.0016487365355715156,-0.000016653904822305776
1761402292411359500,11.336359375,0.0016653904458507895,0.0021816615480929613,0.0006828100886195898
1761402292421440500,11.3464404296875,0.0021816615480929613,0.002381508471444249,0.0008993108640424907
1761402292431521500,11.356521484375,0.0021483537275344133,0.0017320060869678855,0.0003663859097287059
1761402292441578000,11.366577880859374,0.0022815850097686052,0.0010658499086275697,0.00039969373028725386
1761402292451683800,11.376683837890624,0.0020983919966965914,0.0008160413126461208,0.0000666156192892231
1761402292461764900,11.386764892578125,0.0018985451897606254,0.0008660030434839427,0.00046630934230051935
1761402292471841500,11.396841552734376,0.0016487365355715156,0.0009659265051595867,0.0004330015217419714
1761402292481927000,11.406927001953125,0.0014821975491940975,0.0017153521766886115,0.0003164241788908839
1761402292492008000,11.417008056640626,0.0015654671005904675,0.0011657733703032136,-0.00016653904458507895
1761402292502089000,11.4270888671875,0.0022482771892100573,0.0015488131903111935,0.00016653904458507895
1761402292512170000,11.437169921875,0.0014655436389148235,0.0019984685350209475,0.00023315467115025967
1761402292522250800,11.447250732421875,0.0018985451897606254,0.0011657733703032136,0.0003497319994494319
1761402292532328400,11.457328369140624,0.0024980856105685234,0.0012157351011410356,0.0006328483577817678
1761402292542413000,11.4674130859375,0.002314892830327153,0.0013656201772391796,-0.0001498851488577202
1761402292552494000,11.477494140625,0.0021483537275344133,0.0025813551619648933,-0.0002664624771568924
1761402292562575000,11.4875751953125,0.0019485069205984473,0.0018818912794813514,0.0003164241788908839
1761402292572656000,11.49765625,0.0025313934311270714,0.0017653139075264335,0.0005828866851516068
1761402292592818400,11.517818359375,0.0015987749211490154,0.0022316232789307833,0.0003164241788908839
1761402292602876400,11.52787646484375,0.0019818146247416735,0.0019818146247416735,-0.00023315467115025967
1761402292612973600,11.5379736328125,0.0018319295486435294,0.0021316998172551394,0.00044965543202124536
1761402292623061200,11.548061279296874,0.0020983919966965914,0.002914433367550373,-0.00018319295486435294
1761402292633136400,11.558136474609375,0.0016320826252922416,0.0019984685350209475,0.0000666156192892231
1761402292643224000,11.56822412109375,0.0018319295486435294,0.0016320826252922416,0.00044965543202124536
1761402292653304600,11.5783046875,0.0015155053697526455,0.0014821975491940975,0.0010658499086275697
1761402292663365600,11.58836572265625,0.0014488897286355495,0.0020817380864173174,0.0002831163874361664
1761402292673466400,11.59846630859375,0.0012490428052842617,0.0020817380864173174,0.00011657733557512984
1761402292683547400,11.60854736328125,0.0016820443561300635,0.002381508471444249,-0.00039969373028725386
1761402292693629400,11.61862939453125,0.0013323123566806316,0.0019818146247416735,0.00016653904458507895
1761402292703710200,11.628710205078125,0.0021483537275344133,0.0019318530103191733,-0.00008326952229253948
1761402292713791200,11.638791259765625,0.0017653139075264335,0.0016986982664093375,0.00016653904458507895
1761402292723872000,11.6488720703125,0.0014655436389148235,0.0017320060869678855,0.0006661561783403158
1761402292733919500,11.65891943359375,0.0016653904458507895,0.0017320060869678855,0.0007494257297366858
1761402292744034600,11.66903466796875,0.0019485069205984473,0.0015321592800319195,0.0002165007608709857
1761402292754114600,11.679114501953125,0.0018485834589228034,0.0012157351011410356,0.0002664624771568924
1761402292764169000,11.6891689453125,0.0011824272805824876,0.0014655436389148235,0.0007327718194574118
1761402292784350000,11.709349853515626,0.0020650841761380434,0.0021983154583722353,0.0004996171337552369
1761402292794439400,11.719439453125,0.0022316232789307833,0.0016986982664093375,0.0003330780891701579
1761402292804492800,11.729492919921874,0.0022482771892100573,0.0012490428052842617,0.0005662327748723328
1761402292814601200,11.739601318359375,0.002464778022840619,0.0017486599972471595,0.0006994639988988638
1761402292824681700,11.749681640625,0.0020151224453002214,0.0008160413126461208,-0.00019984686514362693
1761402292834731000,11.75973095703125,0.0022482771892100573,0.0014488897286355495,0.0006661561783403158
1761402292844819000,11.76981884765625,0.0018485834589228034,0.0019318530103191733,0.0008993108640424907
1761402292854925300,11.77992529296875,0.0022149693686515093,0.0010158881777897477,0.0005162710440345109
1761402292865006300,11.79000634765625,0.0019651607144623995,0.0012323890114203095,0.0011657733703032136
1761402292875087000,11.800087158203125,0.0016986982664093375,0.0017153521766886115,-0.00018319295486435294
1761402292885168000,11.810168212890625,0.0022815850097686052,0.0018319295486435294,-0.0002831163874361664
1761402292895249400,11.82024951171875,0.0018152756383642554,0.0020817380864173174,0.0011990811908617616
1761402292905304600,11.8303046875,0.0021983154583722353,0.0017320060869678855,0.0010325420880690217
1761402292915411200,11.8404111328125,0.0022649310994893312,0.0016154287150129676,0.0006661561783403158
1761402292925451300,11.850451171875,0.0019818146247416735,0.0017986217280849814,0.0002664624771568924
1761402292935573200,11.8605732421875,0.0011990811908617616,0.0014155819080770016,-0.00016653904458507895
1761402292945658400,11.870658447265624,0.0017819678178057075,0.0016986982664093375,0.0002997702977154404
1761402292955735000,11.880735107421875,0.0019651607144623995,0.0021983154583722353,0.0000666156192892231
1761402292975897000,11.90089697265625,0.0019485069205984473,0.0021816615480929613,0.0002831163874361664
1761402292985978600,11.910978515625,0.0016154287150129676,0.0016154287150129676,0.0003164241788908839
1761402292996059400,11.921059326171875,0.0019818146247416735,0.0015155053697526455,0.00009992343257181346
1761402293006140400,11.931140380859375,0.0014988514594733715,0.002331546740606427,0.0006828100886195898
1761402293016221200,11.94122119140625,0.0018485834589228034,0.0019818146247416735,0.0009992342675104737
1761402293026302500,11.951302490234376,0.0017320060869678855,0.0016320826252922416,0.0008993108640424907
1761402293036383500,11.961383544921874,0.0015654671005904675,0.0010991577291861176,0.0006328483577817678
