time,seconds_elapsed,z,y,x
1761315414757704400,0.245704345703125,-0.0064258575439453125,0.011030197143554688,0.027410030364990234
1761315414776626200,0.264626220703125,-0.0010797977447509766,0.023476600646972656,0.0182192325592041
1761315414795548200,0.283548095703125,0.029868602752685547,0.03211688995361328,-0.016490697860717773
1761315414814470000,0.302469970703125,0.018564224243164062,0.001033782958984375,-0.004939079284667969
1761315414833391900,0.321391845703125,0.035428524017333984,0.01274871826171875,0.015360116958618164
1761315414852313600,0.340313720703125,0.01832866668701172,-0.00043392181396484375,0.002878904342651367
1761315414871235600,0.359235595703125,-0.002624988555908203,0.00043964385986328125,-0.03203392028808594
1761315414890157300,0.3781572265625,-0.0022971630096435547,0.0032529830932617188,-0.035152435302734375
1761315414909079300,0.397079345703125,0.0004966259002685547,-0.019440650939941406,-0.004510402679443359
1761315414928001000,0.4160009765625,0.017964601516723633,-0.011372566223144531,0.03632640838623047
1761315414956383700,0.4443837890625,-0.011913776397705078,-0.0076656341552734375,-0.012404680252075195
1761315414975305700,0.4633056640625,-0.010374069213867188,0.035981178283691406,-0.027378320693969727
1761315414994227500,0.4822275390625,-0.005964517593383789,0.013245582580566406,-0.017000913619995117
1761315415013149400,0.5011494140625,-0.008726119995117188,0.0020837783813476562,0.006717205047607422
1761315415032071200,0.5200712890625,0.01132345199584961,-0.02464008331298828,0.015003442764282227
1761315415050993200,0.5389931640625,0.00494837760925293,-0.032280921936035156,0.027582406997680664
1761315415069915000,0.557914794921875,0.008008718490600586,-0.01863861083984375,0.025565147399902344
1761315415088836900,0.5768369140625,-0.003216981887817383,-0.03808307647705078,0.035614728927612305
1761315415107758600,0.595758544921875,0.0012066364288330078,-0.03598594665527344,0.05233168601989746
1761315415126680600,0.6146806640625,-0.008630752563476562,-0.05349540710449219,0.03409266471862793
1761315415145602300,0.633602294921875,-0.029903173446655273,-0.021071434020996094,0.037492990493774414
1761315415164524300,0.652524169921875,-0.03370094299316406,-0.01810741424560547,0.036309242248535156
1761315415183446000,0.671446044921875,-0.016089439392089844,-0.00543212890625,0.029891014099121094
1761315415202368000,0.690367919921875,-0.02440357208251953,-0.005444526672363281,-0.0001881122589111328
1761315415221289700,0.709289794921875,-0.019776344299316406,0.025734901428222656,-0.03181767463684082
1761315415240211700,0.728211669921875,-0.03468751907348633,-0.023270606994628906,-0.006205320358276367
1761315415259133400,0.747133544921875,-0.018413305282592773,-0.024443626403808594,0.02107715606689453
1761315415278055400,0.766055419921875,-0.009729623794555664,0.0004405975341796875,0.007364034652709961
1761315415296977200,0.78497705078125,-0.010216712951660156,0.02456951141357422,-0.010120391845703125
1761315415315899100,0.803899169921875,-0.01589059829711914,0.0033283233642578125,-0.006064176559448242
1761315415334820900,0.82282080078125,0.010918855667114258,0.010993003845214844,-0.016230344772338867
1761315415353742800,0.841742919921875,-0.0004932880401611328,-0.03538799285888672,-0.007657527923583984
1761315415372664600,0.86066455078125,-0.037248849868774414,-0.0031633377075195312,-0.041339874267578125
1761315415391586600,0.879586669921875,-0.007761240005493164,-0.009761810302734375,0.0075397491455078125
1761315415410508300,0.89850830078125,-0.015796899795532227,0.000377655029296875,-0.012013673782348633
1761315415429430300,0.91743017578125,-0.007379770278930664,-0.024908065795898438,0.029921293258666992
1761315415448352000,0.93635205078125,-0.0020482540130615234,-0.03759193420410156,0.06616520881652832
1761315415467274000,0.95527392578125,-0.022876739501953125,-0.01729869842529297,0.05424094200134277
1761315415486195700,0.97419580078125,-0.04086565971374512,-0.008951187133789062,0.026053428649902344
1761315415505117700,0.99311767578125,-0.01772475242614746,-0.01726818084716797,0.01271510124206543
1761315415524039400,1.012039306640625,-0.006742000579833984,-0.004223823547363281,0.02534627914428711
1761315415542961400,1.03096142578125,-0.019654512405395508,0.010744094848632812,0.023849964141845703
1761315415561883100,1.049883056640625,-0.006894350051879883,-0.005213737487792969,0.027601242065429688
1761315415580805000,1.06880517578125,-0.008834362030029297,-0.025589942932128906,0.051980018615722656
1761315415599726800,1.087726806640625,-0.003973245620727539,-0.01996326446533203,0.03316950798034668
1761315415618648800,1.10664892578125,-0.011174678802490234,0.011722564697265625,0.012583494186401367
1761315415637567000,1.12556689453125,-0.008039712905883789,-0.0069427490234375,0.011425018310546875
1761315415656489000,1.144489013671875,-0.0025472640991210938,0.019425392150878906,0.022397518157958984
1761315415675410700,1.16341064453125,-0.015808820724487305,0.0006504058837890625,0.028464794158935547
1761315415694332700,1.182332763671875,0.009099245071411133,0.010150909423828125,0.02799057960510254
1761315415713254400,1.20125439453125,0.021333694458007812,-0.0321044921875,0.04339027404785156
1761315415732176400,1.22017626953125,-0.002178668975830078,-0.019441604614257812,0.009283781051635742
1761315415751098000,1.23909814453125,-0.0043218135833740234,-0.05594635009765625,0.02283310890197754
1761315415770020000,1.25802001953125,-0.00609588623046875,-0.016836166381835938,0.0195767879486084
1761315415788941800,1.27694189453125,-0.000377655029296875,0.005404472351074219,0.013495206832885742
1761315415807863800,1.29586376953125,0.016498804092407227,0.010916709899902344,-0.013981819152832031
1761315415826785800,1.314785888671875,-0.0018172264099121094,0.03234100341796875,-0.09199833869934082
1761315415845707500,1.33370751953125,0.0063686370849609375,0.01737689971923828,-0.05463433265686035
1761315415864629200,1.352629150390625,0.011628866195678711,-0.025102615356445312,0.010046005249023438
1761315415883551200,1.37155126953125,0.020713090896606445,-0.007744789123535156,0.023650646209716797
1761315415902473200,1.39047314453125,0.0245816707611084,-0.02142047882080078,-0.0006260871887207031
1761315415921395000,1.40939501953125,-0.004502773284912109,-0.025411605834960938,0.03442883491516113
1761315415940317000,1.42831689453125,-0.016492128372192383,-0.03411579132080078,0.011877298355102539
1761315415959238700,1.44723876953125,-0.011708498001098633,-0.0024213790893554688,0.006317853927612305
1761315415978160600,1.46616064453125,-0.01786065101623535,0.01904582977294922,-0.0014078617095947266
1761315415997082400,1.485082275390625,-0.05658149719238281,0.03500556945800781,-0.022763967514038086
1761315416016004400,1.50400439453125,-0.01632547378540039,-0.00791168212890625,-0.012917518615722656
1761315416034926000,1.522926025390625,-0.010255575180053711,-0.018991470336914062,-0.0014386177062988281
1761315416053848000,1.54184814453125,-0.0022482872009277344,-0.015740394592285156,0.0076520442962646484
1761315416072769800,1.560769775390625,0.007457733154296875,-0.019947052001953125,0.014305353164672852
1761315416091691800,1.57969189453125,-0.030311107635498047,-0.010258674621582031,0.006487607955932617
1761315416110613500,1.598613525390625,-0.027647733688354492,-0.01687335968017578,0.004477739334106445
1761315416129535500,1.617535400390625,-0.013472557067871094,-0.00691986083984375,0.016718149185180664
1761315416148457200,1.636457275390625,0.016976594924926758,-0.030409812927246094,0.04230213165283203
1761315416167379200,1.655379150390625,-0.054752349853515625,-0.027794837951660156,0.03669905662536621
1761315416186301000,1.674301025390625,-0.045720815658569336,-0.03727531433105469,0.019611597061157227
1761315416205223000,1.693222900390625,-0.057569265365600586,0.007769584655761719,0.04273796081542969
1761315416224145000,1.712144775390625,-0.028920650482177734,0.0047740936279296875,-0.005242586135864258
1761315416243066600,1.731066650390625,-0.023756980895996094,-0.014532089233398438,-0.009482383728027344
1761315416261988600,1.749988525390625,-0.02551865577697754,-0.00083160400390625,0.02917170524597168
1761315416280910300,1.768910400390625,-0.012951850891113281,-0.05283641815185547,0.03361010551452637
1761315416299832300,1.787832275390625,0.0017101764678955078,0.0024852752685546875,0.02764296531677246
1761315416318754000,1.806754150390625,0.0072901248931884766,0.04255199432373047,-0.043707847595214844
1761315416337676000,1.825676025390625,0.008282184600830078,0.02977275848388672,-0.026227474212646484
1761315416356597800,1.84459765625,0.046469926834106445,-0.00577545166015625,0.000033855438232421875
1761315416375519700,1.863519775390625,0.0621035099029541,-0.007584571838378906,0.02346968650817871
1761315416394441700,1.882441650390625,0.03886103630065918,-0.021256446838378906,0.02289557456970215
1761315416413363500,1.901363525390625,0.032401084899902344,-0.009186744689941406,-0.01936483383178711
1761315416432285400,1.920285400390625,0.028652667999267578,-0.0026531219482421875,-0.018089771270751953
1761315416451207200,1.939207275390625,0.03417253494262695,0.005863189697265625,0.008805990219116211
1761315416470129200,1.958129150390625,0.0486295223236084,0.009914398193359375,0.01612091064453125
1761315416489051000,1.97705078125,0.011498451232910156,0.03257942199707031,0.01634383201599121
1761315416507972900,1.995972900390625,-0.0007021427154541016,0.029112815856933594,-0.0023696422576904297
1761315416526894800,2.014894775390625,-0.012082576751708984,0.03735923767089844,-0.020682096481323242
1761315416545816600,2.033816650390625,0.0029573440551757812,0.04110145568847656,-0.024410009384155273
1761315416564738600,2.052738525390625,0.026843547821044922,0.005455970764160156,-0.019089937210083008
1761315416583660300,2.071660400390625,0.0056688785552978516,0.02188396453857422,-0.009270906448364258
1761315416602582300,2.090582275390625,-0.02269124984741211,-0.011446952819824219,-0.006236076354980469
1761315416621504000,2.10950390625,-0.0035200119018554688,-0.03471183776855469,0.04123044013977051
1761315416640426000,2.128426025390625,-0.006258964538574219,-0.00574493408203125,0.03814339637756348
1761315416659348000,2.147347900390625,-0.003946542739868164,0.007994651794433594,0.014125347137451172
1761315416678269700,2.166269775390625,-0.010875463485717773,-0.006432533264160156,0.014121055603027344
1761315416697191700,2.185191650390625,-0.005639076232910156,0.021963119506835938,-0.021159648895263672
1761315416716113400,2.204113525390625,0.006852865219116211,0.009852409362792969,-0.011248588562011719
1761315416735035400,2.223035400390625,-0.00903940200805664,0.014383316040039062,-0.030268430709838867
1761315416753957000,2.24195703125,-0.0009996891021728516,0.03754234313964844,-0.08788657188415527
1761315416772879000,2.260879150390625,-0.0026199817657470703,0.02499675750732422,-0.04769015312194824
1761315416791801000,2.279801025390625,0.004539966583251953,-0.013192176818847656,0.010197162628173828
1761315416810722800,2.298722900390625,0.008898019790649414,-0.01943492889404297,0.02831292152404785
1761315416829644800,2.317644775390625,0.0014722347259521484,0.025618553161621094,-0.04073214530944824
1761315416848566800,2.33656689453125,-0.010123014450073242,0.036258697509765625,-0.05596137046813965
1761315416867488500,2.355488525390625,-0.016506671905517578,0.023290634155273438,-0.02552056312561035
1761315416886410500,2.374410400390625,0.0030879974365234375,-0.01714801788330078,0.001264810562133789
1761315416905332200,2.393332275390625,-0.0015990734100341797,-0.03283882141113281,0.02203512191772461
1761315416924254200,2.412254150390625,-0.010866641998291016,-0.025054931640625,0.035616397857666016
1761315416943176200,2.43117626953125,-0.0384221076965332,-0.005358695983886719,0.020508527755737305
1761315416962098000,2.450097900390625,-0.04171109199523926,-0.030727386474609375,0.0642845630645752
1761315416981020000,2.46902001953125,-0.014406204223632812,-0.048236846923828125,0.0781402587890625
1761315416999942000,2.48794189453125,-0.02074265480041504,-0.011588096618652344,0.06307148933410645
1761315417018863600,2.506863525390625,-0.02622389793395996,0.005736351013183594,-0.016688823699951172
1761315417037785600,2.52578564453125,-0.017109394073486328,0.0018711090087890625,-0.0005676746368408203
1761315417056707300,2.544707275390625,-0.017731428146362305,0.0027246475219726562,-0.012660741806030273
1761315417075629300,2.56362939453125,0.016057252883911133,-0.01809406280517578,-0.017232894897460938
1761315417094551300,2.58255126953125,0.04190826416015625,0.0034732818603515625,-0.014333724975585938
1761315417113473000,2.60147314453125,0.036347389221191406,-0.006203651428222656,0.00983738899230957
1761315417132395000,2.62039501953125,0.030402660369873047,0.012239456176757812,-0.004034757614135742
1761315417151317000,2.63931689453125,0.017404556274414062,-0.004525184631347656,-0.003592252731323242
1761315417170238700,2.65823876953125,0.016582250595092773,-0.011974334716796875,-0.0030622482299804688
1761315417189160700,2.67716064453125,0.02071666717529297,-0.01890277862548828,0.014462471008300781
1761315417208082400,2.69608251953125,0.010763406753540039,-0.019171714782714844,0.03816699981689453
1761315417227004400,2.71500439453125,-0.0065424442291259766,-0.025701522827148438,0.05168795585632324
1761315417245926400,2.733926513671875,-0.0025358200073242188,0.0005140304565429688,0.03190970420837402
1761315417264848400,2.752848388671875,-0.01685810089111328,0.0023040771484375,-0.031668901443481445
1761315417283770000,2.77177001953125,-0.021042585372924805,-0.0076122283935546875,-0.02984619140625
1761315417302692000,2.790692138671875,-0.004088401794433594,-0.05254840850830078,0.01890277862548828
1761315417321614000,2.809614013671875,0.021452903747558594,-0.01861286163330078,0.026282310485839844
1761315417340535800,2.828535888671875,0.006491899490356445,0.021215438842773438,-0.013572454452514648
1761315417359457800,2.847457763671875,0.005719184875488281,0.02236461639404297,-0.019232511520385742
1761315417378379500,2.866379638671875,0.009899377822875977,0.0022068023681640625,-0.020053386688232422
1761315417397301500,2.885301513671875,-0.009642839431762695,0.015748023986816406,-0.02826690673828125
1761315417416223500,2.904223388671875,-0.007734775543212891,-0.010970115661621094,-0.03617262840270996
1761315417435145500,2.9231455078125,-0.02497267723083496,0.012076377868652344,-0.06013679504394531
1761315417454067200,2.942067138671875,-0.03473234176635742,-0.014902114868164062,-0.014719724655151367
1761315417472989200,2.9609892578125,-0.035041093826293945,0.005747795104980469,0.0176541805267334
1761315417491911200,2.9799111328125,-0.028387069702148438,0.0069980621337890625,0.002166271209716797
1761315417510833000,2.9988330078125,-0.04531359672546387,0.02225208282470703,-0.01298069953918457
1761315417529755000,3.0177548828125,-0.04041624069213867,0.013855934143066406,-0.0026259422302246094
1761315417548676900,3.0366767578125,-0.056507110595703125,-0.01952075958251953,0.019031047821044922
1761315417567598600,3.0555986328125,-0.04609823226928711,-0.01451873779296875,-0.007706403732299805
1761315417586520600,3.0745205078125,-0.05203413963317871,0.03937530517578125,-0.014520406723022461
1761315417605442600,3.093442626953125,0.01963639259338379,0.03135967254638672,-0.0044097900390625
1761315417624364500,3.112364501953125,0.05737566947937012,0.0095062255859375,0.014035701751708984
1761315417643286300,3.131286376953125,0.07105255126953125,0.044907569885253906,-0.01724982261657715
1761315417662208300,3.150208251953125,0.07682490348815918,0.04649829864501953,-0.05062365531921387
1761315417681130200,3.169130126953125,0.08955144882202148,0.052677154541015625,-0.08031439781188965
1761315417700052000,3.188052001953125,0.0877082347869873,0.03971385955810547,-0.05022740364074707
1761315417718974000,3.206973876953125,0.0823817253112793,-0.019618988037109375,0.019518136978149414
1761315417737896000,3.22589599609375,0.07809853553771973,-0.038105010986328125,0.08044838905334473
1761315417756818000,3.24481787109375,0.04698753356933594,-0.047260284423828125,0.04831743240356445
1761315417775739600,3.26373974609375,-0.006987333297729492,-0.037957191467285156,0.05309152603149414
1761315417794661600,3.28266162109375,-0.054454803466796875,-0.038460731506347656,0.06699252128601074
1761315417813583600,3.30158349609375,-0.05099844932556152,-0.05008220672607422,0.12440848350524902
1761315417832505300,3.32050537109375,-0.036626577377319336,-0.009500503540039062,0.09351944923400879
1761315417851427300,3.33942724609375,-0.0548098087310791,0.023237228393554688,0.0258028507232666
1761315417870349300,3.358349365234375,-0.041484832763671875,0.03655529022216797,-0.006879091262817383
1761315417889271300,3.377271240234375,0.00034117698669433594,0.04461193084716797,-0.0012462139129638672
1761315417908193000,3.396193115234375,0.05313301086425781,0.006405830383300781,-0.010588407516479492
1761315417927115000,3.415114990234375,0.057410240173339844,0.01849079132080078,-0.04859495162963867
1761315417946037000,3.434037109375,0.05206561088562012,0.014130592346191406,-0.05714535713195801
1761315417964959000,3.452958984375,0.04172968864440918,0.0214996337890625,-0.055846452713012695
1761315417983880700,3.471880615234375,0.06882858276367188,0.034908294677734375,-0.038054704666137695
1761315418002802700,3.490802734375,0.05758357048034668,0.048438072204589844,-0.06279778480529785
1761315418021724700,3.509724609375,0.04663896560668945,0.03527641296386719,-0.05341458320617676
1761315418040646700,3.528646728515625,0.033678293228149414,0.047786712646484375,-0.03247976303100586
1761315418059568400,3.547568359375,0.033090829849243164,0.013561248779296875,-0.03406476974487305
1761315418078490400,3.566490478515625,0.03559613227844238,0.04417991638183594,-0.03430938720703125
1761315418097412400,3.585412353515625,0.020421504974365234,0.06937789916992188,-0.0559077262878418
1761315418116334300,3.604334228515625,-0.0029926300048828125,0.038532257080078125,-0.09367060661315918
1761315418135256000,3.623256103515625,0.0027303695678710938,0.034183502197265625,-0.036407470703125
1761315418154178000,3.642177978515625,0.010806798934936523,0.023067474365234375,-0.013805866241455078
1761315418173100000,3.66110009765625,0.039740800857543945,0.024186134338378906,-0.020020484924316406
1761315418192022000,3.68002197265625,0.04011869430541992,0.00672149658203125,-0.02545642852783203
1761315418210943700,3.69894384765625,0.03946948051452637,-0.017713546752929688,-0.01205587387084961
1761315418229865700,3.71786572265625,0.047609567642211914,-0.03202247619628906,0.019072294235229492
1761315418248787700,3.73678759765625,-0.00856924057006836,-0.02299022674560547,0.002713441848754883
1761315418267709700,3.755709716796875,-0.06413769721984863,-0.04500770568847656,-0.0009126663208007812
1761315418286631700,3.774631591796875,-0.0641169548034668,-0.04818916320800781,0.0340425968170166
1761315418305553400,3.793553466796875,-0.05004549026489258,-0.09338760375976562,0.11073875427246094
1761315418324475400,3.812475341796875,-0.0409395694732666,-0.12763118743896484,0.16832876205444336
1761315418343397400,3.8313974609375,-0.05119466781616211,-0.08819580078125,0.1573638916015625
1761315418362319400,3.8503193359375,-0.07334041595458984,-0.028840065002441406,0.06709742546081543
1761315418381241000,3.869240966796875,-0.07575774192810059,0.025913238525390625,-0.01048898696899414
1761315418400163000,3.8881630859375,-0.03981733322143555,0.018777847290039062,-0.020320892333984375
1761315418419085000,3.9070849609375,-0.01251363754272461,-0.03983592987060547,0.024288415908813477
1761315418438007000,3.926007080078125,0.006305217742919922,-0.05690574645996094,-0.004696369171142578
1761315418456929000,3.944928955078125,0.01224207878112793,-0.006114006042480469,-0.06597542762756348
1761315418475851000,3.96385107421875,-0.012071609497070312,0.09916496276855469,-0.1130678653717041
1761315418494772700,3.982772705078125,-0.0076601505279541016,0.0909891128540039,-0.14866209030151367
1761315418513694700,4.00169482421875,0.017994165420532227,0.0690450668334961,-0.0825815200805664
1761315418532616700,4.02061669921875,0.017413854598999023,0.06432533264160156,-0.06082940101623535
1761315418551538700,4.03953857421875,-0.004354715347290039,0.027462005615234375,-0.05035400390625
1761315418570460400,4.05846044921875,-0.013279438018798828,0.003551483154296875,-0.02620244026184082
1761315418589382400,4.07738232421875,-0.033545494079589844,-0.009897232055664062,0.02270960807800293
1761315418608304400,4.096304443359375,-0.03482866287231445,-0.01123046875,0.0420534610748291
1761315418627226400,4.115226318359375,-0.0478062629699707,-0.05263519287109375,0.06298398971557617
1761315418646148400,4.1341484375,-0.02070927619934082,-0.06669425964355469,0.08580183982849121
1761315418665070000,4.153070068359375,-0.017908096313476562,-0.038860321044921875,0.07761907577514648
1761315418683992000,4.171991943359375,-0.017476320266723633,-0.03316497802734375,0.051123857498168945
1761315418702914000,4.1909140625,-0.009974479675292969,0.038298606872558594,0.04209446907043457
1761315418721836000,4.2098359375,0.03281760215759277,-0.004511833190917969,0.005627155303955078
1761315418740758000,4.228758056640625,0.060712575912475586,0.021463394165039062,0.020870447158813477
1761315418759680000,4.247679931640625,0.062146902084350586,0.0334930419921875,-0.011670827865600586
1761315418778601700,4.266601806640625,0.03554344177246094,0.014492034912109375,-0.05462527275085449
1761315418797523700,4.285523681640625,0.0637359619140625,0.01935100555419922,-0.044074058532714844
1761315418816445700,4.30444580078125,0.07275009155273438,0.000606536865234375,0.04149961471557617
1761315418835367700,4.32336767578125,0.09498071670532227,-0.029088973999023438,0.086212158203125
1761315418854289700,4.34228955078125,0.05077528953552246,-0.0021686553955078125,0.04964852333068848
1761315418873211400,4.36121142578125,0.02397441864013672,-0.0012388229370117188,0.004923105239868164
1761315418892133400,4.38013330078125,0.016544818878173828,-0.005137443542480469,0.016231298446655273
1761315418911055400,4.399055419921875,0.01638031005859375,-0.06562042236328125,0.06690430641174316
1761315418929977300,4.417977294921875,0.003887176513671875,-0.049567222595214844,0.07173871994018555
1761315418948899300,4.4368994140625,-0.043524980545043945,-0.04824256896972656,0.01822042465209961
1761315418967821300,4.4558212890625,-0.05009055137634277,-0.023718833923339844,0.013819694519042969
1761315418986743300,4.474743408203125,-0.05411124229431152,-0.04018115997314453,0.04320073127746582
1761315419005665000,4.4936650390625,-0.04691314697265625,-0.03308296203613281,0.03663134574890137
1761315419024587000,4.5125869140625,-0.04018998146057129,-0.03341484069824219,0.044217824935913086
1761315419043509000,4.531509033203125,-0.052680015563964844,-0.015249252319335938,0.012153148651123047
1761315419062431000,4.550430908203125,-0.048474788665771484,-0.00649261474609375,-0.009876728057861328
1761315419081353000,4.56935302734375,-0.0370333194732666,-0.016717910766601562,0.027599573135375977
1761315419100275000,4.58827490234375,-0.023405075073242188,0.0036411285400390625,-0.018251895904541016
1761315419119196700,4.60719677734375,-0.02417135238647461,0.021022796630859375,-0.05865907669067383
1761315419138118700,4.62611865234375,-0.00837087631225586,0.0568695068359375,-0.0878896713256836
1761315419157040600,4.64504052734375,-0.00886678695678711,0.03566169738769531,-0.05115509033203125
1761315419175962600,4.663962646484375,0.04703950881958008,0.07604408264160156,-0.027879953384399414
1761315419194884600,4.682884521484375,0.04324173927307129,0.06944847106933594,-0.07177853584289551
1761315419213806600,4.701806640625,0.030421733856201172,0.07706642150878906,-0.10764479637145996
1761315419232728300,4.720728271484375,0.032520294189453125,0.042331695556640625,-0.10272097587585449
1761315419251650300,4.739650390625,0.03197336196899414,0.03199291229248047,-0.06757450103759766
1761315419270572300,4.758572265625,0.024279117584228516,0.014734268188476562,-0.04743623733520508
1761315419289494300,4.777494384765625,0.05211353302001953,0.009884834289550781,-0.05103039741516113
1761315419308416300,4.796416259765625,0.0294649600982666,0.011927604675292969,-0.005493640899658203
1761315419327338200,4.815338134765625,0.03541994094848633,0.01880359649658203,0.026729345321655273
1761315419346260200,4.83426025390625,0.0279083251953125,0.04246997833251953,-0.024512052536010742
1761315419365182000,4.853181884765625,0.011220932006835938,0.04182243347167969,-0.06723904609680176
1761315419384104000,4.87210400390625,0.040331125259399414,0.03423500061035156,-0.04994797706604004
1761315419403026000,4.89102587890625,0.0543975830078125,0.02926349639892578,-0.005629301071166992
1761315419421948000,4.909947998046875,0.04916858673095703,-0.012522697448730469,0.004960060119628906
1761315419440870000,4.928869873046875,0.02749180793762207,-0.020793914794921875,-0.02893662452697754
1761315419459792000,4.9477919921875,-0.009797811508178711,-0.003170013427734375,-0.010262489318847656
1761315419478713900,4.9667138671875,0.0005276203155517578,-0.0045166015625,0.012571573257446289
1761315419497635800,4.9856357421875,0.010311603546142578,-0.02717113494873047,0.044100284576416016
1761315419516557600,5.0045576171875,0.007909536361694336,-0.053750038146972656,0.06754708290100098
1761315419535479600,5.0234794921875,-0.027393579483032227,-0.023612022399902344,0.07380414009094238
1761315419554401500,5.042401611328125,-0.012617826461791992,-0.013085365295410156,0.06118488311767578
1761315419573323500,5.061323486328125,-0.03031754493713379,-0.005127906799316406,0.018514633178710938
1761315419592245500,5.08024560546875,-0.010053396224975586,0.007442474365234375,0.021347999572753906
1761315419611167500,5.09916748046875,-0.013828754425048828,-0.04775238037109375,0.0288541316986084
1761315419630089500,5.11808935546875,-0.010956048965454102,-0.04611778259277344,0.031990766525268555
1761315419649011500,5.137011474609375,0.0011606216430664062,-0.05215263366699219,0.0587620735168457
1761315419667933200,5.15593310546875,-0.013402462005615234,-0.02911853790283203,0.04739260673522949
1761315419686855200,5.174855224609375,-0.013261079788208008,0.02083110809326172,-0.005892038345336914
1761315419705777200,5.193777099609375,-0.010804176330566406,0.06010150909423828,-0.048262596130371094
1761315419724699100,5.21269921875,0.010748147964477539,0.039902687072753906,-0.047194480895996094
1761315419743621000,5.23162109375,-0.008005380630493164,-0.0077648162841796875,-0.008632421493530273
1761315419762543000,5.250543212890625,0.018453598022460938,0.0046253204345703125,0.021206140518188477
1761315419781465000,5.269465087890625,0.011487483978271484,0.00021266937255859375,-0.02909088134765625
1761315419800387000,5.288386962890625,0.0238339900970459,0.0027475357055664062,-0.028618335723876953
1761315419819308800,5.307308837890625,0.002610445022583008,-0.0021104812622070312,0.002092123031616211
1761315419838230800,5.326230712890625,0.014657020568847656,-0.008709907531738281,0.050257205963134766
1761315419857152800,5.34515283203125,0.021704673767089844,0.022325515747070312,0.012624025344848633
1761315419876074800,5.36407470703125,0.0054874420166015625,0.029259681701660156,-0.051815032958984375
1761315419894996700,5.382996826171875,-0.014656543731689453,0.026246070861816406,-0.034311532974243164
1761315419913918700,5.401918701171875,0.017406702041625977,0.0028448104858398438,0.015523195266723633
1761315419932840700,5.4208408203125,0.008964300155639648,-0.014807701110839844,0.007023334503173828
1761315419951762700,5.4397626953125,-0.0019943714141845703,0.004924774169921875,-0.010074615478515625
1761315419970684700,5.4586845703125,-0.017299652099609375,-0.008356094360351562,-0.005362510681152344
1761315419989606400,5.4776064453125,-0.016014575958251953,-0.03823280334472656,0.015219926834106445
1761315420008528400,5.4965283203125,-0.008491754531860352,-0.03704071044921875,0.03775501251220703
1761315420027450400,5.515450439453125,-0.012758255004882812,-0.031299591064453125,0.0225985050201416
1761315420046372400,5.534372314453125,-0.019217967987060547,-0.042133331298828125,0.04796600341796875
1761315420065294300,5.55329443359375,0.00010037422180175781,-0.026676177978515625,0.049345970153808594
1761315420084216300,5.57221630859375,0.012096643447875977,-0.033120155334472656,0.0785667896270752
1761315420103138300,5.59113818359375,0.004378795623779297,-0.009081840515136719,0.01795506477355957
1761315420122060300,5.610060302734375,-0.002778291702270508,0.002841949462890625,-0.0014374256134033203
1761315420140982300,5.628982177734375,-0.01169443130493164,0.010107994079589844,-0.0017542839050292969
1761315420159904000,5.647904052734375,-0.008923768997192383,0.02184772491455078,-0.0020830631256103516
1761315420178826000,5.666825927734375,0.03866934776306152,0.0118408203125,-0.006400108337402344
1761315420197748000,5.685748046875,0.047563791275024414,0.02598857879638672,-0.03182077407836914
1761315420216670000,5.704669921875,0.03691244125366211,0.0135955810546875,-0.028064966201782227
1761315420235592000,5.723592041015625,0.039844512939453125,-0.01746845245361328,0.011071205139160156
1761315420254514000,5.742513916015625,0.011979103088378906,-0.0057163238525390625,0.0043773651123046875
1761315420273436000,5.761435791015625,0.005858182907104492,-0.0037202835083007812,0.00946044921875
1761315420292358000,5.78035791015625,-0.004595518112182617,0.0073223114013671875,-0.03206062316894531
1761315420311279900,5.79927978515625,-0.02123284339904785,0.015868186950683594,0.000032901763916015625
1761315420330201900,5.818201904296875,-0.006742238998413086,0.019942283630371094,0.021547317504882812
1761315420349123800,5.837123779296875,0.017533540725708008,0.019662857055664062,-0.0027027130126953125
1761315420368045600,5.856045654296875,0.006125926971435547,0.0401458740234375,-0.061612844467163086
1761315420386967600,5.874967529296875,-0.007264852523803711,0.03227424621582031,-0.055286407470703125
1761315420405889500,5.8938896484375,0.002275705337524414,-0.01050567626953125,-0.011447429656982422
1761315420424811500,5.9128115234375,0.02262592315673828,-0.05935192108154297,0.021837711334228516
1761315420443733500,5.9317333984375,0.025691509246826172,-0.032006263732910156,0.019021034240722656
1761315420462655500,5.950655517578125,-0.016203880310058594,0.0248260498046875,-0.004884481430053711
1761315420481577500,5.969577392578125,-0.04968619346618652,0.030897140502929688,-0.04864358901977539
1761315420500499500,5.98849951171875,-0.03721761703491211,0.03872394561767578,-0.03477883338928223
1761315420519421400,6.00742138671875,-0.014936685562133789,0.009082794189453125,-0.007342100143432617
1761315420538343400,6.026343505859375,0.0025784969329833984,0.025127410888671875,0.0024688243865966797
1761315420557265400,6.045265380859375,-0.0017442703247070312,0.022060394287109375,-0.033199310302734375
1761315420576187400,6.0641875,0.004029989242553711,0.029279708862304688,-0.04229116439819336
1761315420595109000,6.083109130859375,-0.004177093505859375,0.031264305114746094,-0.041697025299072266
1761315420614031000,6.102031005859375,0.02303028106689453,0.04053306579589844,-0.04152512550354004
1761315420632953000,6.120953125,0.025938987731933594,0.014524459838867188,-0.03620624542236328
1761315420651875000,6.139875,0.04078936576843262,-0.004118919372558594,-0.02632904052734375
1761315420670797000,6.158797119140625,0.04164528846740723,0.03362751007080078,-0.025939464569091797
1761315420689719000,6.177718994140625,0.06989216804504395,-0.008923530578613281,0.00041747093200683594
1761315420708641000,6.19664111328125,0.04070782661437988,-0.020109176635742188,0.023206710815429688
1761315420727563000,6.21556298828125,-0.003076314926147461,-0.04750823974609375,0.021674633026123047
1761315420746485000,6.234485107421875,-0.03298068046569824,-0.05743980407714844,0.07193970680236816
1761315420765407000,6.253406982421875,-0.04321432113647461,-0.09389591217041016,0.08129477500915527
1761315420784329000,6.272328857421875,-0.055081844329833984,-0.0635538101196289,0.07712507247924805
1761315420803251000,6.2912509765625,-0.08747100830078125,-0.050492286682128906,0.06850194931030273
1761315420822173000,6.3101728515625,-0.0933837890625,-0.02385711669921875,0.06707096099853516
1761315420841094700,6.3290947265625,-0.04018735885620117,0.011784553527832031,0.07720541954040527
1761315420860016600,6.3480166015625,-0.046221017837524414,0.02555084228515625,0.023726701736450195
1761315420878938600,6.366938720703125,-0.030744075775146484,0.02719402313232422,-0.01661515235900879
1761315420897860600,6.385860595703125,-0.0011959075927734375,0.01495361328125,-0.05566835403442383
1761315420916782600,6.404782470703125,0.03139185905456543,-0.015590667724609375,0.018340587615966797
1761315420935704600,6.42370458984375,0.044072866439819336,-0.012557029724121094,-0.007313251495361328
1761315420954626600,6.44262646484375,0.05415797233581543,-0.005237579345703125,-0.01372385025024414
1761315420973548500,6.461548583984375,0.028604984283447266,0.027078628540039062,-0.024257421493530273
1761315420992470500,6.480470458984375,0.050438880920410156,0.03021526336669922,-0.025386810302734375
1761315421011392500,6.499392578125,0.06680941581726074,0.014651298522949219,0.027755260467529297
1761315421030314500,6.518314453125,0.07384967803955078,0.034847259521484375,0.027283430099487305
1761315421049236500,6.537236572265625,0.057861328125,0.04376029968261719,-0.023441076278686523
1761315421068158200,6.556158203125,0.05016684532165527,0.06631278991699219,-0.03814101219177246
1761315421087080200,6.575080078125,0.048162221908569336,0.03712940216064453,-0.05219149589538574
1761315421106002200,6.594002197265625,0.05793428421020508,0.050891876220703125,-0.0330042839050293
1761315421124924200,6.612924072265625,0.05794095993041992,0.012936592102050781,-0.03757333755493164
1761315421143846100,6.63184619140625,0.058065176010131836,-0.0056781768798828125,-0.01842665672302246
1761315421162768100,6.65076806640625,0.05767536163330078,0.0043487548828125,-0.004142045974731445
1761315421181690000,6.669690185546875,0.04512453079223633,0.007052421569824219,0.02351093292236328
1761315421200612000,6.688612060546875,0.006959676742553711,-0.004578590393066406,-0.038898468017578125
1761315421219534000,6.7075341796875,0.01691269874572754,0.014307975769042969,-0.02660536766052246
1761315421238456000,6.7264560546875,-0.01769423484802246,-0.02528858184814453,0.018628358840942383
1761315421257378000,6.7453779296875,-0.02103567123413086,-0.031523704528808594,0.07147479057312012
1761315421276300000,6.764300048828125,-0.024085521697998047,-0.027505874633789062,0.04993247985839844
1761315421295222000,6.783221923828125,-0.017239809036254883,0.0067729949951171875,-0.005785465240478516
1761315421314144000,6.80214404296875,-0.03835034370422363,0.00266265869140625,0.005724191665649414
1761315421333066000,6.82106591796875,-0.02344226837158203,0.01974964141845703,0.03249788284301758
1761315421351988000,6.839988037109375,-0.015472412109375,0.0229949951171875,0.022952795028686523
1761315421370909700,6.85890966796875,-0.014642715454101562,0.009935379028320312,-0.028451919555664062
1761315421389831700,6.877831787109375,0.00254058837890625,0.02265644073486328,-0.03597664833068848
1761315421408753700,6.896753662109375,0.014014720916748047,0.009142875671386719,-0.03378415107727051
1761315421427675600,6.915675537109375,0.02028369903564453,-0.01819324493408203,-0.029072999954223633
1761315421446597600,6.93459765625,0.0023527145385742188,-0.028052330017089844,0.0015490055084228516
1761315421465519600,6.95351953125,-0.024986982345581055,-0.043107032775878906,-0.00839376449584961
1761315421484441600,6.972441650390625,-0.004853248596191406,-0.013475418090820312,0.02436232566833496
1761315421503363600,6.991363525390625,-0.009125709533691406,0.0013608932495117188,0.0159299373626709
1761315421522285600,7.01028564453125,-0.018317461013793945,-0.019376754760742188,0.017501354217529297
1761315421541207600,7.02920751953125,-0.038741111755371094,-0.0048885345458984375,0.019142866134643555
1761315421560129500,7.048129638671875,-0.058348655700683594,-0.021001815795898438,0.044327735900878906
1761315421579051500,7.067051513671875,-0.037687063217163086,-0.05061817169189453,0.03603076934814453
1761315421597973500,7.085973388671875,-0.010178327560424805,-0.03711891174316406,0.025620222091674805
1761315421616895500,7.1048955078125,-0.03330373764038086,-0.021738052368164062,0.015106678009033203
1761315421635817200,7.123817138671875,-0.03533482551574707,-0.004794120788574219,0.005149126052856445
1761315421654739200,7.1427392578125,-0.0303804874420166,-0.018746376037597656,0.019205331802368164
1761315421673661200,7.1616611328125,-0.0326848030090332,-0.016021728515625,0.014716148376464844
1761315421692583200,7.180583251953125,-0.0398409366607666,-0.004357337951660156,0.007643461227416992
1761315421711505200,7.199505126953125,-0.015967369079589844,-0.0045795440673828125,0.0012559890747070312
1761315421730427100,7.21842724609375,-0.006962299346923828,-0.0025033950805664062,-0.016452550888061523
1761315421749349000,7.23734912109375,-0.0284576416015625,-0.016997337341308594,-0.008384466171264648
1761315421768271000,7.25627099609375,-0.0006854534149169922,-0.007483482360839844,0.015508174896240234
1761315421787193000,7.275193115234375,0.008234262466430664,0.020583152770996094,0.024373292922973633
1761315421806115000,7.294114990234375,0.002598285675048828,0.012907981872558594,-0.036704301834106445
1761315421825037000,7.313037109375,0.0042951107025146484,-0.004302024841308594,0.009653091430664062
1761315421843959000,7.331958984375,0.03589296340942383,0.0115509033203125,0.01432347297668457
1761315421862881000,7.350881103515625,0.05783510208129883,0.006440162658691406,-0.009320974349975586
1761315421881803000,7.369802978515625,0.044287919998168945,0.07579898834228516,-0.06949138641357422
1761315421900725000,7.38872509765625,0.04040813446044922,0.037848472595214844,-0.06242632865905762
1761315421919647000,7.40764697265625,0.04849982261657715,0.020139694213867188,-0.02251887321472168
1761315421938569000,7.42656884765625,0.04187130928039551,-0.0039157867431640625,-0.009911060333251953
1761315421957491000,7.445490966796875,0.028351306915283203,0.0032110214233398438,0.018400192260742188
1761315421976413000,7.464412841796875,0.022858619689941406,0.024112701416015625,0.011247634887695312
1761315421995335000,7.4833349609375,0.03206825256347656,0.02127361297607422,0.011609077453613281
1761315422014256600,7.502256591796875,0.04623723030090332,0.03491783142089844,0.0513463020324707
1761315422033178600,7.5211787109375,0.04563784599304199,0.0041370391845703125,0.04942202568054199
1761315422052100600,7.5401005859375,0.026400089263916016,0.021071434020996094,-0.018265724182128906
1761315422071022600,7.559022705078125,0.015501022338867188,0.009439468383789062,-0.03030562400817871
1761315422089944600,7.577944580078125,0.03573465347290039,0.0076808929443359375,-0.009025096893310547
1761315422108866600,7.596866455078125,0.046047210693359375,0.008355140686035156,0.013979434967041016
1761315422127788500,7.61578857421875,0.04862618446350098,-0.0027017593383789062,-0.010295629501342773
1761315422146710500,7.63471044921875,0.02923107147216797,0.01642322540283203,-0.03873610496520996
1761315422165632500,7.653632568359375,0.005494356155395508,0.006885528564453125,-0.03552818298339844
1761315422184554500,7.672554443359375,-0.0149688720703125,0.002201080322265625,0.007723808288574219
1761315422203476500,7.6914765625,-0.006687164306640625,0.021425247192382812,0.017087936401367188
1761315422222398500,7.7103984375,-0.00804591178894043,-0.01659870147705078,0.015898942947387695
1761315422241320400,7.729320556640625,-0.0279693603515625,-0.0042285919189453125,0.0057947635650634766
1761315422260242400,7.748242431640625,-0.030864477157592773,-0.027077674865722656,0.014914274215698242
1761315422279164400,7.767164306640625,-0.035814762115478516,0.0022068023681640625,0.03990650177001953
1761315422298086400,7.78608642578125,-0.03403663635253906,-0.03709983825683594,0.031145334243774414
1761315422317008400,7.80500830078125,-0.05349087715148926,-0.04003143310546875,0.017927169799804688
1761315422335930400,7.823930419921875,-0.04014706611633301,-0.03863048553466797,0.010204315185546875
1761315422354852400,7.842852294921875,-0.029719829559326172,-0.03995800018310547,0.01697254180908203
1761315422373774300,7.8617744140625,-0.0520477294921875,0.019896507263183594,0.014353036880493164
1761315422392696300,7.8806962890625,-0.017309188842773438,0.04716300964355469,-0.007071018218994141
1761315422411618000,7.8996181640625,-0.002112150192260742,0.02479839324951172,-0.022883892059326172
1761315422430540000,7.9185400390625,0.01727008819580078,0.016887664794921875,-0.010130167007446289
1761315422449462000,7.9374619140625,0.030649900436401367,-0.032672882080078125,0.011334657669067383
1761315422468384000,7.956384033203125,0.008176565170288086,-0.045841217041015625,0.006517648696899414
1761315422487306000,7.975305908203125,0.0003056526184082031,-0.03361701965332031,-0.009534120559692383
1761315422506228000,7.99422802734375,0.025472402572631836,-0.026422500610351562,0.024180173873901367
1761315422525150000,8.01314990234375,0.010325431823730469,-0.0052700042724609375,0.03783130645751953
1761315422544072000,8.032072021484375,0.008969306945800781,0.013414382934570312,0.00851583480834961
1761315422562994000,8.050993896484375,-0.013084888458251953,0.021898269653320312,-0.04587149620056152
1761315422581916000,8.069916015625,-0.008485555648803711,0.016378402709960938,-0.033304452896118164
1761315422600838000,8.088837890625,-0.01532292366027832,-0.0050449371337890625,-0.008853912353515625
1761315422619759900,8.107759765625,0.003208160400390625,-0.009938240051269531,-0.006160259246826172
1761315422638681900,8.126681884765626,-0.004953622817993164,-0.0005970001220703125,-0.0010442733764648438
1761315422657603800,8.145603759765624,-0.0064961910247802734,-0.01768207550048828,-0.005148649215698242
1761315422676525800,8.16452587890625,-0.04777812957763672,0.012357711791992188,-0.020908594131469727
1761315422695447800,8.18344775390625,-0.05021929740905762,0.025430679321289062,-0.021918535232543945
1761315422714369800,8.202369873046875,-0.024061203002929688,0.0024728775024414062,-0.010583162307739258
1761315422733291800,8.221291748046875,-0.003056764602661133,-0.005167961120605469,0.009888172149658203
1761315422752213800,8.2402138671875,0.0004482269287109375,-0.014740943908691406,0.008008718490600586
1761315422771135700,8.2591357421875,-0.01759624481201172,-0.00067901611328125,0.0010857582092285156
1761315422790057500,8.278057373046876,-0.022609710693359375,0.010874748229980469,-0.02747035026550293
1761315422808979500,8.2969794921875,-0.03659510612487793,0.02521991729736328,-0.034287452697753906
1761315422827901400,8.3159013671875,-0.02580714225769043,0.027297019958496094,-0.033582448959350586
1761315422846823400,8.334823486328125,-0.006435394287109375,-0.022561073303222656,-0.006595134735107422
1761315422865745400,8.353745361328125,0.008234977722167969,-0.012696266174316406,0.02404332160949707
1761315422884667400,8.37266748046875,0.041380882263183594,0.03233051300048828,0.020532608032226562
1761315422903589400,8.39158935546875,0.02176976203918457,0.031157493591308594,-0.04556536674499512
1761315422922511400,8.410511474609375,0.023674964904785156,-0.0025310516357421875,-0.011332988739013672
1761315422941433300,8.429433349609376,0.042000532150268555,0.004427909851074219,0.054335594177246094
1761315422960355300,8.448355224609376,0.08064675331115723,-0.051497459411621094,0.09749317169189453
1761315422979277300,8.46727734375,0.06165885925292969,-0.03824901580810547,0.0896151065826416
1761315422998199300,8.48619921875,0.06861519813537598,-0.03915119171142578,0.06811642646789551
1761315423017121300,8.505121337890625,0.04503750801086426,0.016182899475097656,0.04742717742919922
1761315423036043300,8.524043212890625,0.06464219093322754,0.031780242919921875,0.022893905639648438
1761315423054965200,8.54296533203125,0.06745529174804688,0.03534984588623047,-0.012915372848510742
1761315423073887200,8.56188720703125,0.05649590492248535,0.02244853973388672,-0.038049936294555664
1761315423092809200,8.580809326171876,0.0433657169342041,0.000514984130859375,-0.011080741882324219
1761315423111731200,8.599731201171876,0.04917716979980469,-0.03709888458251953,0.0010821819305419922
1761315423130653200,8.618653076171874,0.03777742385864258,0.038689613342285156,-0.06447601318359375
1761315423149575200,8.6375751953125,0.00829458236694336,0.02581787109375,-0.0977177619934082
1761315423168497200,8.6564970703125,-0.031646728515625,0.03157615661621094,-0.05485343933105469
1761315423187419100,8.675419189453125,-0.025927066802978516,0.006724357604980469,-0.0010814666748046875
1761315423206341000,8.694341064453125,-0.04582071304321289,0.0040760040283203125,0.013240814208984375
1761315423225263000,8.71326318359375,-0.027182340621948242,0.027380943298339844,-0.007934808731079102
1761315423244185000,8.73218505859375,-0.045737266540527344,0.0034551620483398438,-0.016703128814697266
1761315423263107000,8.751107177734376,-0.04560399055480957,-0.012613296508789062,0.010134696960449219
1761315423282029000,8.770029052734374,-0.024569034576416016,-0.028066635131835938,0.06599020957946777
1761315423300951000,8.788950927734374,-0.04194164276123047,-0.010270118713378906,0.04651832580566406
1761315423319873000,8.807873046875,-0.032212257385253906,0.021019935607910156,-0.05846142768859863
1761315423338795000,8.826794921875,-0.04383969306945801,-0.007264137268066406,-0.05449819564819336
1761315423357717000,8.845717041015625,-0.029491901397705078,-0.027448654174804688,0.028745651245117188
1761315423376639000,8.864638916015625,0.03357195854187012,0.009316444396972656,0.04840970039367676
1761315423395560700,8.883560791015626,0.01783299446105957,0.04710674285888672,-0.01703643798828125
1761315423414482700,8.902482666015626,0.012046575546264648,0.05319786071777344,-0.07250618934631348
1761315423433404700,8.92140478515625,0.01788163185119629,0.0031795501708984375,-0.037522077560424805
1761315423452326700,8.94032666015625,0.015946149826049805,-0.022489547729492188,0.007925748825073242
1761315423471248600,8.95924853515625,0.006471395492553711,-0.04526996612548828,0.012367963790893555
1761315423490170600,8.978170654296875,-0.012054204940795898,-0.027652740478515625,0.023775577545166016
1761315423509092600,8.997092529296875,-0.030113935470581055,-0.03615570068359375,0.01911187171936035
1761315423528014600,9.0160146484375,-0.028850555419921875,-0.018881797790527344,0.02632594108581543
1761315423546936600,9.0349365234375,0.00039267539978027344,-0.0043506622314453125,0.009711742401123047
1761315423565858600,9.053858642578126,-0.02261829376220703,0.03323841094970703,0.007153034210205078
1761315423584780500,9.072780517578124,-0.030782699584960938,0.0065402984619140625,-0.00928950309753418
1761315423603702500,9.09170263671875,-0.03812742233276367,0.008924484252929688,-0.0065615177154541016
1761315423622624500,9.11062451171875,0.004126787185668945,-0.023538589477539062,0.04072093963623047
1761315423641546500,9.12954638671875,-0.0046427249908447266,-0.015519142150878906,0.030651092529296875
1761315423660468500,9.148468505859375,0.007540702819824219,-0.007843971252441406,-0.0028362274169921875
1761315423679390500,9.167390380859375,-0.004731178283691406,-0.021724700927734375,0.021486997604370117
1761315423698312400,9.1863125,-0.011924505233764648,-0.005206108093261719,-0.0014340877532958984
1761315423717234400,9.205234375,0.008706808090209961,-0.009997367858886719,0.008665800094604492
1761315423736156400,9.224156494140624,0.01939535140991211,-0.031502723693847656,-0.016348838806152344
1761315423755078400,9.243078369140624,0.0036058425903320312,0.015542030334472656,-0.03133726119995117
1761315423774000400,9.26200048828125,-0.00016570091247558594,0.012085914611816406,-0.015180349349975586
1761315423792922400,9.28092236328125,-0.0062046051025390625,-0.010161399841308594,0.02411198616027832
1761315423811844400,9.29984423828125,0.0016252994537353516,0.014690399169921875,-0.0008101463317871094
1761315423830766300,9.318766357421875,-0.016037940979003906,-0.010190010070800781,-0.003473043441772461
1761315423849688300,9.337688232421876,-0.024202823638916016,-0.025040626525878906,0.002583026885986328
1761315423868610300,9.3566103515625,-0.00173187255859375,-0.029806137084960938,0.05468606948852539
1761315423887532300,9.3755322265625,-0.012129783630371094,0.00571441650390625,0.03930401802062988
1761315423906454300,9.394454345703124,-0.007752895355224609,0.04506206512451172,0.006125688552856445
1761315423925376300,9.413376220703125,-0.007927656173706055,0.015130043029785156,-0.02095818519592285
1761315423944298200,9.43229833984375,0.02233576774597168,-0.006772041320800781,-0.031001567840576172
1761315423963220200,9.45122021484375,0.020943641662597656,-0.0002231597900390625,-0.02512502670288086
1761315423982142200,9.47014208984375,0.04571247100830078,-0.01742839813232422,-0.019131183624267578
1761315424001064200,9.489064208984376,0.03482818603515625,-0.0011339187622070312,-0.029416799545288086
1761315424019986200,9.507986083984376,0.01943802833557129,0.019845962524414062,0.00016188621520996094
1761315424038908200,9.526908203125,0.008191585540771484,0.01929950714111328,0.016778945922851562
1761315424057830100,9.545830078125,0.013916492462158203,-0.016936302185058594,0.0024330615997314453
1761315424076752100,9.564752197265625,0.00847935676574707,0.004467010498046875,-0.0018939971923828125
1761315424095674000,9.583674072265625,0.011207818984985352,0.02494335174560547,0.03654980659484863
1761315424114596000,9.60259619140625,0.01867961883544922,-0.027289390563964844,0.03392815589904785
1761315424133518000,9.62151806640625,0.025681257247924805,-0.012445449829101562,0.061187028884887695
1761315424152440000,9.640440185546876,0.011234760284423828,0.020979881286621094,0.007912397384643555
1761315424171362000,9.659362060546876,0.004782438278198242,0.02553558349609375,-0.03248476982116699
1761315424190283800,9.67828369140625,0.022816181182861328,0.025170326232910156,-0.03905487060546875
1761315424209205800,9.697205810546874,-0.013287067413330078,0.010814666748046875,-0.0027077198028564453
1761315424228127700,9.716127685546875,0.02863025665283203,-0.017189979553222656,0.014427900314331055
1761315424247049700,9.7350498046875,0.029630422592163086,0.002361297607421875,0.0430598258972168
1761315424265971700,9.7539716796875,0.023006200790405273,-0.011538505554199219,0.027997493743896484
1761315424284893700,9.772893798828125,0.002086639404296875,-0.02773761749267578,0.016081809997558594
1761315424303815700,9.791815673828125,-0.018840789794921875,-0.036711692810058594,0.058554887771606445
1761315424322737700,9.810737548828126,0.002655506134033203,-0.042960166931152344,0.06943678855895996
1761315424341659600,9.82965966796875,-0.02781081199645996,-0.025551795959472656,0.0472869873046875
1761315424360581600,9.84858154296875,-0.026956558227539062,-0.0275421142578125,0.038025856018066406
1761315424379503600,9.867503662109375,-0.05404353141784668,-0.013217926025390625,0.05218100547790527
1761315424398425600,9.886425537109375,-0.030876636505126953,-0.010659217834472656,0.027775287628173828
1761315424417347600,9.90534765625,0.0037605762481689453,0.017810821533203125,0.006433248519897461
1761315424436269600,9.92426953125,0.028253555297851562,0.022081375122070312,-0.05940437316894531
1761315424455191600,9.943191650390625,0.0384831428527832,0.03305625915527344,-0.01288604736328125
1761315424474113500,9.962113525390626,0.0130615234375,0.006489753723144531,-0.03086066246032715
1761315424493035500,9.981035400390626,-0.0028803348541259766,-0.007620811462402344,-0.029394865036010742
1761315424511957500,9.99995751953125,0.014594793319702148,-0.030416488647460938,-0.02036309242248535
1761315424530879500,10.01887939453125,0.02691340446472168,-0.030083656311035156,-0.025771141052246094
1761315424549801500,10.037801513671875,0.0641624927520752,-0.03000354766845703,-0.021442174911499023
1761315424568723500,10.056723388671875,0.03827953338623047,-0.0018644332885742188,-0.005305290222167969
1761315424587645400,10.0756455078125,0.02450251579284668,0.036754608154296875,-0.03386545181274414
1761315424606567400,10.0945673828125,0.006722927093505859,0.025201797485351562,-0.011832952499389648
1761315424625489400,10.113489501953126,0.015162944793701172,0.016427993774414062,0.01861286163330078
1761315424644411400,10.132411376953126,0.021758556365966797,0.02205371856689453,-0.003557920455932617
1761315424663333400,10.15133349609375,-0.009563684463500977,0.030165672302246094,-0.03494668006896973
1761315424682255400,10.17025537109375,-0.007288455963134766,-0.0020189285278320312,-0.034519195556640625
1761315424701177300,10.18917724609375,-0.0002818107604980469,0.0038461685180664062,0.0059773921966552734
1761315424720099300,10.208099365234375,0.0038275718688964844,-0.013489723205566406,0.02594614028930664
1761315424739021300,10.227021240234375,0.01710033416748047,-0.0022859573364257812,-0.022675514221191406
1761315424757943300,10.245943359375,0.02066326141357422,0.011298179626464844,-0.03488731384277344
1761315424776865300,10.264865234375,0.02012777328491211,0.03837394714355469,-0.05871748924255371
1761315424795787300,10.283787353515624,0.007654666900634766,0.03865623474121094,-0.05819201469421387
1761315424814709200,10.302709228515624,0.0003006458282470703,0.015932083129882812,-0.0297086238861084
1761315424833631200,10.32163134765625,0.021525859832763672,0.008191108703613281,-0.025242328643798828
1761315424852553200,10.34055322265625,0.0232088565826416,0.04482269287109375,-0.06787824630737305
1761315424871475200,10.35947509765625,0.0014424324035644531,0.03341102600097656,-0.06954002380371094
1761315424890397200,10.378397216796875,0.017995357513427734,0.015730857849121094,-0.033994197845458984
1761315424909319200,10.397319091796875,0.006284475326538086,0.03631877899169922,-0.0048482418060302734
1761315424928241200,10.4162412109375,0.018428802490234375,0.047199249267578125,-0.051569461822509766
1761315424947163100,10.4351630859375,0.030687808990478516,0.03188610076904297,-0.0501101016998291
1761315424966085000,10.454085205078124,0.040421485900878906,0.031087875366210938,-0.039305686950683594
1761315424985007000,10.473007080078125,0.0285799503326416,-0.01628589630126953,0.010897159576416016
1761315425003929000,10.49192919921875,0.011808395385742188,-0.010984420776367188,-0.015158414840698242
1761315425022851000,10.51085107421875,-0.009287357330322266,-0.01993846893310547,-0.005607128143310547
1761315425041773000,10.52977294921875,-0.015654325485229492,0.0018186569213867188,0.012977838516235352
1761315425060695000,10.548695068359375,-0.00970458984375,-0.004593849182128906,0.045273780822753906
1761315425079617000,10.567616943359376,-0.013393878936767578,0.024328231811523438,0.03192901611328125
1761315425098539000,10.5865390625,-0.009699583053588867,0.014787673950195312,-0.021174192428588867
1761315425117461000,10.6054609375,-0.03395962715148926,0.019763946533203125,-0.03303408622741699
1761315425136383000,10.624383056640625,-0.02424478530883789,-0.005809783935546875,0.0067822933197021484
1761315425155305000,10.643304931640625,0.004114866256713867,-0.004860877990722656,0.0009667873382568359
1761315425174227000,10.66222705078125,0.027001619338989258,-0.011157035827636719,0.006975650787353516
1761315425193149000,10.68114892578125,0.001949310302734375,0.0065746307373046875,0.015405893325805664
1761315425212071000,10.70007080078125,0.02885293960571289,-0.0089569091796875,0.030568599700927734
1761315425230993000,10.718992919921876,0.015619516372680664,-0.0032796859741210938,0.005511760711669922
1761315425249915000,10.737914794921876,-0.007053375244140625,0.013834953308105469,0.0019941329956054688
1761315425268836900,10.7568369140625,0.010759115219116211,0.0022487640380859375,-0.008053302764892578
1761315425287758800,10.7757587890625,0.0025463104248046875,0.012277603149414062,-0.012901544570922852
1761315425306680800,10.794680908203125,0.019733190536499023,-0.0059833526611328125,-0.0033953189849853516
1761315425325602800,10.813602783203125,0.003107786178588867,-0.02385234832763672,0.028713226318359375
1761315425344524800,10.83252490234375,-0.010569095611572266,-0.015568733215332031,0.03170013427734375
1761315425363446800,10.85144677734375,-0.005141496658325195,0.013083457946777344,-0.0019960403442382812
1761315425382368800,10.87036865234375,-0.01384878158569336,0.019715309143066406,-0.0205535888671875
1761315425401290800,10.889290771484376,-0.010596513748168945,-0.03438282012939453,0.007815837860107422
1761315425420212700,10.908212646484374,0.016016244888305664,0.004570960998535156,0.04178118705749512
1761315425439134700,10.927134765625,0.00015664100646972656,0.026350021362304688,-0.026385784149169922
1761315425458056700,10.946056640625,-0.03109574317932129,0.05889320373535156,-0.04315185546875
1761315425476978700,10.964978759765625,0.004425048828125,0.018358230590820312,-0.009696483612060547
1761315425495900700,10.983900634765625,0.03651547431945801,-0.03015899658203125,0.006196498870849609
1761315425514822700,11.00282275390625,0.015340089797973633,-0.024369239807128906,0.029040098190307617
1761315425533744600,11.02174462890625,0.0012102127075195312,-0.044594764709472656,0.018642902374267578
1761315425552666600,11.04066650390625,-0.024166107177734375,-0.015211105346679688,-0.007848739624023438
1761315425571588600,11.059588623046874,-0.009063482284545898,-0.02167510986328125,0.027118682861328125
1761315425590510600,11.078510498046874,0.01940178871154785,-0.027833938598632812,0.05633997917175293
1761315425609432600,11.0974326171875,0.0001087188720703125,-0.005852699279785156,0.04264688491821289
1761315425628354600,11.1163544921875,-0.02541804313659668,0.010968208312988281,0.013180971145629883
1761315425647276500,11.135276611328125,-0.03343915939331055,0.015414237976074219,0.010089397430419922
1761315425666198500,11.154198486328125,-0.02881646156311035,-0.014843940734863281,0.03514599800109863
1761315425685120500,11.17312060546875,-0.019936323165893555,-0.023489952087402344,0.04997658729553223
1761315425704042500,11.19204248046875,0.0052449703216552734,-0.019632339477539062,0.005698204040527344
1761315425722964500,11.210964599609374,0.0174710750579834,-0.03250694274902344,0.028198719024658203
1761315425741886500,11.229886474609375,-0.0013546943664550781,-0.016905784606933594,0.02954554557800293
1761315425760808400,11.248808349609375,-0.01765275001525879,-0.013835906982421875,0.012182474136352539
1761315425779730400,11.26773046875,0.004027366638183594,-0.013669013977050781,-0.004298686981201172
1761315425798652400,11.28665234375,0.006737947463989258,-0.0323333740234375,0.0034646987915039062
1761315425817574400,11.305574462890625,0.013565778732299805,0.008133888244628906,0.013000965118408203
1761315425836496400,11.324496337890626,-0.005711555480957031,-0.017752647399902344,0.020186662673950195
1761315425855418400,11.34341845703125,-0.012801647186279297,0.008605003356933594,0.031851768493652344
1761315425874340400,11.36234033203125,-0.012403488159179688,-0.012813568115234375,0.04804635047912598
1761315425893262300,11.381262451171875,-0.0003886222839355469,-0.0126800537109375,0.01935863494873047
1761315425912184300,11.400184326171875,0.013594388961791992,-0.04276466369628906,0.05454373359680176
1761315425931106300,11.419106201171875,0.005621194839477539,-0.05325126647949219,0.0645906925201416
1761315425950028300,11.4380283203125,0.005118370056152344,-0.006625175476074219,0.050582170486450195
1761315425968950300,11.4569501953125,0.014712095260620117,0.03333091735839844,-0.02575230598449707
1761315425987872300,11.475872314453126,-0.025054931640625,0.06993865966796875,-0.07652163505554199
1761315426006794200,11.494794189453126,-0.012282609939575195,0.006816864013671875,-0.04344344139099121
1761315426025716200,11.51371630859375,0.01625823974609375,-0.012487411499023438,0.0031213760375976562
1761315426044638200,11.53263818359375,0.0037224292755126953,-0.026819229125976562,0.02045583724975586
1761315426063560200,11.551560302734375,-0.006928443908691406,-0.017232894897460938,0.014429330825805664
1761315426082482200,11.570482177734375,-0.022083759307861328,-0.04378318786621094,0.03447413444519043
1761315426101404200,11.589404052734375,-0.011295318603515625,-0.04370594024658203,0.05891561508178711
1761315426120326100,11.608326171875,-0.022245407104492188,-0.034857749938964844,0.04249429702758789
1761315426139248000,11.627248046875,-0.018917322158813477,0.0047092437744140625,0.033643484115600586
1761315426158170000,11.646170166015626,-0.022300004959106445,-0.005862236022949219,0.019775390625
1761315426177092000,11.665092041015624,-0.029971599578857422,0.009744644165039062,-0.0028946399688720703
1761315426196014000,11.68401416015625,-0.011284351348876953,0.013457298278808594,-0.017557382583618164
1761315426214936000,11.70293603515625,-0.005035877227783203,0.0073223114013671875,-0.022742271423339844
1761315426233858000,11.721858154296875,0.0052928924560546875,0.010687828063964844,-0.008987665176391602
1761315426252780000,11.740780029296875,-0.00118255615234375,0.02155017852783203,-0.021255970001220703
1761315426271702000,11.759701904296875,0.0205686092376709,-0.013024330139160156,-0.02585458755493164
1761315426290624000,11.7786240234375,0.013927698135375977,0.01638031005859375,-0.021228551864624023
1761315426309546000,11.7975458984375,0.009827136993408203,0.045248985290527344,-0.02439737319946289
1761315426328468000,11.816468017578124,-0.022347211837768555,0.028926849365234375,-0.05315899848937988
1761315426347390000,11.835389892578124,-0.008244037628173828,0.013162612915039062,-0.05047106742858887
1761315426366312000,11.85431201171875,0.023660659790039062,0.007452964782714844,0.022086143493652344
1761315426385234000,11.87323388671875,0.01281285285949707,-0.002506256103515625,0.015209436416625977
1761315426404156000,11.892156005859375,0.007101774215698242,0.011165618896484375,-0.028842687606811523
1761315426423078000,11.911077880859375,0.022705078125,0.019379615783691406,-0.03128385543823242
1761315426442000000,11.929999755859376,0.033065080642700195,-0.004920005798339844,0.022664546966552734
1761315426460921900,11.948921875,0.04973888397216797,0.008761405944824219,0.034046173095703125
1761315426479843800,11.96784375,0.010190248489379883,0.0220184326171875,-0.03710126876831055
1761315426498765800,11.986765869140624,0.01627492904663086,0.03519248962402344,-0.07330894470214844
1761315426517687800,12.005687744140625,0.003692150115966797,0.026544570922851562,-0.04957127571105957
1761315426536609800,12.02460986328125,0.02162027359008789,0.0044116973876953125,0.0046176910400390625
1761315426555531800,12.04353173828125,0.019866228103637695,-0.01731586456298828,0.029137372970581055
1761315426574453800,12.062453857421875,0.02278876304626465,-0.0011873245239257812,0.0016634464263916016
1761315426593375700,12.081375732421876,-0.0002777576446533203,0.00028228759765625,-0.003366231918334961
1761315426612297700,12.100297607421876,0.010237932205200195,-0.02203655242919922,0.03349590301513672
1761315426631219700,12.1192197265625,-0.0009446144104003906,-0.010485649108886719,0.05000638961791992
1761315426650141700,12.1381416015625,-0.00447535514831543,0.004979133605957031,-0.002337932586669922
1761315426669063700,12.157063720703125,-0.029222726821899414,0.01825237274169922,-0.013104677200317383
1761315426687985700,12.175985595703125,-0.04053974151611328,-0.0038881301879882812,0.00658106803894043
1761315426706907600,12.19490771484375,-0.008783340454101562,-0.011232376098632812,0.019021987915039062
1761315426725829600,12.21382958984375,0.02235889434814453,-0.011420249938964844,0.0004820823669433594
1761315426744751600,12.232751708984376,0.004957675933837891,-0.01658153533935547,0.02490854263305664
1761315426763673600,12.251673583984376,-0.0031239986419677734,-0.019270896911621094,-0.0003371238708496094
1761315426782595600,12.270595703125,-0.01141667366027832,-0.022024154663085938,0.04104495048522949
1761315426801517600,12.289517578125,0.008220434188842773,-0.0200653076171875,0.015972375869750977
1761315426820439600,12.308439453125,0.013315916061401367,-0.013478279113769531,0.015007257461547852
1761315426839361500,12.327361572265625,-0.005346775054931641,-0.00957489013671875,-0.0003218650817871094
1761315426858283500,12.346283447265625,-0.014059066772460938,0.010514259338378906,0.0011544227600097656
1761315426877205500,12.36520556640625,-0.03877973556518555,-0.0167388916015625,0.01028299331665039
1761315426896127500,12.38412744140625,-0.018239498138427734,-0.0013332366943359375,0.03516221046447754
1761315426915049500,12.403049560546876,-0.012030601501464844,-0.038176536560058594,0.03170895576477051
1761315426933971500,12.421971435546874,0.009892940521240234,-0.045676231384277344,0.024410009384155273
1761315426952893400,12.4408935546875,-0.004833698272705078,-0.04140281677246094,0.05928993225097656
1761315426971815400,12.4598154296875,0.01549839973449707,-0.009124755859375,0.03624749183654785
1761315426990737400,12.4787373046875,0.0072743892669677734,0.03143024444580078,-0.002705097198486328
1761315427009659400,12.497659423828125,0.004331350326538086,0.06386184692382812,-0.02860283851623535
1761315427028581400,12.516581298828125,0.024962663650512695,0.04881858825683594,-0.016138076782226562
1761315427047503400,12.53550341796875,0.016982555389404297,0.031510353088378906,-0.030078887939453125
1761315427066425300,12.55442529296875,0.0445704460144043,0.017507553100585938,-0.02238011360168457
1761315427085347300,12.573347412109374,0.04099154472351074,0.0063838958740234375,-0.02698802947998047
1761315427104269300,12.592269287109374,0.04202413558959961,0.014384269714355469,-0.07755780220031738
1761315427123191300,12.61119140625,0.007802724838256836,0.037932395935058594,-0.09817957878112793
1761315427142113300,12.63011328125,0.02203369140625,0.04667854309082031,-0.05067276954650879
1761315427161035300,12.64903515625,0.0266873836517334,0.01758575439453125,0.009589672088623047
1761315427179957200,12.667957275390625,0.01747584342956543,-0.010350227355957031,0.05847048759460449
1761315427198879200,12.686879150390626,0.010417938232421875,-0.009286880493164062,0.06130576133728027
1761315427217801200,12.70580126953125,0.02631354331970215,-0.02864837646484375,0.07460331916809082
1761315427236723200,12.72472314453125,-0.005242109298706055,-0.019600868225097656,0.021499156951904297
1761315427255645200,12.743645263671874,-0.03325653076171875,0.0028553009033203125,0.0169827938079834
1761315427274567200,12.762567138671875,-0.04984855651855469,-0.007555961608886719,0.01760387420654297
1761315427293489200,12.7814892578125,-0.018279552459716797,-0.010702133178710938,0.04395604133605957
1761315427312411100,12.8004111328125,0.015156984329223633,0.01717662811279297,0.05054759979248047
1761315427331333000,12.8193330078125,0.012839317321777344,0.008891105651855469,0.010388612747192383
1761315427350255000,12.838255126953126,0.019618749618530273,-0.00574493408203125,0.006613254547119141
1761315427369177000,12.857177001953126,0.03303360939025879,-0.029747962951660156,0.0361020565032959
1761315427388099000,12.87609912109375,0.024590492248535156,-0.06235027313232422,0.05782914161682129
1761315427407021000,12.89502099609375,0.043731689453125,-0.033484458923339844,0.0856161117553711
1761315427425943000,12.913943115234375,0.03840017318725586,0.0183563232421875,0.016277551651000977
1761315427444865000,12.932864990234375,0.01690959930419922,0.03798198699951172,-0.060289859771728516
1761315427463787000,12.951787109375,-0.010248899459838867,0.034203529357910156,-0.0643320083618164
1761315427482709000,12.970708984375,-0.014261960983276367,0.026337623596191406,-0.0014166831970214844
1761315427501631000,12.989630859375,0.02280735969543457,0.044777870178222656,0.0028133392333984375
1761315427520553000,13.008552978515626,-0.006301164627075195,0.0791177749633789,-0.08452558517456055
1761315427539475000,13.027474853515624,0.010055303573608398,0.07491111755371094,-0.11550712585449219
1761315427558397000,13.04639697265625,0.025774002075195312,0.05475425720214844,-0.10817766189575195
1761315427577319000,13.06531884765625,0.03161287307739258,0.03062152862548828,-0.10391473770141602
1761315427596241000,13.084240966796875,0.022856712341308594,0.0022706985473632812,-0.11569452285766602
1761315427615163000,13.103162841796875,0.006962299346923828,0.01623821258544922,-0.11283063888549805
1761315427634084900,13.1220849609375,-0.0038530826568603516,0.01611328125,-0.09298467636108398
1761315427653006800,13.1410068359375,-0.003262758255004883,0.013123512268066406,-0.060366153717041016
1761315427671928800,13.1599287109375,-0.0332796573638916,0.040915489196777344,-0.03561592102050781
1761315427690850800,13.178850830078124,-0.02719879150390625,0.028220176696777344,-0.01368093490600586
1761315427709772800,13.197772705078124,-0.032616615295410156,-0.028135299682617188,0.019217491149902344
1761315427728694800,13.21669482421875,-0.03258490562438965,-0.035933494567871094,0.0484004020690918
1761315427747616800,13.23561669921875,-0.021167516708374023,-0.04811859130859375,0.053536176681518555
1761315427766538800,13.254538818359375,-0.0337221622467041,-0.038849830627441406,0.05327582359313965
1761315427785460700,13.273460693359375,-0.03444933891296387,-0.03235626220703125,0.025072097778320312
1761315427804382700,13.2923828125,-0.014083385467529297,-0.01887226104736328,0.03740715980529785
1761315427823304700,13.3113046875,-0.01582193374633789,-0.020308494567871094,0.01686835289001465
1761315427842226400,13.330226318359376,0.014796972274780273,-0.03571891784667969,-0.00026702880859375
1761315427861148700,13.349148681640624,-0.0045928955078125,-0.018161773681640625,0.0061187744140625
1761315427880070400,13.3680703125,0.002165555953979492,-0.020191192626953125,0.012438297271728516
1761315427898992400,13.386992431640625,0.006735801696777344,-0.005421638488769531,0.03528165817260742
1761315427917914400,13.405914306640625,0.02023792266845703,0.0040683746337890625,0.008478879928588867
1761315427936836400,13.42483642578125,0.022199153900146484,0.017597198486328125,0.013322591781616211
1761315427955758600,13.443758544921875,0.021248340606689453,0.007864952087402344,0.015577554702758789
1761315427974680600,13.4626806640625,0.024797439575195312,-0.027261734008789062,0.058917999267578125
1761315427993602600,13.4816025390625,0.02151799201965332,-0.010013580322265625,0.029931068420410156
1761315428012524500,13.500524658203124,0.0025568008422851562,0.0187530517578125,-0.005028247833251953
1761315428031446500,13.519446533203125,-0.0015375614166259766,0.004536628723144531,-0.013032197952270508
1761315428050368300,13.5383681640625,0.001825571060180664,0.0020771026611328125,-0.009023189544677734
1761315428069290200,13.557290283203125,0.011693716049194336,-0.016167640686035156,0.000021219253540039062
1761315428088212200,13.576212158203125,0.025509357452392578,-0.027032852172851562,-0.005261659622192383
1761315428107134200,13.59513427734375,0.017798662185668945,-0.018929481506347656,-0.019608736038208008
1761315428126056200,13.61405615234375,0.0006444454193115234,-0.007060050964355469,-0.027949810028076172
1761315428144978200,13.632978271484374,0.0186460018157959,-0.023820877075195312,-0.008668184280395508
1761315428163900200,13.651900146484374,0.010648012161254883,0.020877838134765625,-0.0019083023071289062
1761315428182822100,13.670822265625,0.0032982826232910156,0.015430450439453125,-0.025593042373657227
1761315428201744100,13.689744140625,-0.012516260147094727,0.019721031188964844,-0.00855875015258789
1761315428220666000,13.708666015625,-0.013630867004394531,-0.001434326171875,0.017180442810058594
1761315428239588000,13.727588134765625,-0.0027141571044921875,-0.010152816772460938,0.029908180236816406
1761315428258510000,13.746510009765625,0.010321855545043945,-0.013421058654785156,0.00018715858459472656
1761315428277432000,13.76543212890625,-0.0034639835357666016,-0.01949024200439453,0.006432294845581055
1761315428296354000,13.78435400390625,0.0039594173431396484,-0.0141754150390625,0.038735151290893555
1761315428315276000,13.803276123046874,0.011313199996948242,-0.011403083801269531,0.0517425537109375
1761315428334198000,13.822197998046875,0.022722244262695312,-0.02485179901123047,0.043465375900268555
1761315428353120000,13.8411201171875,0.0010118484497070312,-0.023851394653320312,0.02098250389099121
1761315428372042000,13.8600419921875,0.003160715103149414,-0.028192520141601562,0.030362367630004883
1761315428390964000,13.8789638671875,-0.014125823974609375,-0.023273468017578125,0.053713083267211914
1761315428409886000,13.897885986328125,-0.014871835708618164,-0.0041599273681640625,0.05519890785217285
1761315428428808000,13.916807861328126,-0.0059223175048828125,0.0073947906494140625,0.014554500579833984
1761315428447730000,13.93572998046875,-0.004128694534301758,0.008991241455078125,-0.01765727996826172
1761315428466652000,13.95465185546875,-0.009371519088745117,-0.015035629272460938,0.021419525146484375
1761315428485574000,13.973573974609375,-0.0051615238189697266,-0.015134811401367188,0.018969297409057617
1761315428504495900,13.992495849609375,-0.09704995155334473,0.0822305679321289,-0.01721644401550293
1761315428523417900,14.01141796875,0.013300418853759766,0.010980606079101562,-0.042531728744506836
1761315428542339800,14.03033984375,0.08803200721740723,-0.03349590301513672,0.012901067733764648
1761315428561261800,14.04926171875,0.021199941635131836,-0.06756019592285156,0.021315336227416992
1761315428580183800,14.068183837890626,-0.06345272064208984,-0.008441925048828125,0.023219585418701172
1761315428599105800,14.087105712890626,-0.0182645320892334,-0.015969276428222656,0.012280941009521484
