time,seconds_elapsed,z,y,x
1761315414750743600,0.23874365234375,2.3808584213256836,-8.848658561706543,-3.924229145050049
1761315414779126300,0.267126220703125,2.3952155113220215,-8.800801277160645,-3.9529430866241455
1761315414798048000,0.286048095703125,2.4191436767578125,-8.817551612854004,-3.9601213932037354
1761315414816970000,0.304969970703125,2.421536445617676,-8.846264839172363,-3.950550079345703
1761315414835891700,0.3238916015625,2.423929452896118,-8.851051330566406,-3.94815731048584
1761315414854813700,0.342813720703125,2.4023938179016113,-8.848658561706543,-3.9768712520599365
1761315414873735400,0.3617353515625,2.4119651317596436,-8.846264839172363,-3.9912281036376953
1761315414892657400,0.380657470703125,2.4047868251800537,-8.8438720703125,-3.9864425659179688
1761315414911579100,0.3995791015625,2.421536445617676,-8.851051330566406,-3.94097900390625
1761315414930501000,0.418501220703125,2.4263222217559814,-8.819944381713867,-3.9361932277679443
1761315414958883800,0.4468837890625,2.3808584213256836,-8.819944381713867,-3.988835334777832
1761315414977805800,0.465805908203125,2.376072883605957,-8.805587768554688,-3.9744784832000732
1761315414996727600,0.4847275390625,2.392822742462158,-8.8438720703125,-3.9768712520599365
1761315415015649300,0.503649169921875,2.407179594039917,-8.858229637145996,-3.94815731048584
1761315415034571300,0.5225712890625,2.407179594039917,-8.855836868286133,-3.94097900390625
1761315415053493000,0.541492919921875,2.400001049041748,-8.870193481445312,-3.9194436073303223
1761315415072415000,0.5604150390625,2.3952155113220215,-8.877371788024902,-3.9218363761901855
1761315415091337000,0.5793369140625,2.407179594039917,-8.894122123718262,-3.90987229347229
1761315415110258700,0.5982587890625,2.4047868251800537,-8.86780071258545,-3.9194436073303223
1761315415129180400,0.617180419921875,2.3880369663238525,-8.896514892578125,-3.9194436073303223
1761315415148102400,0.636102294921875,2.359323024749756,-8.865407943725586,-3.9290146827697754
1761315415167024000,0.655024169921875,2.366501569747925,-8.874979019165039,-3.90987229347229
1761315415185946000,0.673946044921875,2.383251428604126,-8.82233715057373,-3.90987229347229
1761315415204867800,0.692867919921875,2.3497519493103027,-8.846264839172363,-3.9290146827697754
1761315415223789800,0.711789794921875,2.390429735183716,-8.85344409942627,-3.955335855484009
1761315415242711600,0.730711669921875,2.3569302558898926,-8.855836868286133,-3.94097900390625
1761315415261633500,0.749633544921875,2.383251428604126,-8.863015174865723,-3.9074792861938477
1761315415280555300,0.76855517578125,2.376072883605957,-8.8438720703125,-3.9361932277679443
1761315415299477200,0.787477294921875,2.3880369663238525,-8.831908226013184,-3.94097900390625
1761315415318399000,0.80639892578125,2.3952155113220215,-8.855836868286133,-3.9433717727661133
1761315415337321000,0.825321044921875,2.3856441974639893,-8.870193481445312,-3.933800458908081
1761315415356242700,0.84424267578125,2.3736801147460938,-8.882157325744629,-3.9433717727661133
1761315415375164700,0.86316455078125,2.400001049041748,-8.846264839172363,-3.90987229347229
1761315415394086400,0.88208642578125,2.359323024749756,-8.858229637145996,-3.9433717727661133
1761315415413008400,0.90100830078125,2.3569302558898926,-8.874979019165039,-3.91705060005188
1761315415431930000,0.91993017578125,2.366501569747925,-8.908478736877441,-3.8979079723358154
1761315415450852000,0.93885205078125,2.3736801147460938,-8.896514892578125,-3.8739798069000244
1761315415469773800,0.95777392578125,2.368894338607788,-8.898907661437988,-3.8883368968963623
1761315415488695800,0.97669580078125,2.3401806354522705,-8.889336585998535,-3.9050865173339844
1761315415507617500,0.995617431640625,2.359323024749756,-8.886942863464355,-3.8979079723358154
1761315415526539500,1.01453955078125,2.352144718170166,-8.882157325744629,-3.902693748474121
1761315415545461200,1.033461181640625,2.3712873458862305,-8.886942863464355,-3.9146578311920166
1761315415564383200,1.05238330078125,2.3784656524658203,-8.894122123718262,-3.8811583518981934
1761315415583305000,1.071304931640625,2.3808584213256836,-8.879764556884766,-3.8668015003204346
1761315415602227000,1.09022705078125,2.3808584213256836,-8.894122123718262,-3.895515203475952
1761315415621148700,1.109148681640625,2.3497519493103027,-8.870193481445312,-3.8979079723358154
1761315415640067000,1.128067138671875,2.352144718170166,-8.879764556884766,-3.895515203475952
1761315415658989000,1.146989013671875,2.342573404312134,-8.889336585998535,-3.871587038040161
1761315415677910800,1.165910888671875,2.344966173171997,-8.874979019165039,-3.8907296657562256
1761315415696832800,1.184832763671875,2.3736801147460938,-8.884550094604492,-3.85483717918396
1761315415715754500,1.20375439453125,2.3856441974639893,-8.882157325744629,-3.88594388961792
1761315415734676200,1.22267626953125,2.3808584213256836,-8.906085968017578,-3.9074792861938477
1761315415753598200,1.24159814453125,2.3545374870300293,-8.891729354858398,-3.900300979614258
1761315415772520200,1.260520263671875,2.359323024749756,-8.891729354858398,-3.88594388961792
1761315415791442000,1.27944189453125,2.400001049041748,-8.882157325744629,-3.8979079723358154
1761315415810364000,1.298364013671875,2.366501569747925,-8.858229637145996,-3.94097900390625
1761315415829285600,1.31728564453125,2.3569302558898926,-8.831908226013184,-3.9625144004821777
1761315415848207600,1.33620751953125,2.3736801147460938,-8.874979019165039,-3.91705060005188
1761315415867129300,1.35512939453125,2.3880369663238525,-8.908478736877441,-3.869194269180298
1761315415886051300,1.37405126953125,2.390429735183716,-8.901300430297852,-3.8763725757598877
1761315415904973000,1.39297314453125,2.3808584213256836,-8.906085968017578,-3.8835511207580566
1761315415923895000,1.41189501953125,2.3473589420318604,-8.901300430297852,-3.8668015003204346
1761315415942816800,1.430816650390625,2.344966173171997,-8.908478736877441,-3.893122434616089
1761315415961738800,1.44973876953125,2.3306093215942383,-8.879764556884766,-3.900300979614258
1761315415980660500,1.468660400390625,2.337787628173828,-8.851051330566406,-3.90987229347229
1761315415999582500,1.48758251953125,2.3186452388763428,-8.86062240600586,-3.91705060005188
1761315416018504200,1.506504150390625,2.3497519493103027,-8.891729354858398,-3.8883368968963623
1761315416037426200,1.52542626953125,2.342573404312134,-8.896514892578125,-3.9074792861938477
1761315416056348000,1.544347900390625,2.342573404312134,-8.889336585998535,-3.900300979614258
1761315416075270000,1.563269775390625,2.342573404312134,-8.882157325744629,-3.871587038040161
1761315416094191600,1.582191650390625,2.3330020904541016,-8.915657043457031,-3.9122650623321533
1761315416113113600,1.601113525390625,2.3473589420318604,-8.925228118896484,-3.895515203475952
1761315416132035600,1.62003564453125,2.344966173171997,-8.910871505737305,-3.84765887260437
1761315416150957300,1.638957275390625,2.352144718170166,-8.901300430297852,-3.8500516414642334
1761315416169879300,1.65787939453125,2.342573404312134,-8.894122123718262,-3.8596229553222656
1761315416188801000,1.676801025390625,2.304288148880005,-8.906085968017578,-3.869194269180298
1761315416207723000,1.695722900390625,2.3186452388763428,-8.882157325744629,-3.862015724182129
1761315416226644700,1.714644775390625,2.3258235454559326,-8.882157325744629,-3.8883368968963623
1761315416245566700,1.733566650390625,2.328216314315796,-8.865407943725586,-3.90987229347229
1761315416264488400,1.752488525390625,2.3162522315979004,-8.884550094604492,-3.8835511207580566
1761315416283410400,1.771410400390625,2.359323024749756,-8.894122123718262,-3.862015724182129
1761315416302332200,1.790332275390625,2.352144718170166,-8.863015174865723,-3.90987229347229
1761315416321254100,1.809254150390625,2.3473589420318604,-8.839086532592773,-3.9361932277679443
1761315416340176000,1.82817578125,2.368894338607788,-8.879764556884766,-3.900300979614258
1761315416359097900,1.847097900390625,2.392822742462158,-8.903693199157715,-3.88594388961792
1761315416378019800,1.866019775390625,2.4119651317596436,-8.910871505737305,-3.871587038040161
1761315416396941600,1.884941650390625,2.390429735183716,-8.901300430297852,-3.900300979614258
1761315416415863600,1.903863525390625,2.3808584213256836,-8.874979019165039,-3.900300979614258
1761315416434785300,1.922785400390625,2.3808584213256836,-8.86780071258545,-3.8739798069000244
1761315416453707300,1.941707275390625,2.4047868251800537,-8.884550094604492,-3.869194269180298
1761315416472629000,1.96062890625,2.392822742462158,-8.863015174865723,-3.895515203475952
1761315416491551000,1.979551025390625,2.368894338607788,-8.85344409942627,-3.9122650623321533
1761315416510472700,1.99847265625,2.366501569747925,-8.82951545715332,-3.933800458908081
1761315416529394700,2.017394775390625,2.368894338607788,-8.8438720703125,-3.94097900390625
1761315416548316700,2.036316650390625,2.392822742462158,-8.882157325744629,-3.91705060005188
1761315416567238400,2.05523828125,2.366501569747925,-8.872586250305176,-3.9074792861938477
1761315416586160400,2.074160400390625,2.3641088008880615,-8.886942863464355,-3.90987229347229
1761315416605082000,2.09308203125,2.344966173171997,-8.906085968017578,-3.87876558303833
1761315416624004000,2.112004150390625,2.3545374870300293,-8.915657043457031,-3.8572301864624023
1761315416642926000,2.130926025390625,2.342573404312134,-8.872586250305176,-3.8763725757598877
1761315416661847800,2.149847900390625,2.359323024749756,-8.874979019165039,-3.8979079723358154
1761315416680769800,2.168769775390625,2.3569302558898926,-8.882157325744629,-3.9050865173339844
1761315416699691500,2.18769140625,2.342573404312134,-8.870193481445312,-3.9194436073303223
1761315416718613500,2.206613525390625,2.342573404312134,-8.858229637145996,-3.9074792861938477
1761315416737535500,2.225535400390625,2.3473589420318604,-8.848658561706543,-3.9696927070617676
1761315416756457200,2.244457275390625,2.3617160320281982,-8.85344409942627,-3.9744784832000732
1761315416775379200,2.263379150390625,2.3712873458862305,-8.86780071258545,-3.9361932277679443
1761315416794301000,2.282301025390625,2.383251428604126,-8.908478736877441,-3.87876558303833
1761315416813223000,2.301222900390625,2.3712873458862305,-8.870193481445312,-3.9050865173339844
1761315416832145000,2.320144775390625,2.3473589420318604,-8.831908226013184,-3.9457645416259766
1761315416851066600,2.339066650390625,2.3497519493103027,-8.839086532592773,-3.972085475921631
1761315416869988600,2.357988525390625,2.344966173171997,-8.877371788024902,-3.9146578311920166
1761315416888910300,2.376910400390625,2.359323024749756,-8.910871505737305,-3.869194269180298
1761315416907832300,2.395832275390625,2.366501569747925,-8.886942863464355,-3.8883368968963623
1761315416926754300,2.41475439453125,2.342573404312134,-8.901300430297852,-3.8811583518981934
1761315416945676000,2.433676025390625,2.3186452388763428,-8.901300430297852,-3.869194269180298
1761315416964598000,2.452597900390625,2.3234307765960693,-8.918049812316895,-3.82373046875
1761315416983519700,2.471519775390625,2.352144718170166,-8.886942863464355,-3.82373046875
1761315417002441700,2.490441650390625,2.3258235454559326,-8.884550094604492,-3.8883368968963623
1761315417021363700,2.50936376953125,2.3330020904541016,-8.894122123718262,-3.9122650623321533
1761315417040285400,2.528285400390625,2.3497519493103027,-8.894122123718262,-3.9194436073303223
1761315417059207400,2.54720751953125,2.3736801147460938,-8.882157325744629,-3.9146578311920166
1761315417078129400,2.56612939453125,2.3712873458862305,-8.877371788024902,-3.91705060005188
1761315417097051100,2.585051025390625,2.376072883605957,-8.874979019165039,-3.902693748474121
1761315417115973000,2.60397314453125,2.376072883605957,-8.872586250305176,-3.8883368968963623
1761315417134895000,2.62289501953125,2.3641088008880615,-8.898907661437988,-3.8907296657562256
1761315417153816800,2.64181689453125,2.368894338607788,-8.872586250305176,-3.895515203475952
1761315417172738800,2.66073876953125,2.366501569747925,-8.896514892578125,-3.9218363761901855
1761315417191660800,2.679660888671875,2.352144718170166,-8.870193481445312,-3.8811583518981934
1761315417210582500,2.69858251953125,2.3617160320281982,-8.920442581176758,-3.864408493041992
1761315417229504500,2.71750439453125,2.3617160320281982,-8.901300430297852,-3.864408493041992
1761315417248426200,2.73642626953125,2.3330020904541016,-8.870193481445312,-3.902693748474121
1761315417267348200,2.75534814453125,2.3162522315979004,-8.882157325744629,-3.9290146827697754
1761315417286270200,2.774270263671875,2.3306093215942383,-8.891729354858398,-3.9122650623321533
1761315417305192200,2.793192138671875,2.359323024749756,-8.920442581176758,-3.8835511207580566
1761315417324114000,2.812114013671875,2.3545374870300293,-8.884550094604492,-3.88594388961792
1761315417343036000,2.831035888671875,2.3617160320281982,-8.86062240600586,-3.926621913909912
1761315417361957600,2.84995751953125,2.344966173171997,-8.851051330566406,-3.9361932277679443
1761315417380879600,2.868879638671875,2.3497519493103027,-8.870193481445312,-3.9314076900482178
1761315417399801600,2.887801513671875,2.337787628173828,-8.870193481445312,-3.9457645416259766
1761315417418723300,2.906723388671875,2.342573404312134,-8.874979019165039,-3.94815731048584
1761315417437645300,2.925645263671875,2.3258235454559326,-8.877371788024902,-3.9625144004821777
1761315417456567300,2.9445673828125,2.3186452388763428,-8.894122123718262,-3.9194436073303223
1761315417475489300,2.9634892578125,2.3186452388763428,-8.877371788024902,-3.9122650623321533
1761315417494411000,2.982410888671875,2.3186452388763428,-8.863015174865723,-3.933800458908081
1761315417513333000,3.0013330078125,2.306680917739868,-8.855836868286133,-3.9218363761901855
1761315417532255000,3.0202548828125,2.3090739250183105,-8.884550094604492,-3.9314076900482178
1761315417551176700,3.0391767578125,2.3162522315979004,-8.874979019165039,-3.900300979614258
1761315417570098700,3.0580986328125,2.3162522315979004,-8.846264839172363,-3.933800458908081
1761315417589020700,3.077020751953125,2.3569302558898926,-8.85344409942627,-3.9385859966278076
1761315417607942400,3.0959423828125,2.3736801147460938,-8.848658561706543,-3.895515203475952
1761315417626864400,3.114864501953125,2.390429735183716,-8.855836868286133,-3.9218363761901855
1761315417645786400,3.133786376953125,2.438286304473877,-8.82233715057373,-3.9361932277679443
1761315417664708400,3.152708251953125,2.438286304473877,-8.81515884399414,-3.9864425659179688
1761315417683630000,3.171630126953125,2.4335005283355713,-8.817551612854004,-3.9912281036376953
1761315417702552000,3.190552001953125,2.4502503871917725,-8.882157325744629,-3.9529430866241455
1761315417721474000,3.20947412109375,2.455035924911499,-8.913264274597168,-3.87876558303833
1761315417740395800,3.228395751953125,2.4406790733337402,-8.920442581176758,-3.840480327606201
1761315417759317800,3.24731787109375,2.3880369663238525,-8.910871505737305,-3.88594388961792
1761315417778239700,3.26623974609375,2.328216314315796,-8.901300430297852,-3.8668015003204346
1761315417797161700,3.28516162109375,2.321038007736206,-8.927620887756348,-3.814159393310547
1761315417816083500,3.30408349609375,2.3090739250183105,-8.910871505737305,-3.81655216217041
1761315417835005400,3.32300537109375,2.3306093215942383,-8.877371788024902,-3.8572301864624023
1761315417853927400,3.341927490234375,2.3330020904541016,-8.863015174865723,-3.9146578311920166
1761315417872849200,3.36084912109375,2.359323024749756,-8.82233715057373,-3.9314076900482178
1761315417891771100,3.379771240234375,2.400001049041748,-8.851051330566406,-3.924229145050049
1761315417910693000,3.398693115234375,2.4263222217559814,-8.846264839172363,-3.9385859966278076
1761315417929615000,3.417614990234375,2.4335005283355713,-8.85344409942627,-3.9912281036376953
1761315417948537000,3.436537109375,2.4430718421936035,-8.858229637145996,-3.9936211109161377
1761315417967458800,3.455458740234375,2.438286304473877,-8.817551612854004,-3.9840497970581055
1761315417986380800,3.474380859375,2.445464849472046,-8.851051330566406,-3.9672999382019043
1761315418005302800,3.493302734375,2.4287149906158447,-8.831908226013184,-3.9840497970581055
1761315418024224500,3.512224609375,2.4095723628997803,-8.80798053741455,-3.981656789779663
1761315418043146500,3.531146484375,2.421536445617676,-8.819944381713867,-3.9433717727661133
1761315418062068500,3.550068359375,2.423929452896118,-8.82233715057373,-3.94815731048584
1761315418080990500,3.568990478515625,2.400001049041748,-8.774480819702148,-3.9864425659179688
1761315418099912400,3.587912353515625,2.3952155113220215,-8.800801277160645,-4.005585193634033
1761315418118834200,3.606834228515625,2.3976082801818848,-8.803194046020508,-4.01037073135376
1761315418137756200,3.625756103515625,2.400001049041748,-8.817551612854004,-3.955335855484009
1761315418156678100,3.64467822265625,2.421536445617676,-8.83669376373291,-3.9314076900482178
1761315418175599900,3.663599853515625,2.392822742462158,-8.863015174865723,-3.9601213932037354
1761315418194521900,3.68252197265625,2.414358139038086,-8.865407943725586,-3.94815731048584
1761315418213443800,3.70144384765625,2.390429735183716,-8.894122123718262,-3.9122650623321533
1761315418232365800,3.72036572265625,2.3617160320281982,-8.886942863464355,-3.9194436073303223
1761315418251287800,3.739287841796875,2.3401806354522705,-8.894122123718262,-3.9290146827697754
1761315418270209500,3.75820947265625,2.2995026111602783,-8.908478736877441,-3.9074792861938477
1761315418289131500,3.777131591796875,2.3018953800201416,-8.949156761169434,-3.85483717918396
1761315418308053500,3.796053466796875,2.2995026111602783,-8.994620323181152,-3.783052682876587
1761315418326975500,3.8149755859375,2.304288148880005,-8.987442016601562,-3.7328033447265625
1761315418345897200,3.833897216796875,2.2923240661621094,-8.94676399230957,-3.792623996734619
1761315418364819200,3.852819091796875,2.2779672145843506,-8.86780071258545,-3.893122434616089
1761315418383741200,3.8717412109375,2.2707886695861816,-8.882157325744629,-3.900300979614258
1761315418402663200,3.8906630859375,2.321038007736206,-8.903693199157715,-3.8883368968963623
1761315418421585200,3.909585205078125,2.342573404312134,-8.949156761169434,-3.893122434616089
1761315418440507100,3.928507080078125,2.3473589420318604,-8.922835350036621,-3.902693748474121
1761315418459428900,3.947428955078125,2.311466693878174,-8.855836868286133,-3.9912281036376953
1761315418478350800,3.966350830078125,2.3234307765960693,-8.791230201721191,-4.051048755645752
1761315418497272800,3.98527294921875,2.344966173171997,-8.803194046020508,-4.027120590209961
1761315418516194800,4.00419482421875,2.366501569747925,-8.810373306274414,-3.9936211109161377
1761315418535116500,4.023116455078125,2.3736801147460938,-8.834300994873047,-3.94097900390625
1761315418554038500,4.04203857421875,2.3234307765960693,-8.858229637145996,-3.9529430866241455
1761315418572960500,4.06096044921875,2.3162522315979004,-8.891729354858398,-3.91705060005188
1761315418591882500,4.079882568359375,2.3186452388763428,-8.903693199157715,-3.8811583518981934
1761315418610804500,4.098804443359375,2.3162522315979004,-8.903693199157715,-3.840480327606201
1761315418629726500,4.1177265625,2.313859462738037,-8.96112060546875,-3.81655216217041
1761315418648648200,4.136648193359375,2.3186452388763428,-8.930013656616211,-3.799802303314209
1761315418667570200,4.155570068359375,2.335394859313965,-8.894122123718262,-3.82373046875
1761315418686492200,4.1744921875,2.3473589420318604,-8.889336585998535,-3.8572301864624023
1761315418705414100,4.1934140625,2.3641088008880615,-8.872586250305176,-3.8979079723358154
1761315418724336000,4.212336181640625,2.392822742462158,-8.851051330566406,-3.869194269180298
1761315418743257900,4.2312578125,2.407179594039917,-8.872586250305176,-3.869194269180298
1761315418762179800,4.250179931640625,2.4119651317596436,-8.85344409942627,-3.91705060005188
1761315418781101800,4.269101806640625,2.4023938179016113,-8.870193481445312,-3.94097900390625
1761315418800023800,4.28802392578125,2.3880369663238525,-8.882157325744629,-3.9146578311920166
1761315418818945800,4.30694580078125,2.4287149906158447,-8.908478736877441,-3.8189449310302734
1761315418837867800,4.32586767578125,2.423929452896118,-8.879764556884766,-3.814159393310547
1761315418856789500,4.34478955078125,2.3856441974639893,-8.908478736877441,-3.8500516414642334
1761315418875711500,4.36371142578125,2.368894338607788,-8.922835350036621,-3.8811583518981934
1761315418894633500,4.382633544921875,2.3545374870300293,-8.922835350036621,-3.8356947898864746
1761315418913555500,4.401555419921875,2.3617160320281982,-8.949156761169434,-3.809373617172241
1761315418932477400,4.4204775390625,2.335394859313965,-8.93958568572998,-3.8285162448883057
1761315418951399200,4.439399169921875,2.3090739250183105,-8.941978454589844,-3.8668015003204346
1761315418970321200,4.458321044921875,2.2779672145843506,-8.934800148010254,-3.8668015003204346
1761315418989243100,4.4772431640625,2.2947168350219727,-8.934800148010254,-3.8356947898864746
1761315419008165000,4.4961650390625,2.2995026111602783,-8.925228118896484,-3.8285162448883057
1761315419027087000,4.515087158203125,2.311466693878174,-8.901300430297852,-3.869194269180298
1761315419046009000,4.534009033203125,2.3186452388763428,-8.915657043457031,-3.87876558303833
1761315419064930800,4.552930908203125,2.311466693878174,-8.913264274597168,-3.8979079723358154
1761315419083852800,4.571852783203125,2.3162522315979004,-8.891729354858398,-3.8979079723358154
1761315419102774800,4.59077490234375,2.3186452388763428,-8.865407943725586,-3.91705060005188
1761315419121696800,4.60969677734375,2.337787628173828,-8.851051330566406,-3.9912281036376953
1761315419140618800,4.62861865234375,2.359323024749756,-8.834300994873047,-3.9768712520599365
1761315419159540700,4.647540771484375,2.390429735183716,-8.81515884399414,-3.9457645416259766
1761315419178462700,4.666462646484375,2.4047868251800537,-8.831908226013184,-3.9433717727661133
1761315419197384400,4.685384521484375,2.4023938179016113,-8.80798053741455,-3.9984066486358643
1761315419216306400,4.704306396484375,2.383251428604126,-8.810373306274414,-4.01037073135376
1761315419235228400,4.723228515625,2.392822742462158,-8.83669376373291,-3.9768712520599365
1761315419254150400,4.742150390625,2.390429735183716,-8.841479301452637,-3.94815731048584
1761315419273072400,4.761072265625,2.390429735183716,-8.863015174865723,-3.9529430866241455
1761315419291994400,4.779994384765625,2.4119651317596436,-8.858229637145996,-3.9194436073303223
1761315419310916400,4.798916259765625,2.4047868251800537,-8.86062240600586,-3.893122434616089
1761315419329838000,4.817838134765625,2.390429735183716,-8.86062240600586,-3.8979079723358154
1761315419348760000,4.836760009765625,2.3952155113220215,-8.827122688293457,-3.94815731048584
1761315419367682000,4.85568212890625,2.3712873458862305,-8.831908226013184,-3.964907169342041
1761315419386604000,4.87460400390625,2.4119651317596436,-8.839086532592773,-3.902693748474121
1761315419405526000,4.893526123046875,2.4119651317596436,-8.884550094604492,-3.9074792861938477
1761315419424448000,4.912447998046875,2.3976082801818848,-8.879764556884766,-3.9385859966278076
1761315419443369700,4.93136962890625,2.376072883605957,-8.877371788024902,-3.9385859966278076
1761315419462291700,4.950291748046875,2.366501569747925,-8.898907661437988,-3.9050865173339844
1761315419481213700,4.969213623046875,2.3712873458862305,-8.901300430297852,-3.869194269180298
1761315419500135700,4.9881357421875,2.376072883605957,-8.934800148010254,-3.8261234760284424
1761315419519057700,5.0070576171875,2.3569302558898926,-8.925228118896484,-3.814159393310547
1761315419537979600,5.025979736328125,2.3497519493103027,-8.901300430297852,-3.8333017826080322
1761315419556901600,5.044901611328125,2.3258235454559326,-8.889336585998535,-3.862015724182129
1761315419575823600,5.06382373046875,2.335394859313965,-8.891729354858398,-3.8596229553222656
1761315419594745300,5.082745361328125,2.3401806354522705,-8.941978454589844,-3.8428730964660645
1761315419613667300,5.101667236328125,2.3545374870300293,-8.922835350036621,-3.84765887260437
1761315419632589300,5.12058935546875,2.3330020904541016,-8.906085968017578,-3.8333017826080322
1761315419651511300,5.13951123046875,2.3473589420318604,-8.958727836608887,-3.8261234760284424
1761315419670433300,5.158433349609375,2.344966173171997,-8.891729354858398,-3.85483717918396
1761315419689355300,5.177355224609375,2.3569302558898926,-8.851051330566406,-3.91705060005188
1761315419708277200,5.19627734375,2.352144718170166,-8.846264839172363,-3.94097900390625
1761315419727199200,5.21519921875,2.3569302558898926,-8.872586250305176,-3.926621913909912
1761315419746121200,5.234121337890625,2.352144718170166,-8.896514892578125,-3.8668015003204346
1761315419765043000,5.25304296875,2.366501569747925,-8.886942863464355,-3.88594388961792
1761315419783965000,5.27196484375,2.359323024749756,-8.877371788024902,-3.9050865173339844
1761315419802887000,5.290886962890625,2.3641088008880615,-8.86780071258545,-3.87876558303833
1761315419821809000,5.309808837890625,2.366501569747925,-8.896514892578125,-3.8333017826080322
1761315419840731000,5.32873095703125,2.383251428604126,-8.874979019165039,-3.840480327606201
1761315419859652900,5.34765283203125,2.366501569747925,-8.865407943725586,-3.8979079723358154
1761315419878574800,5.366574951171875,2.3569302558898926,-8.839086532592773,-3.9385859966278076
1761315419897496800,5.385496826171875,2.359323024749756,-8.889336585998535,-3.900300979614258
1761315419916418800,5.404418701171875,2.3497519493103027,-8.930013656616211,-3.840480327606201
1761315419935340500,5.423340576171875,2.3617160320281982,-8.896514892578125,-3.88594388961792
1761315419954262500,5.442262451171875,2.3497519493103027,-8.915657043457031,-3.900300979614258
1761315419973184500,5.4611845703125,2.335394859313965,-8.906085968017578,-3.8572301864624023
1761315419992106500,5.4801064453125,2.366501569747925,-8.918049812316895,-3.8356947898864746
1761315420011028500,5.499028564453125,2.342573404312134,-8.920442581176758,-3.8428730964660645
1761315420029950500,5.517950439453125,2.328216314315796,-8.930013656616211,-3.8428730964660645
1761315420048872400,5.53687255859375,2.3306093215942383,-8.951549530029297,-3.830909013748169
1761315420067794400,5.55579443359375,2.3258235454559326,-8.927620887756348,-3.799802303314209
1761315420086716400,5.57471630859375,2.359323024749756,-8.906085968017578,-3.8285162448883057
1761315420105638400,5.593638427734375,2.3401806354522705,-8.901300430297852,-3.85483717918396
1761315420124560100,5.61256005859375,2.335394859313965,-8.903693199157715,-3.864408493041992
1761315420143482000,5.631482177734375,2.352144718170166,-8.896514892578125,-3.862015724182129
1761315420162404000,5.650404052734375,2.366501569747925,-8.877371788024902,-3.8811583518981934
1761315420181326000,5.669326171875,2.383251428604126,-8.906085968017578,-3.87876558303833
1761315420200248000,5.688248046875,2.383251428604126,-8.894122123718262,-3.900300979614258
1761315420219170000,5.707170166015625,2.3952155113220215,-8.903693199157715,-3.900300979614258
1761315420238092000,5.726092041015625,2.359323024749756,-8.913264274597168,-3.871587038040161
1761315420257014000,5.745013916015625,2.359323024749756,-8.901300430297852,-3.869194269180298
1761315420275936000,5.76393603515625,2.3569302558898926,-8.874979019165039,-3.9074792861938477
1761315420294858000,5.78285791015625,2.337787628173828,-8.874979019165039,-3.8979079723358154
1761315420313779700,5.80177978515625,2.3497519493103027,-8.884550094604492,-3.871587038040161
1761315420332701700,5.82070166015625,2.3545374870300293,-8.886942863464355,-3.85483717918396
1761315420351623700,5.839623779296875,2.3641088008880615,-8.848658561706543,-3.8907296657562256
1761315420370545700,5.858545654296875,2.344966173171997,-8.863015174865723,-3.9361932277679443
1761315420389467600,5.877467529296875,2.3712873458862305,-8.894122123718262,-3.9122650623321533
1761315420408389600,5.8963896484375,2.368894338607788,-8.930013656616211,-3.8763725757598877
1761315420427311600,5.9153115234375,2.3712873458862305,-8.944371223449707,-3.8596229553222656
1761315420446233600,5.934233642578125,2.368894338607788,-8.906085968017578,-3.871587038040161
1761315420465155600,5.953155517578125,2.3473589420318604,-8.882157325744629,-3.9146578311920166
1761315420484077600,5.97207763671875,2.3162522315979004,-8.855836868286133,-3.924229145050049
1761315420502999300,5.990999267578125,2.321038007736206,-8.86780071258545,-3.893122434616089
1761315420521921300,6.00992138671875,2.3234307765960693,-8.879764556884766,-3.8763725757598877
1761315420540843300,6.02884326171875,2.359323024749756,-8.855836868286133,-3.8811583518981934
1761315420559765200,6.04776513671875,2.342573404312134,-8.886942863464355,-3.91705060005188
1761315420578687200,6.066687255859375,2.342573404312134,-8.851051330566406,-3.94097900390625
1761315420597609200,6.085609130859375,2.3401806354522705,-8.86780071258545,-3.9146578311920166
1761315420616531200,6.10453125,2.368894338607788,-8.879764556884766,-3.9314076900482178
1761315420635453200,6.123453125,2.3712873458862305,-8.874979019165039,-3.9122650623321533
1761315420654375200,6.142375244140625,2.366501569747925,-8.85344409942627,-3.902693748474121
1761315420673297200,6.161297119140625,2.407179594039917,-8.874979019165039,-3.90987229347229
1761315420692219100,6.18021923828125,2.383251428604126,-8.886942863464355,-3.87876558303833
1761315420711141000,6.19914111328125,2.352144718170166,-8.918049812316895,-3.84765887260437
1761315420730062800,6.218062744140625,2.3569302558898926,-8.97787094116211,-3.8213376998901367
1761315420748984800,6.23698486328125,2.3186452388763428,-8.949156761169434,-3.783052682876587
1761315420767906800,6.25590673828125,2.2947168350219727,-8.97787094116211,-3.8021950721740723
1761315420786828800,6.274828857421875,2.2636101245880127,-8.965906143188477,-3.8021950721740723
1761315420805750800,6.293750732421875,2.2636101245880127,-8.949156761169434,-3.792623996734619
1761315420824672800,6.3126728515625,2.2923240661621094,-8.930013656616211,-3.8021950721740723
1761315420843594800,6.3315947265625,2.3018953800201416,-8.898907661437988,-3.838087558746338
1761315420862516700,6.350516845703125,2.304288148880005,-8.877371788024902,-3.88594388961792
1761315420881438700,6.369438720703125,2.313859462738037,-8.889336585998535,-3.91705060005188
1761315420900360700,6.388360595703125,2.3808584213256836,-8.915657043457031,-3.871587038040161
1761315420919282700,6.40728271484375,2.383251428604126,-8.93240737915039,-3.895515203475952
1761315420938204700,6.42620458984375,2.376072883605957,-8.913264274597168,-3.895515203475952
1761315420957126700,6.445126708984375,2.3880369663238525,-8.874979019165039,-3.9074792861938477
1761315420976048600,6.464048583984375,2.3784656524658203,-8.86062240600586,-3.8811583518981934
1761315420994970400,6.482970458984375,2.414358139038086,-8.870193481445312,-3.8835511207580566
1761315421013892400,6.501892333984375,2.431107759475708,-8.858229637145996,-3.8572301864624023
1761315421032814300,6.520814453125,2.4263222217559814,-8.874979019165039,-3.8596229553222656
1761315421051736300,6.539736328125,2.416750907897949,-8.824729919433594,-3.8907296657562256
1761315421070658300,6.558658203125,2.4119651317596436,-8.82951545715332,-3.9290146827697754
1761315421089580300,6.577580322265625,2.423929452896118,-8.834300994873047,-3.9290146827697754
1761315421108502300,6.596502197265625,2.4191436767578125,-8.86062240600586,-3.9218363761901855
1761315421127424300,6.61542431640625,2.4023938179016113,-8.86780071258545,-3.902693748474121
1761315421146346200,6.63434619140625,2.414358139038086,-8.884550094604492,-3.900300979614258
1761315421165268200,6.653268310546875,2.4095723628997803,-8.886942863464355,-3.869194269180298
1761315421184190200,6.672190185546875,2.392822742462158,-8.874979019165039,-3.869194269180298
1761315421203112200,6.6911123046875,2.368894338607788,-8.863015174865723,-3.902693748474121
1761315421222034200,6.7100341796875,2.352144718170166,-8.910871505737305,-3.895515203475952
1761315421240956200,6.7289560546875,2.3473589420318604,-8.898907661437988,-3.8261234760284424
1761315421259878100,6.747878173828125,2.335394859313965,-8.937192916870117,-3.8045880794525146
1761315421278800000,6.7667998046875,2.3306093215942383,-8.910871505737305,-3.862015724182129
1761315421297721900,6.785721923828125,2.3162522315979004,-8.896514892578125,-3.8907296657562256
1761315421316643800,6.804643798828125,2.313859462738037,-8.879764556884766,-3.84765887260437
1761315421335565800,6.82356591796875,2.3234307765960693,-8.886942863464355,-3.8524444103240967
1761315421354487800,6.84248779296875,2.3306093215942383,-8.894122123718262,-3.87876558303833
1761315421373409800,6.861409912109375,2.3234307765960693,-8.884550094604492,-3.9050865173339844
1761315421392331800,6.880331787109375,2.344966173171997,-8.891729354858398,-3.893122434616089
1761315421411253800,6.899253662109375,2.3258235454559326,-8.915657043457031,-3.8835511207580566
1761315421430175700,6.91817578125,2.3401806354522705,-8.956335067749023,-3.8883368968963623
1761315421449097700,6.93709765625,2.328216314315796,-8.934800148010254,-3.864408493041992
1761315421468019700,6.956019775390625,2.3162522315979004,-8.930013656616211,-3.8596229553222656
1761315421486941700,6.974941650390625,2.3186452388763428,-8.930013656616211,-3.814159393310547
1761315421505863700,6.99386376953125,2.328216314315796,-8.93240737915039,-3.8356947898864746
1761315421524785700,7.01278564453125,2.304288148880005,-8.906085968017578,-3.845266103744507
1761315421543707400,7.031707275390625,2.2851455211639404,-8.918049812316895,-3.845266103744507
1761315421562629400,7.05062939453125,2.2947168350219727,-8.937192916870117,-3.838087558746338
1761315421581551400,7.06955126953125,2.280359983444214,-8.956335067749023,-3.8428730964660645
1761315421600473300,7.088473388671875,2.2995026111602783,-8.951549530029297,-3.8213376998901367
1761315421619395300,7.107395263671875,2.306680917739868,-8.927620887756348,-3.838087558746338
1761315421638317300,7.1263173828125,2.2923240661621094,-8.941978454589844,-3.8333017826080322
1761315421657239300,7.1452392578125,2.287538528442383,-8.94676399230957,-3.8572301864624023
1761315421676161300,7.164161376953125,2.3018953800201416,-8.922835350036621,-3.8333017826080322
1761315421695083300,7.183083251953125,2.297109842300415,-8.927620887756348,-3.8572301864624023
1761315421714005200,7.202005126953125,2.3186452388763428,-8.922835350036621,-3.8811583518981934
1761315421732927200,7.22092724609375,2.2923240661621094,-8.918049812316895,-3.8668015003204346
1761315421751849200,7.23984912109375,2.3186452388763428,-8.927620887756348,-3.8500516414642334
1761315421770771200,7.258771240234375,2.304288148880005,-8.915657043457031,-3.82373046875
1761315421789693200,7.277693115234375,2.3401806354522705,-8.915657043457031,-3.862015724182129
1761315421808615200,7.296615234375,2.328216314315796,-8.903693199157715,-3.8883368968963623
1761315421827537200,7.315537109375,2.366501569747925,-8.891729354858398,-3.838087558746338
1761315421846459000,7.334458984375,2.376072883605957,-8.906085968017578,-3.85483717918396
1761315421865380900,7.353380859375,2.3617160320281982,-8.846264839172363,-3.9122650623321533
1761315421884302800,7.372302734375,2.3617160320281982,-8.827122688293457,-3.9361932277679443
1761315421903224800,7.391224853515625,2.376072883605957,-8.874979019165039,-3.9218363761901855
1761315421922146800,7.410146728515625,2.4023938179016113,-8.898907661437988,-3.8811583518981934
1761315421941068800,7.42906884765625,2.3880369663238525,-8.910871505737305,-3.85483717918396
1761315421959990800,7.44799072265625,2.3617160320281982,-8.894122123718262,-3.869194269180298
1761315421978912800,7.466912841796875,2.3617160320281982,-8.898907661437988,-3.87876558303833
1761315421997834800,7.485834716796875,2.352144718170166,-8.891729354858398,-3.8428730964660645
1761315422016756700,7.5047568359375,2.390429735183716,-8.908478736877441,-3.8045880794525146
1761315422035678700,7.5236787109375,2.400001049041748,-8.894122123718262,-3.8500516414642334
1761315422054600700,7.5426005859375,2.366501569747925,-8.877371788024902,-3.8907296657562256
1761315422073522700,7.561522705078125,2.366501569747925,-8.891729354858398,-3.893122434616089
1761315422092444700,7.580444580078125,2.383251428604126,-8.896514892578125,-3.869194269180298
1761315422111366700,7.59936669921875,2.390429735183716,-8.910871505737305,-3.8668015003204346
1761315422130288600,7.61828857421875,2.3880369663238525,-8.884550094604492,-3.8835511207580566
1761315422149210600,7.637210693359375,2.3569302558898926,-8.891729354858398,-3.9050865173339844
1761315422168132600,7.656132568359375,2.335394859313965,-8.896514892578125,-3.893122434616089
1761315422187054600,7.6750546875,2.335394859313965,-8.913264274597168,-3.8763725757598877
1761315422205976600,7.6939765625,2.3258235454559326,-8.886942863464355,-3.8213376998901367
1761315422224898600,7.712898681640625,2.3090739250183105,-8.908478736877441,-3.8500516414642334
1761315422243820300,7.7318203125,2.2995026111602783,-8.925228118896484,-3.862015724182129
1761315422262742300,7.7507421875,2.2851455211639404,-8.925228118896484,-3.8333017826080322
1761315422281664300,7.769664306640625,2.2995026111602783,-8.93240737915039,-3.81655216217041
1761315422300586200,7.788586181640625,2.287538528442383,-8.965906143188477,-3.814159393310547
1761315422319508200,7.80750830078125,2.2851455211639404,-8.951549530029297,-3.8428730964660645
1761315422338430200,7.82643017578125,2.289931297302246,-8.93958568572998,-3.84765887260437
1761315422357352200,7.845352294921875,2.280359983444214,-8.93958568572998,-3.84765887260437
1761315422376274200,7.864274169921875,2.287538528442383,-8.874979019165039,-3.840480327606201
1761315422395196200,7.883196044921875,2.313859462738037,-8.886942863464355,-3.864408493041992
1761315422414118100,7.9021181640625,2.3330020904541016,-8.882157325744629,-3.871587038040161
1761315422433040100,7.9210400390625,2.344966173171997,-8.925228118896484,-3.8500516414642334
1761315422451962000,7.939962158203125,2.321038007736206,-8.956335067749023,-3.8428730964660645
1761315422470884000,7.958884033203125,2.3162522315979004,-8.922835350036621,-3.8500516414642334
1761315422489806000,7.97780615234375,2.3306093215942383,-8.920442581176758,-3.838087558746338
1761315422508728000,7.99672802734375,2.3258235454559326,-8.915657043457031,-3.8021950721740723
1761315422527650000,8.015650146484376,2.368894338607788,-8.913264274597168,-3.8117663860321045
1761315422546572000,8.034572021484376,2.328216314315796,-8.874979019165039,-3.8596229553222656
1761315422565494000,8.053493896484374,2.3186452388763428,-8.882157325744629,-3.87876558303833
1761315422584416000,8.072416015625,2.3090739250183105,-8.913264274597168,-3.8835511207580566
1761315422603338000,8.091337890625,2.3258235454559326,-8.910871505737305,-3.8500516414642334
1761315422622259700,8.110259765625,2.3234307765960693,-8.922835350036621,-3.85483717918396
1761315422641181700,8.129181640625,2.321038007736206,-8.913264274597168,-3.862015724182129
1761315422660103700,8.148103759765625,2.2995026111602783,-8.901300430297852,-3.8668015003204346
1761315422679025700,8.167025634765626,2.2683959007263184,-8.903693199157715,-3.8835511207580566
1761315422697947600,8.18594775390625,2.282752752304077,-8.877371788024902,-3.8835511207580566
1761315422716869600,8.20486962890625,2.3090739250183105,-8.922835350036621,-3.871587038040161
1761315422735791600,8.22379150390625,2.335394859313965,-8.930013656616211,-3.85483717918396
1761315422754713600,8.242713623046875,2.335394859313965,-8.913264274597168,-3.8763725757598877
1761315422773635600,8.261635498046875,2.289931297302246,-8.896514892578125,-3.8835511207580566
1761315422792557600,8.2805576171875,2.3258235454559326,-8.915657043457031,-3.8979079723358154
1761315422811479600,8.2994794921875,2.2995026111602783,-8.903693199157715,-3.8883368968963623
1761315422830401500,8.318401611328126,2.3258235454559326,-8.908478736877441,-3.8907296657562256
1761315422849323500,8.337323486328126,2.3162522315979004,-8.913264274597168,-3.84765887260437
1761315422868245500,8.35624560546875,2.3497519493103027,-8.898907661437988,-3.8261234760284424
1761315422887167500,8.37516748046875,2.366501569747925,-8.848658561706543,-3.895515203475952
1761315422906089500,8.39408935546875,2.3617160320281982,-8.877371788024902,-3.9122650623321533
1761315422925011500,8.413011474609375,2.366501569747925,-8.889336585998535,-3.838087558746338
1761315422943933400,8.431933349609375,2.3976082801818848,-8.941978454589844,-3.809373617172241
1761315422962855400,8.45085546875,2.4119651317596436,-8.94676399230957,-3.7567315101623535
1761315422981777400,8.46977734375,2.416750907897949,-8.958727836608887,-3.78544545173645
1761315423000699400,8.488699462890626,2.4047868251800537,-8.94676399230957,-3.809373617172241
1761315423019621400,8.507621337890624,2.390429735183716,-8.872586250305176,-3.840480327606201
1761315423038543400,8.52654345703125,2.4095723628997803,-8.865407943725586,-3.84765887260437
1761315423057465300,8.54546533203125,2.392822742462158,-8.865407943725586,-3.8907296657562256
1761315423076387300,8.56438720703125,2.4047868251800537,-8.877371788024902,-3.8739798069000244
1761315423095309300,8.583309326171875,2.407179594039917,-8.908478736877441,-3.8500516414642334
1761315423114231300,8.602231201171875,2.4095723628997803,-8.901300430297852,-3.8763725757598877
1761315423133153300,8.6211533203125,2.3641088008880615,-8.882157325744629,-3.9194436073303223
1761315423152075300,8.6400751953125,2.328216314315796,-8.855836868286133,-3.9314076900482178
1761315423170997200,8.658997314453124,2.3330020904541016,-8.865407943725586,-3.895515203475952
1761315423189919200,8.677919189453124,2.3186452388763428,-8.898907661437988,-3.8428730964660645
1761315423208841200,8.69684130859375,2.313859462738037,-8.886942863464355,-3.8572301864624023
1761315423227763000,8.715762939453125,2.297109842300415,-8.891729354858398,-3.8739798069000244
1761315423246685000,8.734684814453125,2.3162522315979004,-8.918049812316895,-3.8835511207580566
1761315423265607000,8.75360693359375,2.304288148880005,-8.934800148010254,-3.8428730964660645
1761315423284529000,8.77252880859375,2.3330020904541016,-8.920442581176758,-3.792623996734619
1761315423303451000,8.791450927734376,2.3018953800201416,-8.889336585998535,-3.8763725757598877
1761315423322372900,8.810372802734374,2.306680917739868,-8.886942863464355,-3.926621913909912
1761315423341294800,8.829294921875,2.311466693878174,-8.930013656616211,-3.869194269180298
1761315423360216800,8.848216796875,2.344966173171997,-8.934800148010254,-3.814159393310547
1761315423379138800,8.867138916015625,2.352144718170166,-8.884550094604492,-3.82373046875
1761315423398060800,8.886060791015625,2.3234307765960693,-8.863015174865723,-3.9218363761901855
1761315423416982800,8.904982666015625,2.3258235454559326,-8.891729354858398,-3.933800458908081
1761315423435904800,8.92390478515625,2.335394859313965,-8.903693199157715,-3.87876558303833
1761315423454826800,8.94282666015625,2.342573404312134,-8.915657043457031,-3.8668015003204346
1761315423473748700,8.961748779296874,2.3162522315979004,-8.93240737915039,-3.840480327606201
1761315423492670700,8.980670654296874,2.311466693878174,-8.944371223449707,-3.85483717918396
1761315423511592700,8.9995927734375,2.287538528442383,-8.937192916870117,-3.84765887260437
1761315423530514700,9.0185146484375,2.3018953800201416,-8.927620887756348,-3.845266103744507
1761315423549436700,9.037436767578125,2.3018953800201416,-8.903693199157715,-3.84765887260437
1761315423568358700,9.056358642578125,2.289931297302246,-8.886942863464355,-3.871587038040161
1761315423587280600,9.07528076171875,2.2779672145843506,-8.906085968017578,-3.869194269180298
1761315423606202600,9.09420263671875,2.2779672145843506,-8.941978454589844,-3.845266103744507
1761315423625124600,9.11312451171875,2.313859462738037,-8.944371223449707,-3.838087558746338
1761315423644046600,9.132046630859374,2.3186452388763428,-8.937192916870117,-3.8333017826080322
1761315423662968600,9.150968505859375,2.335394859313965,-8.93240737915039,-3.8739798069000244
1761315423681890600,9.169890625,2.304288148880005,-8.922835350036621,-3.864408493041992
1761315423700812500,9.1888125,2.321038007736206,-8.937192916870117,-3.8428730964660645
1761315423719734500,9.207734619140625,2.3330020904541016,-8.915657043457031,-3.869194269180298
1761315423738656500,9.226656494140625,2.342573404312134,-8.918049812316895,-3.8811583518981934
1761315423757578500,9.24557861328125,2.3186452388763428,-8.913264274597168,-3.8835511207580566
1761315423776500500,9.26450048828125,2.304288148880005,-8.918049812316895,-3.869194269180298
1761315423795422500,9.28342236328125,2.3234307765960693,-8.898907661437988,-3.8668015003204346
1761315423814344200,9.30234423828125,2.3018953800201416,-8.903693199157715,-3.902693748474121
1761315423833266200,9.32126611328125,2.313859462738037,-8.915657043457031,-3.8596229553222656
1761315423852188200,9.340188232421875,2.3258235454559326,-8.927620887756348,-3.8333017826080322
1761315423871110100,9.359110107421875,2.3330020904541016,-8.918049812316895,-3.8189449310302734
1761315423890032000,9.3780322265625,2.313859462738037,-8.891729354858398,-3.87876558303833
1761315423908954000,9.3969541015625,2.313859462738037,-8.86780071258545,-3.9194436073303223
1761315423927876000,9.4158759765625,2.3330020904541016,-8.898907661437988,-3.9146578311920166
1761315423946798000,9.434798095703124,2.3569302558898926,-8.891729354858398,-3.8739798069000244
1761315423965720000,9.453719970703125,2.3497519493103027,-8.882157325744629,-3.8883368968963623
1761315423984642000,9.47264208984375,2.3641088008880615,-8.894122123718262,-3.9074792861938477
1761315424003564000,9.49156396484375,2.3617160320281982,-8.908478736877441,-3.893122434616089
1761315424022486000,9.510486083984375,2.3856441974639893,-8.906085968017578,-3.871587038040161
1761315424041408000,9.529407958984375,2.359323024749756,-8.877371788024902,-3.87876558303833
1761315424060330000,9.548330078125,2.3497519493103027,-8.910871505737305,-3.8835511207580566
1761315424079252000,9.567251953125,2.3258235454559326,-8.870193481445312,-3.895515203475952
1761315424098174000,9.586174072265624,2.3473589420318604,-8.903693199157715,-3.85483717918396
1761315424117096000,9.605095947265625,2.3641088008880615,-8.913264274597168,-3.8356947898864746
1761315424136018000,9.624017822265625,2.3712873458862305,-8.901300430297852,-3.8596229553222656
1761315424154940000,9.64293994140625,2.344966173171997,-8.884550094604492,-3.8907296657562256
1761315424173862000,9.66186181640625,2.3330020904541016,-8.86780071258545,-3.8979079723358154
1761315424192784000,9.680783935546875,2.3330020904541016,-8.884550094604492,-3.893122434616089
1761315424211705900,9.699705810546876,2.3473589420318604,-8.913264274597168,-3.871587038040161
1761315424230627800,9.7186279296875,2.335394859313965,-8.922835350036621,-3.871587038040161
1761315424249549800,9.7375498046875,2.344966173171997,-8.908478736877441,-3.840480327606201
1761315424268471800,9.756471923828125,2.3258235454559326,-8.913264274597168,-3.8596229553222656
1761315424287393800,9.775393798828125,2.313859462738037,-8.927620887756348,-3.838087558746338
1761315424306315800,9.794315673828125,2.3330020904541016,-8.944371223449707,-3.8117663860321045
1761315424325237800,9.81323779296875,2.3306093215942383,-8.94676399230957,-3.8117663860321045
1761315424344159700,9.83215966796875,2.313859462738037,-8.934800148010254,-3.84765887260437
1761315424363081700,9.851081787109376,2.282752752304077,-8.922835350036621,-3.840480327606201
1761315424382003700,9.870003662109376,2.282752752304077,-8.915657043457031,-3.8333017826080322
1761315424400925700,9.88892578125,2.311466693878174,-8.898907661437988,-3.87876558303833
1761315424419847700,9.90784765625,2.335394859313965,-8.872586250305176,-3.893122434616089
1761315424438769700,9.926769775390625,2.344966173171997,-8.855836868286133,-3.91705060005188
1761315424457691600,9.945691650390625,2.344966173171997,-8.874979019165039,-3.9074792861938477
1761315424476613600,9.964613525390625,2.337787628173828,-8.906085968017578,-3.9074792861938477
1761315424495535600,9.98353564453125,2.335394859313965,-8.941978454589844,-3.9218363761901855
1761315424514457600,10.00245751953125,2.321038007736206,-8.906085968017578,-3.902693748474121
1761315424533379600,10.021379638671876,2.3306093215942383,-8.910871505737305,-3.895515203475952
1761315424552301600,10.040301513671874,2.366501569747925,-8.920442581176758,-3.88594388961792
1761315424571223600,10.0592236328125,2.3497519493103027,-8.877371788024902,-3.902693748474121
1761315424590145500,10.0781455078125,2.3306093215942383,-8.872586250305176,-3.933800458908081
1761315424609067500,10.097067626953125,2.3473589420318604,-8.874979019165039,-3.90987229347229
1761315424627989500,10.115989501953125,2.337787628173828,-8.86780071258545,-3.9050865173339844
1761315424646911500,10.134911376953125,2.337787628173828,-8.872586250305176,-3.9194436073303223
1761315424665833500,10.15383349609375,2.3258235454559326,-8.865407943725586,-3.957728624343872
1761315424684755500,10.17275537109375,2.3258235454559326,-8.86780071258545,-3.9361932277679443
1761315424703677400,10.191677490234374,2.344966173171997,-8.894122123718262,-3.8763725757598877
1761315424722599400,10.210599365234375,2.3473589420318604,-8.889336585998535,-3.893122434616089
1761315424741521400,10.229521484375,2.3569302558898926,-8.891729354858398,-3.933800458908081
1761315424760443400,10.248443359375,2.3330020904541016,-8.85344409942627,-3.9529430866241455
1761315424779365400,10.267365478515625,2.3401806354522705,-8.827122688293457,-3.9768712520599365
1761315424798287400,10.286287353515625,2.3330020904541016,-8.851051330566406,-3.9744784832000732
1761315424817209300,10.305209228515626,2.3330020904541016,-8.879764556884766,-3.9672999382019043
1761315424836131300,10.32413134765625,2.359323024749756,-8.848658561706543,-3.9744784832000732
1761315424855053300,10.34305322265625,2.352144718170166,-8.82233715057373,-3.9984066486358643
1761315424873975300,10.361975341796875,2.328216314315796,-8.855836868286133,-3.9792640209198
1761315424892897300,10.380897216796875,2.344966173171997,-8.85344409942627,-3.9433717727661133
1761315424911819300,10.3998193359375,2.366501569747925,-8.839086532592773,-3.957728624343872
1761315424930741200,10.4187412109375,2.3497519493103027,-8.82951545715332,-3.9792640209198
1761315424949663200,10.437663330078125,2.3617160320281982,-8.831908226013184,-3.981656789779663
1761315424968585200,10.456585205078126,2.352144718170166,-8.870193481445312,-3.94815731048584
1761315424987507200,10.475507080078126,2.3473589420318604,-8.884550094604492,-3.9433717727661133
1761315425006429200,10.49442919921875,2.3401806354522705,-8.884550094604492,-3.9314076900482178
1761315425025351000,10.513350830078124,2.3306093215942383,-8.882157325744629,-3.91705060005188
1761315425044273000,10.53227294921875,2.3090739250183105,-8.906085968017578,-3.9122650623321533
1761315425063195000,10.55119482421875,2.328216314315796,-8.889336585998535,-3.90987229347229
1761315425082117000,10.5701171875,2.3162522315979004,-8.858229637145996,-3.9314076900482178
1761315425101038800,10.589038818359375,2.3090739250183105,-8.86780071258545,-3.955335855484009
1761315425119961000,10.607961181640626,2.297109842300415,-8.86780071258545,-3.9385859966278076
1761315425138883000,10.626883056640626,2.304288148880005,-8.884550094604492,-3.90987229347229
1761315425157805000,10.64580517578125,2.304288148880005,-8.882157325744629,-3.900300979614258
1761315425176727000,10.66472705078125,2.3330020904541016,-8.903693199157715,-3.91705060005188
1761315425195649000,10.68364892578125,2.3306093215942383,-8.903693199157715,-3.9122650623321533
1761315425214571000,10.702571044921875,2.3018953800201416,-8.889336585998535,-3.9218363761901855
1761315425233492700,10.72149267578125,2.311466693878174,-8.877371788024902,-3.91705060005188
1761315425252414700,10.740414794921875,2.313859462738037,-8.86780071258545,-3.9361932277679443
1761315425271336700,10.759336669921876,2.3186452388763428,-8.884550094604492,-3.9433717727661133
1761315425290258700,10.7782587890625,2.328216314315796,-8.898907661437988,-3.9529430866241455
1761315425309180700,10.7971806640625,2.3306093215942383,-8.910871505737305,-3.9122650623321533
1761315425328102700,10.8161025390625,2.3018953800201416,-8.913264274597168,-3.8883368968963623
1761315425347024600,10.835024658203125,2.3018953800201416,-8.882157325744629,-3.926621913909912
1761315425365946600,10.853946533203125,2.3018953800201416,-8.865407943725586,-3.9385859966278076
1761315425384868600,10.87286865234375,2.289931297302246,-8.898907661437988,-3.91705060005188
1761315425403790800,10.891790771484375,2.3090739250183105,-8.903693199157715,-3.893122434616089
1761315425422712800,10.910712890625,2.311466693878174,-8.879764556884766,-3.902693748474121
1761315425441634600,10.929634521484376,2.2923240661621094,-8.834300994873047,-3.950550079345703
1761315425460556500,10.948556640625,2.282752752304077,-8.863015174865723,-3.9625144004821777
1761315425479478500,10.967478515625,2.3018953800201416,-8.918049812316895,-3.9146578311920166
1761315425498400500,10.986400390625,2.321038007736206,-8.901300430297852,-3.902693748474121
1761315425517322500,11.005322509765625,2.321038007736206,-8.908478736877441,-3.900300979614258
1761315425536244500,11.024244384765625,2.2923240661621094,-8.906085968017578,-3.9074792861938477
1761315425555166500,11.04316650390625,2.2779672145843506,-8.908478736877441,-3.8907296657562256
1761315425574088400,11.06208837890625,2.313859462738037,-8.922835350036621,-3.85483717918396
1761315425593010400,11.081010498046876,2.3186452388763428,-8.906085968017578,-3.8668015003204346
1761315425611932400,11.099932373046874,2.287538528442383,-8.894122123718262,-3.90987229347229
1761315425630854400,11.1188544921875,2.2779672145843506,-8.865407943725586,-3.9122650623321533
1761315425649776400,11.1377763671875,2.273181438446045,-8.901300430297852,-3.8883368968963623
1761315425668698400,11.156698486328125,2.304288148880005,-8.896514892578125,-3.8596229553222656
1761315425687620400,11.175620361328125,2.289931297302246,-8.93240737915039,-3.8668015003204346
1761315425706542300,11.194542236328125,2.3090739250183105,-8.93240737915039,-3.8668015003204346
1761315425725464300,11.21346435546875,2.289931297302246,-8.949156761169434,-3.87876558303833
1761315425744386300,11.23238623046875,2.2707886695861816,-8.927620887756348,-3.8835511207580566
1761315425763308300,11.251308349609374,2.273181438446045,-8.901300430297852,-3.9074792861938477
1761315425782230300,11.270230224609374,2.297109842300415,-8.901300430297852,-3.9122650623321533
1761315425801152300,11.28915234375,2.3162522315979004,-8.906085968017578,-3.8835511207580566
1761315425820074200,11.30807421875,2.289931297302246,-8.920442581176758,-3.9074792861938477
1761315425838996200,11.326996337890625,2.2707886695861816,-8.927620887756348,-3.900300979614258
1761315425857918200,11.345918212890625,2.2683959007263184,-8.910871505737305,-3.8907296657562256
1761315425876840200,11.364840087890625,2.2923240661621094,-8.915657043457031,-3.87876558303833
1761315425895762200,11.38376220703125,2.2923240661621094,-8.941978454589844,-3.869194269180298
1761315425914684200,11.40268408203125,2.3090739250183105,-8.956335067749023,-3.82373046875
1761315425933606100,11.421606201171874,2.3018953800201416,-8.96829891204834,-3.8356947898864746
1761315425952528100,11.440528076171875,2.287538528442383,-8.886942863464355,-3.900300979614258
1761315425971450000,11.4594501953125,2.2755744457244873,-8.865407943725586,-3.94815731048584
1761315425990372000,11.4783720703125,2.2683959007263184,-8.86062240600586,-3.955335855484009
1761315426009294000,11.497294189453125,2.2851455211639404,-8.901300430297852,-3.9218363761901855
1761315426028216000,11.516216064453126,2.297109842300415,-8.915657043457031,-3.8835511207580566
1761315426047138000,11.535137939453126,2.3090739250183105,-8.941978454589844,-3.8907296657562256
1761315426066060000,11.55406005859375,2.2683959007263184,-8.915657043457031,-3.88594388961792
1761315426084982000,11.57298193359375,2.256431818008423,-8.944371223449707,-3.87876558303833
1761315426103904000,11.591904052734375,2.2779672145843506,-8.903693199157715,-3.8572301864624023
1761315426122826000,11.610825927734375,2.2995026111602783,-8.913264274597168,-3.8763725757598877
1761315426141748000,11.629748046875,2.280359983444214,-8.901300430297852,-3.862015724182129
1761315426160670000,11.648669921875,2.2683959007263184,-8.898907661437988,-3.900300979614258
1761315426179592000,11.667592041015626,2.2612173557281494,-8.901300430297852,-3.9385859966278076
1761315426198514000,11.686513916015626,2.2851455211639404,-8.877371788024902,-3.9290146827697754
1761315426217436000,11.705435791015624,2.3018953800201416,-8.882157325744629,-3.926621913909912
1761315426236358000,11.72435791015625,2.304288148880005,-8.913264274597168,-3.933800458908081
1761315426255279900,11.74327978515625,2.313859462738037,-8.879764556884766,-3.957728624343872
1761315426274201900,11.762201904296875,2.3090739250183105,-8.86780071258545,-3.94815731048584
1761315426293123800,11.781123779296875,2.3162522315979004,-8.85344409942627,-3.926621913909912
1761315426312045800,11.8000458984375,2.3234307765960693,-8.841479301452637,-3.957728624343872
1761315426330967800,11.8189677734375,2.2851455211639404,-8.855836868286133,-3.972085475921631
1761315426349889800,11.837889892578126,2.3330020904541016,-8.879764556884766,-3.9290146827697754
1761315426368811800,11.856811767578124,2.3306093215942383,-8.894122123718262,-3.9074792861938477
1761315426387733800,11.875733642578124,2.3234307765960693,-8.889336585998535,-3.926621913909912
1761315426406655700,11.89465576171875,2.3258235454559326,-8.863015174865723,-3.964907169342041
1761315426425577700,11.91357763671875,2.3401806354522705,-8.901300430297852,-3.950550079345703
1761315426444500000,11.9325,2.3712873458862305,-8.882157325744629,-3.88594388961792
1761315426463421700,11.951421630859375,2.3473589420318604,-8.851051330566406,-3.924229145050049
1761315426482343700,11.97034375,2.3330020904541016,-8.858229637145996,-3.9744784832000732
1761315426501265700,11.989265625,2.3330020904541016,-8.839086532592773,-3.981656789779663
1761315426520187600,12.008187744140624,2.3473589420318604,-8.877371788024902,-3.9792640209198
1761315426539109600,12.027109619140624,2.359323024749756,-8.891729354858398,-3.933800458908081
1761315426558031600,12.046031494140625,2.3473589420318604,-8.891729354858398,-3.933800458908081
1761315426576953600,12.06495361328125,2.342573404312134,-8.886942863464355,-3.9625144004821777
1761315426595875600,12.08387548828125,2.3162522315979004,-8.874979019165039,-3.9314076900482178
1761315426614797600,12.102797607421875,2.3473589420318604,-8.896514892578125,-3.8979079723358154
1761315426633719800,12.1217197265625,2.3306093215942383,-8.846264839172363,-3.902693748474121
1761315426652641500,12.1406416015625,2.342573404312134,-8.863015174865723,-3.9601213932037354
1761315426671563500,12.1595634765625,2.2995026111602783,-8.855836868286133,-3.950550079345703
1761315426690485500,12.178485595703124,2.3090739250183105,-8.870193481445312,-3.9433717727661133
1761315426709407500,12.197407470703125,2.3162522315979004,-8.872586250305176,-3.9218363761901855
1761315426728329500,12.21632958984375,2.342573404312134,-8.865407943725586,-3.9385859966278076
1761315426747251500,12.23525146484375,2.3306093215942383,-8.879764556884766,-3.94097900390625
1761315426766173400,12.25417333984375,2.3306093215942383,-8.886942863464355,-3.9433717727661133
1761315426785095400,12.273095458984375,2.342573404312134,-8.891729354858398,-3.9433717727661133
1761315426804017400,12.292017333984376,2.3497519493103027,-8.891729354858398,-3.94815731048584
1761315426822939600,12.310939697265624,2.352144718170166,-8.879764556884766,-3.933800458908081
1761315426841861600,12.329861572265624,2.335394859313965,-8.865407943725586,-3.9433717727661133
1761315426860783400,12.348783447265625,2.306680917739868,-8.872586250305176,-3.9768712520599365
1761315426879705300,12.367705322265625,2.3090739250183105,-8.865407943725586,-3.9314076900482178
1761315426898627300,12.38662744140625,2.313859462738037,-8.86062240600586,-3.9218363761901855
1761315426917549300,12.40554931640625,2.337787628173828,-8.906085968017578,-3.9457645416259766
1761315426936471300,12.42447119140625,2.3712873458862305,-8.913264274597168,-3.9146578311920166
1761315426955393300,12.443393310546876,2.3736801147460938,-8.896514892578125,-3.895515203475952
1761315426974315300,12.462315185546874,2.376072883605957,-8.85344409942627,-3.9194436073303223
1761315426993237200,12.4812373046875,2.3617160320281982,-8.817551612854004,-3.9768712520599365
1761315427012159500,12.500159423828125,2.3784656524658203,-8.80798053741455,-4.019941806793213
1761315427031081500,12.51908154296875,2.390429735183716,-8.791230201721191,-4.0079779624938965
1761315427050003500,12.53800341796875,2.3952155113220215,-8.82951545715332,-4.01754903793335
1761315427068925200,12.55692529296875,2.4119651317596436,-8.839086532592773,-4.005585193634033
1761315427087847200,12.57584716796875,2.423929452896118,-8.846264839172363,-4.067798614501953
1761315427106769200,12.59476904296875,2.4095723628997803,-8.80798053741455,-4.108476638793945
1761315427125691100,12.613691162109374,2.3784656524658203,-8.798408508300781,-4.053441524505615
1761315427144613000,12.632613037109374,2.392822742462158,-8.796015739440918,-4.005585193634033
1761315427163535000,12.65153515625,2.3880369663238525,-8.827122688293457,-3.957728624343872
1761315427182457000,12.67045703125,2.4023938179016113,-8.83669376373291,-3.94815731048584
1761315427201379000,12.689379150390625,2.4287149906158447,-8.86780071258545,-3.9146578311920166
1761315427220301000,12.708301025390625,2.414358139038086,-8.8438720703125,-3.9433717727661133
1761315427239223000,12.72722314453125,2.3856441974639893,-8.810373306274414,-3.9744784832000732
1761315427258145300,12.746145263671876,2.3330020904541016,-8.834300994873047,-3.9768712520599365
1761315427277067000,12.76506689453125,2.337787628173828,-8.82233715057373,-3.964907169342041
1761315427295989000,12.783989013671874,2.3808584213256836,-8.82951545715332,-3.94097900390625
1761315427314911000,12.802910888671875,2.407179594039917,-8.791230201721191,-3.9744784832000732
1761315427333833000,12.8218330078125,2.423929452896118,-8.82951545715332,-3.9936211109161377
1761315427352755000,12.8407548828125,2.4287149906158447,-8.831908226013184,-3.9864425659179688
1761315427371677000,12.859677001953125,2.4263222217559814,-8.877371788024902,-3.94815731048584
1761315427390599000,12.878598876953125,2.4358935356140137,-8.872586250305176,-3.9122650623321533
1761315427409521000,12.89752099609375,2.447857618331909,-8.858229637145996,-3.9385859966278076
1761315427428443000,12.91644287109375,2.4406790733337402,-8.798408508300781,-4.027120590209961
1761315427447364900,12.93536474609375,2.4023938179016113,-8.810373306274414,-4.086941242218018
1761315427466286800,12.954286865234375,2.3880369663238525,-8.81515884399414,-4.022335052490234
1761315427485208800,12.973208740234375,2.400001049041748,-8.798408508300781,-3.981656789779663
1761315427504130800,12.992130859375,2.421536445617676,-8.757730484008789,-4.024727821350098
1761315427523052800,13.011052734375,2.414358139038086,-8.719446182250977,-4.1036906242370605
1761315427541974800,13.029974853515625,2.423929452896118,-8.745766639709473,-4.120440483093262
1761315427560896800,13.048896728515626,2.4191436767578125,-8.769695281982422,-4.094119548797607
1761315427579818800,13.06781884765625,2.431107759475708,-8.779266357421875,-4.122833251953125
1761315427598740700,13.08674072265625,2.4191436767578125,-8.762516975402832,-4.130012035369873
1761315427617662700,13.105662841796875,2.376072883605957,-8.803194046020508,-4.132404804229736
1761315427636584700,13.124584716796875,2.390429735183716,-8.776873588562012,-4.07258415222168
1761315427655506700,13.143506591796875,2.3856441974639893,-8.784051895141602,-4.063013076782227
1761315427674428700,13.1624287109375,2.3784656524658203,-8.781659126281738,-4.053441524505615
1761315427693350700,13.1813505859375,2.359323024749756,-8.82951545715332,-4.029513359069824
1761315427712272600,13.200272705078126,2.337787628173828,-8.858229637145996,-3.981656789779663
1761315427731194600,13.219194580078126,2.352144718170166,-8.872586250305176,-3.9792640209198
1761315427750116600,13.23811669921875,2.3569302558898926,-8.872586250305176,-3.9601213932037354
1761315427769038600,13.25703857421875,2.3569302558898926,-8.86062240600586,-3.9744784832000732
1761315427787960600,13.275960693359375,2.3569302558898926,-8.870193481445312,-3.9672999382019043
1761315427806882600,13.294882568359375,2.3808584213256836,-8.8438720703125,-3.972085475921631
1761315427825804500,13.313804443359375,2.4023938179016113,-8.85344409942627,-4.019941806793213
1761315427844726500,13.3327265625,2.3880369663238525,-8.848658561706543,-3.996013879776001
1761315427863648500,13.3516484375,2.383251428604126,-8.827122688293457,-3.988835334777832
1761315427882570500,13.370570556640626,2.366501569747925,-8.846264839172363,-3.996013879776001
1761315427901492500,13.389492431640624,2.4023938179016113,-8.82951545715332,-3.9912281036376953
1761315427920414500,13.40841455078125,2.390429735183716,-8.796015739440918,-4.024727821350098
1761315427939336400,13.42733642578125,2.4119651317596436,-8.82951545715332,-4.012763500213623
1761315427958258400,13.446258544921875,2.421536445617676,-8.839086532592773,-3.9625144004821777
1761315427977180400,13.465180419921875,2.423929452896118,-8.82233715057373,-3.9290146827697754
1761315427996102400,13.484102294921875,2.4047868251800537,-8.810373306274414,-3.981656789779663
1761315428015024400,13.5030244140625,2.392822742462158,-8.796015739440918,-4.012763500213623
1761315428033946400,13.5219462890625,2.376072883605957,-8.784051895141602,-4.01037073135376
1761315428052868400,13.540868408203124,2.400001049041748,-8.834300994873047,-4.012763500213623
1761315428071790300,13.559790283203125,2.414358139038086,-8.851051330566406,-3.988835334777832
1761315428090712300,13.57871240234375,2.4023938179016113,-8.855836868286133,-4.00319242477417
1761315428109634300,13.59763427734375,2.392822742462158,-8.827122688293457,-4.036691665649414
1761315428128556300,13.616556396484375,2.4023938179016113,-8.819944381713867,-3.9912281036376953
1761315428147478300,13.635478271484375,2.4023938179016113,-8.81515884399414,-3.9696927070617676
1761315428166400300,13.654400146484376,2.392822742462158,-8.803194046020508,-3.9984066486358643
1761315428185322200,13.673322265625,2.3736801147460938,-8.805587768554688,-4.024727821350098
1761315428204244200,13.692244140625,2.3880369663238525,-8.827122688293457,-3.9984066486358643
1761315428223166200,13.711166259765625,2.3856441974639893,-8.83669376373291,-3.9625144004821777
1761315428242088200,13.730088134765625,2.3736801147460938,-8.872586250305176,-3.9792640209198
1761315428261010200,13.74901025390625,2.3976082801818848,-8.851051330566406,-3.9840497970581055
1761315428279932200,13.76793212890625,2.3952155113220215,-8.839086532592773,-3.972085475921631
1761315428298854100,13.786854248046875,2.3808584213256836,-8.846264839172363,-3.9529430866241455
1761315428317776100,13.805776123046876,2.3976082801818848,-8.870193481445312,-3.955335855484009
1761315428336698000,13.824697998046876,2.3856441974639893,-8.877371788024902,-3.94815731048584
1761315428355620000,13.8436201171875,2.368894338607788,-8.858229637145996,-3.9744784832000732
1761315428374542000,13.8625419921875,2.3856441974639893,-8.85344409942627,-3.9672999382019043
1761315428393464000,13.881464111328125,2.3880369663238525,-8.865407943725586,-3.950550079345703
1761315428412386000,13.900385986328125,2.376072883605957,-8.851051330566406,-3.9696927070617676
1761315428431308000,13.91930810546875,2.376072883605957,-8.83669376373291,-3.9936211109161377
1761315428450230000,13.93822998046875,2.3712873458862305,-8.855836868286133,-4.000799655914307
1761315428469152000,13.957152099609376,2.390429735183716,-8.841479301452637,-3.9696927070617676
1761315428488074000,13.976073974609376,2.359323024749756,-8.796015739440918,-3.981656789779663
1761315428506996000,13.994995849609374,2.3569302558898926,-8.786444664001465,-4.034298896789551
1761315428525918000,14.01391796875,2.4287149906158447,-8.863015174865723,-4.005585193634033
1761315428544840000,14.03283984375,2.445464849472046,-8.877371788024902,-3.972085475921631
1761315428563762000,14.051761962890625,2.407179594039917,-8.819944381713867,-3.9696927070617676
1761315428582684000,14.070683837890625,2.3401806354522705,-8.85344409942627,-3.9936211109161377
1761315428601606000,14.08960595703125,2.3736801147460938,-8.846264839172363,-3.981656789779663
