time,seconds_elapsed,z,y,x
1761230504932018200,0.12901806640625,0.0006108652451075613,0.0006108652451075613,0.0003054326225537807
1761230504942511600,0.13951171875,-0.00045814894838258624,0.0007635815418325365,0.00015271631127689034
1761230504959299800,0.1562998046875,0.0003054326225537807,0.0003054326225537807,-0.0007635815418325365
1761230504976099600,0.173099609375,0.00045814894838258624,-0.00015271631127689034,-0.0003054326225537807
1761230504992892200,0.18989208984375,0,-0.00015271631127689034,-0.0006108652451075613
1761230505009680100,0.20668017578125,-0.0006108652451075613,0.0010690141934901476,-0.0007635815418325365
1761230505026468900,0.22346875,0.00045814894838258624,-0.00045814894838258624,-0.00045814894838258624
1761230505043256800,0.2402568359375,0.00015271631127689034,-0.0010690141934901476,0.0003054326225537807
1761230505060047400,0.25704736328125,-0.00045814894838258624,0,-0.00045814894838258624
1761230505076836400,0.27383642578125,0,0.00015271631127689034,-0.0003054326225537807
1761230505093625300,0.290625244140625,0.00045814894838258624,0.0007635815418325365,-0.001832595793530345
1761230505110401800,0.30740185546875,0.0003054326225537807,0.0003054326225537807,0.0003054326225537807
1761230505127203600,0.32420361328125,-0.0003054326225537807,0.0003054326225537807,0.00015271631127689034
1761230505143992600,0.34099267578125,0,-0.0006108652451075613,0.00045814894838258624
1761230505160781600,0.357781494140625,-0.0003054326225537807,-0.0003054326225537807,-0.0007635815418325365
1761230505177570800,0.37457080078125,-0.00045814894838258624,-0.0006108652451075613,0.0003054326225537807
1761230505194343700,0.39134375,0.00045814894838258624,-0.00015271631127689034,-0.00045814894838258624
1761230505211148800,0.408148681640625,-0.0006108652451075613,-0.00045814894838258624,-0.0003054326225537807
1761230505227938000,0.42493798828125,-0.0006108652451075613,0.0006108652451075613,0.00015271631127689034
1761230505244727000,0.44172705078125,0.0003054326225537807,-0.0009162978967651725,0.0006108652451075613
1761230505261516500,0.4585166015625,0,-0.00045814894838258624,0.00045814894838258624
1761230505278305300,0.47530517578125,-0.00045814894838258624,-0.00045814894838258624,-0.0003054326225537807
1761230505295094500,0.492094482421875,-0.00015271631127689034,0.00045814894838258624,0.0010690141934901476
1761230505311883300,0.50888330078125,0,-0.0007635815418325365,0.0003054326225537807
1761230505328670500,0.52567041015625,-0.00045814894838258624,-0.0007635815418325365,0.0003054326225537807
1761230505345461500,0.54246142578125,0.0010690141934901476,0,-0.0003054326225537807
1761230505362240300,0.559240234375,-0.00015271631127689034,-0.00015271631127689034,0
1761230505379040000,0.5760400390625,-0.00015271631127689034,-0.00015271631127689034,0.00015271631127689034
1761230505395828700,0.592828857421875,0.0006108652451075613,-0.0003054326225537807,0.00015271631127689034
1761230505412618000,0.609617919921875,-0.00015271631127689034,0.0006108652451075613,-0.0010690141934901476
1761230505429406700,0.62640673828125,0,-0.0003054326225537807,-0.00045814894838258624
1761230505446196500,0.643196533203125,0,-0.0012217304902151227,-0.00015271631127689034
1761230505462985000,0.65998486328125,-0.0003054326225537807,0.0003054326225537807,0.0010690141934901476
1761230505479774000,0.67677392578125,-0.0006108652451075613,0.0003054326225537807,0.00045814894838258624
1761230505496561700,0.693561767578125,0,0.0003054326225537807,0.0006108652451075613
1761230505513337600,0.710337646484375,-0.00045814894838258624,-0.0009162978967651725,0
1761230505530141200,0.72714111328125,0.00045814894838258624,0,0.0007635815418325365
1761230505546932200,0.74393212890625,0.00045814894838258624,0.0003054326225537807,0.0003054326225537807
1761230505563719400,0.760719482421875,-0.0003054326225537807,0.0003054326225537807,-0.00015271631127689034
1761230505580508400,0.77750830078125,-0.0006108652451075613,-0.00045814894838258624,0.00015271631127689034
1761230505597295400,0.79429541015625,-0.00045814894838258624,-0.0003054326225537807,-0.0009162978967651725
1761230505614081000,0.8110810546875,0.00045814894838258624,0.00045814894838258624,0.0006108652451075613
1761230505630875600,0.827875732421875,0,-0.00045814894838258624,-0.00045814894838258624
1761230505647665000,0.844664794921875,-0.00045814894838258624,-0.0010690141934901476,-0.00015271631127689034
1761230505664454000,0.861453857421875,-0.0003054326225537807,0,0.0006108652451075613
1761230505681242600,0.87824267578125,0.0003054326225537807,0.00045814894838258624,0.0003054326225537807
1761230505698032000,0.8950322265625,-0.0007635815418325365,-0.0003054326225537807,-0.0007635815418325365
1761230505714821400,0.9118212890625,-0.00045814894838258624,0.0006108652451075613,-0.0003054326225537807
1761230505731610400,0.9286103515625,0.00045814894838258624,-0.0003054326225537807,-0.00045814894838258624
1761230505748399000,0.945399169921875,0,0.00045814894838258624,-0.00015271631127689034
1761230505765188000,0.96218798828125,0.00045814894838258624,0.00015271631127689034,0.0003054326225537807
1761230505781979600,0.978979736328125,0.00045814894838258624,0.00015271631127689034,-0.00045814894838258624
1761230505798766600,0.9957666015625,-0.00045814894838258624,-0.0003054326225537807,-0.0006108652451075613
1761230505815554000,1.012553955078125,-0.0003054326225537807,0.00015271631127689034,-0.0003054326225537807
1761230505832344800,1.0293447265625,0,-0.00015271631127689034,0
1761230505849133600,1.046133544921875,-0.00045814894838258624,-0.0010690141934901476,-0.00015271631127689034
1761230505865922600,1.062922607421875,0.0006108652451075613,-0.0006108652451075613,0.00015271631127689034
1761230505882711800,1.0797119140625,0.0003054326225537807,0.0003054326225537807,0.0003054326225537807
1761230505899500800,1.096500732421875,-0.00015271631127689034,0,-0.0006108652451075613
1761230505916290000,1.1132900390625,0.00045814894838258624,-0.0009162978967651725,0.0003054326225537807
1761230505933077800,1.130077880859375,-0.0003054326225537807,0.0003054326225537807,0.0007635815418325365
1761230505949868000,1.146867919921875,-0.00045814894838258624,-0.0009162978967651725,0.00045814894838258624
1761230505966656000,1.163656005859375,-0.0003054326225537807,-0.0013744467869400978,-0.00045814894838258624
1761230505983446500,1.180446533203125,0.0006108652451075613,-0.0009162978967651725,-0.00015271631127689034
1761230506000235000,1.197235107421875,0.0006108652451075613,0.0010690141934901476,0.0007635815418325365
1761230506017023000,1.21402294921875,0.00045814894838258624,-0.00045814894838258624,0.0009162978967651725
1761230506033815300,1.230815185546875,0,-0.0007635815418325365,-0.0007635815418325365
1761230506050602500,1.2476025390625,-0.00015271631127689034,0.00045814894838258624,0.0007635815418325365
1761230506067391700,1.264391845703125,0.0003054326225537807,0.00045814894838258624,-0.00015271631127689034
1761230506084180500,1.281180419921875,0.00015271631127689034,-0.00045814894838258624,-0.0007635815418325365
1761230506100970000,1.297969970703125,0.0003054326225537807,-0.0007635815418325365,0.00045814894838258624
1761230506117758700,1.3147587890625,0.00015271631127689034,0.00015271631127689034,0.0007635815418325365
1761230506134546700,1.331546630859375,-0.00045814894838258624,0.0013744467869400978,0.0006108652451075613
1761230506151343000,1.348343017578125,-0.00045814894838258624,0.0007635815418325365,0.0012217304902151227
1761230506168126000,1.3651259765625,0.00015271631127689034,0.0003054326225537807,-0.0012217304902151227
1761230506184915200,1.381915283203125,-0.00015271631127689034,0.00045814894838258624,-0.00015271631127689034
1761230506201691100,1.398691162109375,-0.00015271631127689034,0.0006108652451075613,0.0009162978967651725
1761230506218493200,1.4154931640625,0.00045814894838258624,0,0.0003054326225537807
1761230506235282400,1.432282470703125,-0.0003054326225537807,-0.00015271631127689034,-0.00015271631127689034
1761230506252071400,1.449071533203125,0.00015271631127689034,-0.00045814894838258624,-0.0003054326225537807
1761230506268860700,1.465860595703125,0,0.0007635815418325365,-0.0010690141934901476
1761230506285647400,1.4826474609375,-0.0003054326225537807,0,0.0007635815418325365
1761230506302441000,1.49944091796875,0.0003054326225537807,-0.0007635815418325365,-0.0003054326225537807
1761230506319227400,1.516227294921875,0,-0.0009162978967651725,-0.0003054326225537807
1761230506336017000,1.533016845703125,-0.00015271631127689034,0.0010690141934901476,-0.00015271631127689034
1761230506352806000,1.549805908203125,0,0.0003054326225537807,0.00045814894838258624
1761230506369595000,1.566594970703125,-0.00015271631127689034,-0.0003054326225537807,-0.0006108652451075613
1761230506386382600,1.583382568359375,-0.0010690141934901476,0.00015271631127689034,-0.0003054326225537807
1761230506403172900,1.6001728515625,-0.00015271631127689034,-0.0007635815418325365,0.0003054326225537807
1761230506419962400,1.61696240234375,0.00045814894838258624,0,0.0009162978967651725
1761230506436751400,1.63375146484375,0.0003054326225537807,0.0012217304902151227,-0.00045814894838258624
1761230506453539000,1.6505390625,-0.00015271631127689034,-0.0009162978967651725,0.00015271631127689034
1761230506470329300,1.667329345703125,0.0006108652451075613,0.00015271631127689034,-0.00045814894838258624
1761230506487106300,1.684106201171875,0.0003054326225537807,0.00015271631127689034,0.0003054326225537807
1761230506503905000,1.700905029296875,0.0006108652451075613,0.00015271631127689034,-0.00015271631127689034
1761230506520698400,1.717698486328125,-0.00045814894838258624,0.00015271631127689034,0.00015271631127689034
1761230506537485600,1.734485595703125,0.0003054326225537807,-0.0003054326225537807,-0.0013744467869400978
1761230506554273000,1.75127294921875,0.0007635815418325365,-0.0003054326225537807,0.0009162978967651725
1761230506571065000,1.768065185546875,-0.0006108652451075613,-0.00015271631127689034,0.00015271631127689034
1761230506587852800,1.784852783203125,0.0003054326225537807,-0.00045814894838258624,0
1761230506604642300,1.801642333984375,0,0.0007635815418325365,-0.00045814894838258624
1761230506621430800,1.8184306640625,0.00045814894838258624,0.00015271631127689034,-0.00045814894838258624
1761230506638220000,1.835219970703125,-0.00045814894838258624,-0.0003054326225537807,-0.0009162978967651725
1761230506655009300,1.85200927734375,0.0007635815418325365,0.0006108652451075613,-0.00015271631127689034
1761230506671798000,1.868798095703125,0,0.0006108652451075613,0.0009162978967651725
1761230506688587300,1.885587158203125,-0.0003054326225537807,-0.0006108652451075613,0.00015271631127689034
1761230506705375000,1.902375,-0.00015271631127689034,-0.0003054326225537807,0.0003054326225537807
1761230506722165200,1.919165283203125,-0.00045814894838258624,-0.0006108652451075613,0.0013744467869400978
1761230506738941400,1.93594140625,0.0003054326225537807,-0.0006108652451075613,0.0006108652451075613
1761230506755743500,1.952743408203125,0.00015271631127689034,0.0006108652451075613,-0.0006108652451075613
1761230506772531000,1.969531005859375,-0.00045814894838258624,0.0007635815418325365,0.0007635815418325365
1761230506789308700,1.98630859375,-0.0006108652451075613,0.0012217304902151227,0.0012217304902151227
1761230506806111000,2.003111083984375,0.0003054326225537807,0.0013744467869400978,-0.00015271631127689034
1761230506822899700,2.019899658203125,0.00015271631127689034,0.00045814894838258624,0.00045814894838258624
1761230506839689000,2.03668896484375,-0.0003054326225537807,-0.00045814894838258624,-0.00045814894838258624
1761230506856466700,2.053466796875,0.0012217304902151227,0.0010690141934901476,0.0007635815418325365
1761230506873266700,2.0702666015625,-0.00045814894838258624,0.0009162978967651725,-0.0003054326225537807
1761230506890056400,2.087056396484375,0.00015271631127689034,0.00015271631127689034,0.00015271631127689034
1761230506906845200,2.10384521484375,-0.00045814894838258624,0.00015271631127689034,0
1761230506923634200,2.12063427734375,0.0003054326225537807,-0.00015271631127689034,-0.0007635815418325365
1761230506940423400,2.13742333984375,0.0006108652451075613,0.00015271631127689034,0.00015271631127689034
1761230506957204200,2.154204345703125,-0.0006108652451075613,0.0003054326225537807,0.00045814894838258624
1761230506974001400,2.17100146484375,-0.0003054326225537807,-0.0007635815418325365,0.0003054326225537807
1761230506990777900,2.18777783203125,0.0006108652451075613,-0.00015271631127689034,0
1761230507007580000,2.204579833984375,0.0003054326225537807,-0.0007635815418325365,-0.0007635815418325365
1761230507024367000,2.2213671875,0.00015271631127689034,0.0003054326225537807,-0.001832595793530345
1761230507041154800,2.23815478515625,0,0,-0.0010690141934901476
1761230507057947000,2.25494677734375,0.00015271631127689034,0,0.00015271631127689034
1761230507074733600,2.271733642578125,-0.0003054326225537807,0.0003054326225537807,0.00045814894838258624
1761230507091526000,2.28852587890625,0.00015271631127689034,-0.0006108652451075613,0.0012217304902151227
1761230507108315600,2.305315673828125,0.00015271631127689034,-0.0006108652451075613,0.0003054326225537807
1761230507125103000,2.32210302734375,0.0006108652451075613,0.0009162978967651725,0.0006108652451075613
1761230507141892000,2.33889208984375,0.0003054326225537807,0.0007635815418325365,-0.0003054326225537807
1761230507158681300,2.355681396484375,0.0006108652451075613,-0.0006108652451075613,0.0007635815418325365
1761230507175470300,2.37247021484375,0,0,-0.00015271631127689034
1761230507192259600,2.389259521484375,0,-0.00015271631127689034,0.00045814894838258624
1761230507209048600,2.406048583984375,0.00015271631127689034,0.00045814894838258624,0
1761230507225837600,2.422837646484375,0.0003054326225537807,-0.0003054326225537807,0.00015271631127689034
1761230507242613500,2.439613525390625,0,0.0009162978967651725,0.0006108652451075613
1761230507259415800,2.456415771484375,-0.00015271631127689034,-0.0006108652451075613,-0.00015271631127689034
1761230507276204800,2.473204833984375,0.0003054326225537807,-0.00015271631127689034,0
1761230507292974000,2.48997412109375,0.00015271631127689034,0.00015271631127689034,0.00015271631127689034
1761230507311981300,2.508981201171875,-0.0006108652451075613,-0.0006108652451075613,0.00045814894838258624
1761230507328670500,2.52567041015625,0,0.0006108652451075613,0
1761230507345458400,2.54245849609375,-0.0003054326225537807,0.0003054326225537807,-0.00045814894838258624
1761230507362248400,2.55924853515625,-0.00045814894838258624,-0.0006108652451075613,0.00045814894838258624
1761230507379037400,2.576037353515625,0.0006108652451075613,-0.0003054326225537807,0.00015271631127689034
1761230507395844000,2.592843994140625,-0.00045814894838258624,0.0006108652451075613,0.0010690141934901476
1761230507412629000,2.60962890625,-0.0006108652451075613,0,0.00045814894838258624
1761230507429402400,2.62640234375,-0.00045814894838258624,-0.00015271631127689034,0
1761230507446197200,2.643197265625,-0.00015271631127689034,-0.0006108652451075613,0
1761230507462983200,2.659983154296875,-0.00015271631127689034,-0.0006108652451075613,0.00045814894838258624
1761230507479769000,2.67676904296875,-0.0009162978967651725,-0.00015271631127689034,0.0003054326225537807
1761230507496564500,2.693564453125,-0.00015271631127689034,0.0006108652451075613,0.00045814894838258624
1761230507513350400,2.710350341796875,0.0006108652451075613,-0.0003054326225537807,0.00045814894838258624
1761230507530156000,2.727156005859375,0,-0.00015271631127689034,0.0009162978967651725
1761230507546943000,2.74394287109375,0.0003054326225537807,0.0006108652451075613,-0.0010690141934901476
1761230507563727000,2.76072705078125,0.00045814894838258624,-0.00045814894838258624,0.00015271631127689034
1761230507580524500,2.777524658203125,0.0006108652451075613,-0.0012217304902151227,-0.0003054326225537807
1761230507597292500,2.79429248046875,-0.00015271631127689034,0.0003054326225537807,-0.00015271631127689034
1761230507614088700,2.811088623046875,-0.00015271631127689034,0.0006108652451075613,-0.0006108652451075613
1761230507630873600,2.82787353515625,0.00045814894838258624,0.00015271631127689034,0.00045814894838258624
1761230507647663000,2.8446630859375,-0.00045814894838258624,-0.0007635815418325365,0.0010690141934901476
1761230507664449800,2.86144970703125,-0.00015271631127689034,-0.00015271631127689034,0.0007635815418325365
1761230507681243400,2.878243408203125,-0.00015271631127689034,0.0007635815418325365,-0.0003054326225537807
1761230507698030000,2.895030029296875,-0.00045814894838258624,-0.00015271631127689034,0.0003054326225537807
1761230507714836200,2.911836181640625,0.00015271631127689034,0.0009162978967651725,0.0003054326225537807
1761230507731621400,2.928621337890625,0.00015271631127689034,0.0013744467869400978,0.00015271631127689034
1761230507748394800,2.945394775390625,0.00045814894838258624,-0.00045814894838258624,-0.0003054326225537807
1761230507765203000,2.962202880859375,-0.00015271631127689034,-0.0012217304902151227,0.0003054326225537807
1761230507781989000,2.978989013671875,-0.00015271631127689034,-0.0009162978967651725,0.00045814894838258624
1761230507798776300,2.9957763671875,-0.00045814894838258624,-0.0006108652451075613,-0.0003054326225537807
1761230507815567600,3.012567626953125,-0.00015271631127689034,-0.00015271631127689034,-0.0010690141934901476
1761230507832352500,3.0293525390625,0.0006108652451075613,-0.0003054326225537807,0.0003054326225537807
1761230507849149200,3.046149169921875,0.0006108652451075613,-0.00045814894838258624,0
1761230507865934800,3.062934814453125,-0.00015271631127689034,-0.00015271631127689034,0.0003054326225537807
1761230507882723800,3.079723876953125,0.00045814894838258624,-0.0003054326225537807,-0.00045814894838258624
1761230507899512300,3.09651220703125,0.00045814894838258624,0.00045814894838258624,0.0010690141934901476
1761230507916284400,3.113284423828125,-0.0003054326225537807,-0.00045814894838258624,0
1761230507933077000,3.130076904296875,-0.0003054326225537807,0.0007635815418325365,0.0010690141934901476
1761230507949866200,3.1468662109375,0.0006108652451075613,-0.00015271631127689034,0.00015271631127689034
1761230507966655000,3.163655029296875,0,-0.0013744467869400978,-0.0006108652451075613
1761230507983444000,3.18044384765625,-0.00045814894838258624,0,-0.0003054326225537807
1761230508000230400,3.19723046875,-0.00045814894838258624,-0.00015271631127689034,0.00015271631127689034
1761230508017042200,3.214042236328125,0.0003054326225537807,-0.00015271631127689034,0.0007635815418325365
1761230508033825800,3.23082568359375,-0.00015271631127689034,-0.00045814894838258624,0.00015271631127689034
1761230508050613800,3.24761376953125,-0.00045814894838258624,-0.00015271631127689034,-0.0006108652451075613
1761230508067403800,3.26440380859375,-0.00045814894838258624,-0.00045814894838258624,-0.00045814894838258624
1761230508084190500,3.2811904296875,0.0006108652451075613,0.0003054326225537807,0.0003054326225537807
1761230508100978200,3.297978271484375,-0.00015271631127689034,0,-0.00015271631127689034
1761230508117755400,3.31475537109375,-0.00045814894838258624,-0.00045814894838258624,-0.0003054326225537807
1761230508134542800,3.33154296875,0.0006108652451075613,0.0003054326225537807,0.0003054326225537807
1761230508151313700,3.348313720703125,0.0006108652451075613,0.0003054326225537807,0
1761230508168110800,3.36511083984375,0,-0.00015271631127689034,-0.0007635815418325365
1761230508184916200,3.381916259765625,0.0006108652451075613,-0.0003054326225537807,-0.00045814894838258624
1761230508201695700,3.39869580078125,-0.00045814894838258624,0.0003054326225537807,-0.0012217304902151227
1761230508218505000,3.4155048828125,-0.00045814894838258624,-0.00045814894838258624,0
1761230508235294200,3.432294189453125,0.0006108652451075613,0.0006108652451075613,-0.0007635815418325365
1761230508252087000,3.449087158203125,-0.00045814894838258624,0.0003054326225537807,0.0010690141934901476
1761230508268873500,3.46587353515625,0.0003054326225537807,0.0006108652451075613,0.00015271631127689034
1761230508285661200,3.4826611328125,-0.00015271631127689034,0.0006108652451075613,0.00015271631127689034
1761230508302449700,3.49944970703125,0.00015271631127689034,0.0006108652451075613,0.00045814894838258624
1761230508319240200,3.516240234375,-0.00045814894838258624,0.00045814894838258624,-0.0006108652451075613
1761230508336028200,3.533028076171875,0.0006108652451075613,0.0006108652451075613,0.0003054326225537807
1761230508352801000,3.549801025390625,0.00045814894838258624,-0.0009162978967651725,-0.0003054326225537807
1761230508369606400,3.5666064453125,-0.00045814894838258624,0.0003054326225537807,0
1761230508386395600,3.583395751953125,-0.00015271631127689034,0.0012217304902151227,-0.0003054326225537807
1761230508403165700,3.600165771484375,0.0003054326225537807,-0.0006108652451075613,-0.0006108652451075613
1761230508419961600,3.616961669921875,0.0003054326225537807,-0.00045814894838258624,-0.00045814894838258624
1761230508436747800,3.633747802734375,-0.0003054326225537807,0.00015271631127689034,-0.00015271631127689034
1761230508453518000,3.65051806640625,0.00015271631127689034,0.0007635815418325365,0.00015271631127689034
1761230508470327300,3.667327392578125,-0.0006108652451075613,0.0006108652451075613,0.0006108652451075613
1761230508487116300,3.6841162109375,-0.00045814894838258624,0.0012217304902151227,-0.00015271631127689034
1761230508503922400,3.70092236328125,-0.0003054326225537807,0.0006108652451075613,0.0009162978967651725
1761230508520708900,3.717708984375,-0.0003054326225537807,-0.0003054326225537807,-0.0006108652451075613
1761230508537496800,3.734496826171875,-0.00045814894838258624,0.00015271631127689034,-0.00015271631127689034
1761230508554270200,3.751270263671875,-0.0003054326225537807,-0.0006108652451075613,0.0003054326225537807
1761230508571074000,3.768073974609375,0.0006108652451075613,-0.00015271631127689034,-0.0009162978967651725
1761230508587860700,3.78486083984375,-0.00015271631127689034,-0.00015271631127689034,-0.0007635815418325365
1761230508604640300,3.80164013671875,0.00045814894838258624,0,-0.0007635815418325365
1761230508621428500,3.818428466796875,-0.0006108652451075613,-0.0003054326225537807,0.0003054326225537807
1761230508638209500,3.83520947265625,-0.00015271631127689034,0.00045814894838258624,-0.00045814894838258624
1761230508655007000,3.852007080078125,-0.00015271631127689034,-0.0009162978967651725,0.0010690141934901476
1761230508671794200,3.868794189453125,0.00045814894838258624,0,-0.0007635815418325365
1761230508688586800,3.885586669921875,-0.00015271631127689034,0.0003054326225537807,0
1761230508705391000,3.90239111328125,-0.0006108652451075613,-0.0012217304902151227,-0.0009162978967651725
1761230508722177300,3.91917724609375,-0.0006108652451075613,-0.0003054326225537807,0.00015271631127689034
1761230508738965800,3.9359658203125,0.0006108652451075613,0.0006108652451075613,0.0006108652451075613
1761230508755752700,3.952752685546875,0.00015271631127689034,0.0006108652451075613,-0.0010690141934901476
1761230508772540400,3.96954052734375,-0.0006108652451075613,0.0003054326225537807,0
1761230508789333000,3.9863330078125,-0.0006108652451075613,0.0006108652451075613,-0.0007635815418325365
1761230508806126300,4.003126220703125,-0.00045814894838258624,0.00045814894838258624,-0.00015271631127689034
1761230508822909400,4.019909423828125,-0.00015271631127689034,0.0006108652451075613,-0.00045814894838258624
1761230508839701000,4.036700927734375,0.0006108652451075613,0.0006108652451075613,-0.00045814894838258624
1761230508856489200,4.0534892578125,0.00045814894838258624,0.00045814894838258624,0.00015271631127689034
1761230508873278700,4.07027880859375,0.0003054326225537807,-0.00045814894838258624,-0.0007635815418325365
1761230508890044000,4.0870439453125,-0.00045814894838258624,-0.0003054326225537807,0.0003054326225537807
1761230508906843000,4.1038427734375,0.00045814894838258624,-0.00015271631127689034,-0.001679879380390048
1761230508923632000,4.120632080078125,0.0006108652451075613,-0.00015271631127689034,-0.0007635815418325365
1761230508940420900,4.1374208984375,-0.0006108652451075613,-0.0003054326225537807,0.00015271631127689034
1761230508957210400,4.15421044921875,-0.0006108652451075613,0.0003054326225537807,0.0010690141934901476
1761230508973999400,4.170999267578125,-0.0006108652451075613,-0.0006108652451075613,-0.0007635815418325365
1761230508990805500,4.187805419921875,-0.0003054326225537807,-0.0006108652451075613,-0.0009162978967651725
1761230509007591200,4.204591064453125,0.00015271631127689034,0.00045814894838258624,0.00015271631127689034
1761230509024380400,4.22138037109375,0.00015271631127689034,0.0006108652451075613,-0.00045814894838258624
1761230509041169400,4.23816943359375,-0.0003054326225537807,0.00045814894838258624,0.0006108652451075613
1761230509057958100,4.254958251953125,-0.0006108652451075613,-0.00045814894838258624,-0.00045814894838258624
1761230509074745300,4.271745361328125,-0.00015271631127689034,-0.0009162978967651725,-0.0006108652451075613
1761230509091533600,4.288533447265625,0.0003054326225537807,-0.00045814894838258624,-0.00015271631127689034
1761230509108311800,4.305311767578125,-0.00045814894838258624,0.00045814894838258624,-0.00015271631127689034
1761230509125100800,4.322100830078125,0.0006108652451075613,0.00045814894838258624,-0.00045814894838258624
1761230509141879800,4.3388798828125,-0.0006108652451075613,-0.0003054326225537807,0.00015271631127689034
1761230509158679000,4.355678955078125,0.00015271631127689034,0,-0.0007635815418325365
1761230509175468000,4.372468017578125,0.0003054326225537807,0.00015271631127689034,-0.00045814894838258624
1761230509192260400,4.38926025390625,0.0006108652451075613,0.00045814894838258624,0.0009162978967651725
1761230509209057500,4.4060576171875,-0.00045814894838258624,-0.0006108652451075613,0.0006108652451075613
1761230509225833200,4.422833251953125,-0.0003054326225537807,-0.00045814894838258624,0.0003054326225537807
1761230509242638600,4.439638671875,-0.00045814894838258624,-0.0006108652451075613,-0.0007635815418325365
1761230509259427000,4.456427001953125,0.0006108652451075613,-0.00015271631127689034,-0.0006108652451075613
1761230509276216600,4.473216552734375,-0.0003054326225537807,-0.00015271631127689034,0.00015271631127689034
1761230509293004000,4.490004150390625,-0.00015271631127689034,-0.00015271631127689034,0.0007635815418325365
1761230509309795800,4.5067958984375,0.0006108652451075613,0.00045814894838258624,0.00015271631127689034
1761230509326566700,4.523566650390625,0.00045814894838258624,0.00045814894838258624,-0.00015271631127689034
1761230509343367000,4.540366943359375,-0.0003054326225537807,0.0006108652451075613,0.0003054326225537807
1761230509360165400,4.557165283203125,-0.00015271631127689034,0.0006108652451075613,-0.00045814894838258624
1761230509376933600,4.57393359375,-0.00015271631127689034,0.00015271631127689034,-0.00045814894838258624
1761230509393725700,4.5907255859375,-0.0006108652451075613,0.0007635815418325365,-0.0006108652451075613
1761230509410515200,4.60751513671875,-0.00045814894838258624,0.00015271631127689034,-0.00015271631127689034
1761230509427304000,4.624303955078125,-0.00015271631127689034,0.0006108652451075613,-0.0007635815418325365
1761230509444094700,4.6410947265625,-0.0003054326225537807,-0.0010690141934901476,0.00015271631127689034
1761230509460882200,4.657882080078125,-0.0003054326225537807,0.0003054326225537807,0.0010690141934901476
1761230509477688800,4.674688720703125,0.00045814894838258624,0.0003054326225537807,0.00015271631127689034
1761230509494474000,4.691473876953125,-0.0003054326225537807,-0.0006108652451075613,0.0003054326225537807
1761230509511263700,4.708263671875,0.0003054326225537807,0.0003054326225537807,-0.00045814894838258624
1761230509528050000,4.7250498046875,0.0003054326225537807,-0.00015271631127689034,-0.00045814894838258624
1761230509544837600,4.741837646484375,-0.00045814894838258624,0.00045814894838258624,0.00045814894838258624
1761230509561634600,4.758634521484375,0.0003054326225537807,-0.0007635815418325365,0.0003054326225537807
1761230509578419200,4.775419189453125,-0.00015271631127689034,0.00045814894838258624,0.0006108652451075613
1761230509595191300,4.79219140625,-0.0006108652451075613,0.00015271631127689034,0.00015271631127689034
1761230509611983600,4.808983642578125,-0.00045814894838258624,-0.0006108652451075613,-0.00015271631127689034
1761230509628772900,4.82577294921875,0.00015271631127689034,0.00045814894838258624,0.00015271631127689034
1761230509645558500,4.84255859375,-0.0003054326225537807,0.0012217304902151227,-0.00015271631127689034
1761230509662348800,4.859348876953125,0.00045814894838258624,0,0.00015271631127689034
1761230509679145500,4.8761455078125,0.0006108652451075613,0.00045814894838258624,-0.0009162978967651725
1761230509695946500,4.892946533203125,0.00015271631127689034,0.00045814894838258624,0.0003054326225537807
1761230509712731600,4.909731689453125,-0.0006108652451075613,0.0006108652451075613,-0.00045814894838258624
1761230509729521200,4.926521240234375,-0.00045814894838258624,0.0006108652451075613,-0.00045814894838258624
1761230509746310000,4.943309814453125,0.00015271631127689034,0.00015271631127689034,-0.0007635815418325365
1761230509763099100,4.96009912109375,0.00015271631127689034,-0.0003054326225537807,-0.00045814894838258624
1761230509779886800,4.976886962890625,0.0006108652451075613,-0.0007635815418325365,0
1761230509796661800,4.993661865234375,0.00045814894838258624,0.0013744467869400978,0.0003054326225537807
1761230509813466600,5.010466552734375,0.00045814894838258624,0.0006108652451075613,0.0003054326225537807
1761230509830255900,5.027255859375,0.0006108652451075613,-0.00045814894838258624,-0.0009162978967651725
1761230509847042000,5.0440419921875,-0.0006108652451075613,-0.0003054326225537807,0.00015271631127689034
1761230509863817000,5.06081689453125,0.0003054326225537807,-0.0006108652451075613,0.0010690141934901476
1761230509880608800,5.07760888671875,-0.0006108652451075613,-0.0006108652451075613,-0.0006108652451075613
1761230509897401300,5.0944013671875,0.00045814894838258624,-0.0003054326225537807,-0.0006108652451075613
1761230509914171100,5.111171142578125,0.00045814894838258624,-0.00045814894838258624,0
1761230509930976000,5.12797607421875,0.00045814894838258624,-0.0009162978967651725,-0.00015271631127689034
1761230509947765000,5.144764892578125,0.0006108652451075613,0.00015271631127689034,0.00045814894838258624
1761230509964554200,5.16155419921875,-0.0006108652451075613,0.0006108652451075613,0.00015271631127689034
1761230509981343500,5.178343505859375,-0.0003054326225537807,0.00015271631127689034,0.0006108652451075613
1761230509998132500,5.195132568359375,0.0006108652451075613,0.00045814894838258624,0.00045814894838258624
1761230510014938400,5.2119384765625,0.0003054326225537807,-0.0009162978967651725,-0.00045814894838258624
1761230510031724000,5.22872412109375,-0.00045814894838258624,0.00015271631127689034,-0.0007635815418325365
1761230510048514000,5.24551416015625,-0.0003054326225537807,0.0003054326225537807,0.0003054326225537807
1761230510065302000,5.262302001953125,-0.0003054326225537807,-0.0003054326225537807,0.00045814894838258624
1761230510082073300,5.2790732421875,0.00045814894838258624,0.0006108652451075613,0.00045814894838258624
1761230510098855400,5.29585546875,0.0006108652451075613,0.0006108652451075613,-0.0003054326225537807
1761230510115654100,5.312654052734375,0.0003054326225537807,0.0009162978967651725,0.0003054326225537807
1761230510132444700,5.329444580078125,-0.0006108652451075613,-0.00015271631127689034,0.00045814894838258624
1761230510149234000,5.34623388671875,-0.00015271631127689034,0.00045814894838258624,0.0003054326225537807
1761230510166021600,5.363021728515625,0.0006108652451075613,0.00045814894838258624,0.0006108652451075613
1761230510182815500,5.3798154296875,-0.00015271631127689034,-0.0003054326225537807,0.00015271631127689034
1761230510199614500,5.396614501953125,0.00045814894838258624,-0.0003054326225537807,-0.0003054326225537807
1761230510216404000,5.413404052734375,-0.0006108652451075613,0.0007635815418325365,-0.0007635815418325365
1761230510233191400,5.43019140625,-0.0006108652451075613,-0.00045814894838258624,0.0003054326225537807
1761230510249981400,5.4469814453125,0.00045814894838258624,0.00015271631127689034,-0.0003054326225537807
1761230510266772000,5.46377197265625,0.00045814894838258624,0,0.0006108652451075613
1761230510283559700,5.4805595703125,-0.00015271631127689034,-0.00015271631127689034,0.0010690141934901476
1761230510300348200,5.49734814453125,0.0006108652451075613,0.00045814894838258624,-0.0006108652451075613
1761230510317138000,5.514137939453125,0.0006108652451075613,-0.00045814894838258624,0.00045814894838258624
1761230510333927400,5.530927490234375,-0.0003054326225537807,0.0006108652451075613,-0.0006108652451075613
1761230510350698800,5.54769873046875,-0.0006108652451075613,-0.00015271631127689034,-0.0003054326225537807
1761230510367480800,5.564480712890625,-0.0006108652451075613,0.00045814894838258624,0.0003054326225537807
1761230510384280600,5.581280517578125,0.00045814894838258624,0,0.0003054326225537807
1761230510401070000,5.598070068359375,-0.0003054326225537807,0.00015271631127689034,0.0003054326225537807
1761230510417857500,5.614857421875,0.0003054326225537807,-0.001527163083665073,-0.00015271631127689034
1761230510434648000,5.63164794921875,-0.0003054326225537807,0,-0.0006108652451075613
1761230510451454000,5.648453857421875,0.0006108652451075613,0.00045814894838258624,0.0006108652451075613
1761230510468240100,5.665240234375,-0.0006108652451075613,-0.00015271631127689034,0.0003054326225537807
1761230510485006000,5.682006103515625,-0.00045814894838258624,-0.0006108652451075613,-0.00015271631127689034
1761230510501818600,5.698818603515625,-0.00045814894838258624,0,-0.0003054326225537807
1761230510518607000,5.715607177734375,-0.0003054326225537807,-0.00045814894838258624,0
1761230510535384000,5.732384033203125,-0.0006108652451075613,0.0007635815418325365,0.00045814894838258624
1761230510552183800,5.749183837890625,0.00015271631127689034,0.0009162978967651725,0.00045814894838258624
1761230510568974300,5.765974365234375,-0.00045814894838258624,0.0009162978967651725,0.0003054326225537807
1761230510585746000,5.782745849609375,0.00045814894838258624,-0.0006108652451075613,-0.0007635815418325365
1761230510602538800,5.799538818359375,0.0003054326225537807,-0.0006108652451075613,0
1761230510619327700,5.81632763671875,0.00015271631127689034,0.00045814894838258624,-0.0003054326225537807
1761230510636117000,5.833116943359375,0.00015271631127689034,0.00015271631127689034,0.0003054326225537807
1761230510652884200,5.84988427734375,0.00015271631127689034,-0.00015271631127689034,-0.00015271631127689034
1761230510669692000,5.86669189453125,-0.00045814894838258624,0,-0.0007635815418325365
1761230510686504400,5.88350439453125,-0.00045814894838258624,0.00045814894838258624,0.00045814894838258624
1761230510703287300,5.900287353515625,-0.0003054326225537807,-0.0003054326225537807,-0.00045814894838258624
1761230510720076300,5.917076171875,-0.00015271631127689034,0.0010690141934901476,0.0006108652451075613
1761230510736862500,5.933862548828125,0.0006108652451075613,-0.0010690141934901476,0.00015271631127689034
1761230510753638000,5.950637939453125,0.00015271631127689034,-0.0006108652451075613,-0.00015271631127689034
1761230510770443300,5.967443359375,-0.00015271631127689034,0.0003054326225537807,0.00045814894838258624
1761230510787220200,5.98422021484375,0.00015271631127689034,-0.0003054326225537807,-0.0007635815418325365
1761230510804020700,6.001020751953125,-0.0003054326225537807,-0.0006108652451075613,-0.0003054326225537807
1761230510820810500,6.017810546875,-0.00015271631127689034,-0.00045814894838258624,0.00015271631127689034
1761230510837570000,6.034570068359375,0.00045814894838258624,0.0007635815418325365,0.00045814894838258624
1761230510854374700,6.051374755859375,-0.0013744467869400978,0.0006108652451075613,0.00045814894838258624
1761230510871164000,6.068163818359375,0.00015271631127689034,0.00015271631127689034,0.0006108652451075613
1761230510887953000,6.084952880859375,-0.0006108652451075613,0.0006108652451075613,-0.0003054326225537807
1761230510904742000,6.101741943359375,-0.00015271631127689034,0.00015271631127689034,0.0003054326225537807
1761230510921531000,6.11853076171875,-0.00045814894838258624,0.0003054326225537807,0.0003054326225537807
1761230510938335000,6.1353349609375,0.00045814894838258624,-0.00015271631127689034,-0.0003054326225537807
1761230510955127300,6.152127197265625,-0.0006108652451075613,-0.0012217304902151227,0.00015271631127689034
1761230510971906000,6.168906005859375,0.0006108652451075613,0.0012217304902151227,-0.0006108652451075613
1761230510988703200,6.185703125,-0.00045814894838258624,0.0003054326225537807,-0.00045814894838258624
1761230511005490400,6.202490478515625,0.00015271631127689034,0.00015271631127689034,-0.00045814894838258624
1761230511022250000,6.21925,0.00015271631127689034,0.0010690141934901476,0.0003054326225537807
1761230511039068200,6.236068115234375,-0.00015271631127689034,0.0003054326225537807,-0.00045814894838258624
1761230511055855900,6.25285595703125,-0.00045814894838258624,-0.00015271631127689034,0.00045814894838258624
1761230511072642800,6.269642822265625,0.0006108652451075613,0.00045814894838258624,0
1761230511089421600,6.286421630859375,0.0006108652451075613,0.0009162978967651725,0.00045814894838258624
1761230511106210600,6.30321044921875,0.0006108652451075613,0.00015271631127689034,-0.0003054326225537807
1761230511122999600,6.31999951171875,-0.00015271631127689034,0,0
1761230511139789000,6.3367890625,0.00045814894838258624,0.00045814894838258624,-0.0006108652451075613
1761230511156577800,6.353577880859375,-0.00045814894838258624,0.0007635815418325365,-0.0006108652451075613
1761230511173370400,6.370370361328125,0.0006108652451075613,0.0006108652451075613,-0.0003054326225537807
1761230511190168600,6.38716845703125,-0.0003054326225537807,0.00015271631127689034,0.0003054326225537807
1761230511206958600,6.40395849609375,0.0003054326225537807,-0.00015271631127689034,0.00045814894838258624
1761230511223748000,6.420748046875,0.00015271631127689034,-0.0009162978967651725,-0.0003054326225537807
1761230511240537000,6.437537109375,-0.00015271631127689034,0.00045814894838258624,0.0003054326225537807
1761230511257323500,6.454323486328125,0.0006108652451075613,-0.00045814894838258624,0
1761230511274115800,6.47111572265625,-0.00045814894838258624,-0.00045814894838258624,0.00015271631127689034
1761230511290901000,6.48790087890625,-0.0003054326225537807,0.0003054326225537807,-0.0003054326225537807
1761230511307696400,6.5046962890625,-0.0003054326225537807,-0.0003054326225537807,0.0007635815418325365
1761230511324465000,6.52146484375,0.00015271631127689034,0.00015271631127689034,0
1761230511341254400,6.53825439453125,0.00015271631127689034,-0.00045814894838258624,0.0003054326225537807
1761230511358033700,6.55503369140625,0.0006108652451075613,-0.0006108652451075613,0.0003054326225537807
1761230511374837800,6.571837646484375,0.0003054326225537807,0.00015271631127689034,0.00015271631127689034
1761230511391612400,6.5886123046875,0.0006108652451075613,-0.00015271631127689034,-0.0003054326225537807
1761230511408413700,6.60541357421875,0.0003054326225537807,-0.00045814894838258624,0
1761230511425220400,6.622220458984375,0.0003054326225537807,0.00045814894838258624,0.0003054326225537807
1761230511442005200,6.639005126953125,0.00045814894838258624,-0.0006108652451075613,-0.0006108652451075613
1761230511458795300,6.655795166015625,-0.0003054326225537807,-0.0006108652451075613,0.00045814894838258624
1761230511475584500,6.67258447265625,0.0006108652451075613,-0.0003054326225537807,0.0003054326225537807
1761230511492364300,6.6893642578125,-0.0003054326225537807,0.00045814894838258624,0.0003054326225537807
1761230511509160000,6.706159912109375,0.00015271631127689034,0.00045814894838258624,-0.0003054326225537807
1761230511525955000,6.722955078125,-0.00045814894838258624,0.0006108652451075613,0.00015271631127689034
1761230511542732500,6.739732666015625,-0.00015271631127689034,0,0.00045814894838258624
1761230511559533600,6.756533447265625,0.00015271631127689034,0.00015271631127689034,0.00015271631127689034
1761230511576281300,6.77328125,-0.00015271631127689034,-0.00045814894838258624,0.00045814894838258624
1761230511593090600,6.790090576171875,-0.00045814894838258624,0,0.00045814894838258624
1761230511609887000,6.806886962890625,0.00045814894838258624,0.00015271631127689034,0.0012217304902151227
1761230511626670600,6.823670654296875,-0.0003054326225537807,-0.0007635815418325365,0.0003054326225537807
1761230511643460600,6.840460693359375,-0.0006108652451075613,0.0006108652451075613,0.0003054326225537807
1761230511660247300,6.857247314453125,0.00015271631127689034,0.00045814894838258624,0.0010690141934901476
1761230511677044500,6.87404443359375,-0.0006108652451075613,-0.0006108652451075613,-0.00015271631127689034
1761230511693824800,6.89082470703125,-0.00015271631127689034,0.0007635815418325365,0.0003054326225537807
1761230511710646800,6.907646728515625,-0.00015271631127689034,0.00045814894838258624,-0.0006108652451075613
1761230511727419600,6.924419677734375,0.00015271631127689034,0.00015271631127689034,0
1761230511744208000,6.941207763671875,0.00015271631127689034,-0.0003054326225537807,0.00045814894838258624
1761230511760963600,6.957963623046875,0.0003054326225537807,0.00045814894838258624,-0.0003054326225537807
1761230511777783800,6.97478369140625,-0.00015271631127689034,-0.0003054326225537807,-0.0006108652451075613
1761230511794574300,6.99157421875,0.0006108652451075613,0.00015271631127689034,0.0010690141934901476
1761230511811351000,7.00835107421875,0.0006108652451075613,-0.00015271631127689034,0.00045814894838258624
1761230511828142600,7.025142578125,-0.00045814894838258624,0.0006108652451075613,-0.0006108652451075613
1761230511844926700,7.0419267578125,-0.00015271631127689034,0,-0.00045814894838258624
1761230511861709000,7.058708984375,-0.00015271631127689034,-0.0006108652451075613,0
1761230511878507500,7.075507568359375,0.0003054326225537807,0.0010690141934901476,0
1761230511895295700,7.092295654296875,0.0006108652451075613,0.0007635815418325365,0.00045814894838258624
1761230511912102700,7.1091025390625,-0.00045814894838258624,-0.00045814894838258624,0.00015271631127689034
1761230511928888800,7.125888916015625,0.0003054326225537807,0.0006108652451075613,0.0003054326225537807
1761230511945677600,7.142677490234375,0.0006108652451075613,0.00015271631127689034,-0.0007635815418325365
1761230511962465000,7.159465087890625,-0.00015271631127689034,0.00015271631127689034,-0.0003054326225537807
1761230511979256000,7.176256103515625,0.0006108652451075613,-0.00015271631127689034,-0.0003054326225537807
1761230511996040400,7.19304052734375,-0.00045814894838258624,-0.00045814894838258624,0.00015271631127689034
1761230512012837600,7.209837646484375,0.0006108652451075613,0.00045814894838258624,0.00045814894838258624
1761230512029623300,7.226623291015625,-0.00015271631127689034,-0.0006108652451075613,0.00045814894838258624
1761230512046412300,7.243412353515625,-0.00015271631127689034,-0.0006108652451075613,0.0003054326225537807
1761230512063195000,7.26019482421875,-0.00045814894838258624,0.00015271631127689034,-0.00045814894838258624
1761230512079979000,7.27697900390625,-0.00015271631127689034,0.00045814894838258624,0.0007635815418325365
1761230512096766000,7.293765869140625,-0.00045814894838258624,-0.0006108652451075613,-0.0006108652451075613
1761230512113554700,7.3105546875,-0.00045814894838258624,-0.0003054326225537807,0.00015271631127689034
1761230512130343700,7.32734375,0.00015271631127689034,0.00015271631127689034,-0.0009162978967651725
1761230512147131400,7.34413134765625,-0.00045814894838258624,0.00015271631127689034,-0.00045814894838258624
1761230512163925000,7.360925048828125,0.00015271631127689034,-0.0006108652451075613,0.0010690141934901476
1761230512180704000,7.3777041015625,0.00015271631127689034,-0.0003054326225537807,-0.0003054326225537807
1761230512197517800,7.394517822265625,0.0003054326225537807,-0.00045814894838258624,0.0003054326225537807
1761230512214300400,7.411300537109375,-0.00015271631127689034,0.00045814894838258624,-0.00045814894838258624
1761230512231092200,7.42809228515625,-0.00045814894838258624,-0.00045814894838258624,-0.0003054326225537807
1761230512247881000,7.444880859375,-0.00015271631127689034,-0.0006108652451075613,0.0003054326225537807
1761230512264670000,7.461669921875,-0.0006108652451075613,-0.0003054326225537807,0
1761230512281457700,7.478457763671875,0.0003054326225537807,-0.0006108652451075613,-0.00045814894838258624
1761230512298230800,7.495230712890625,0.0006108652451075613,-0.0003054326225537807,-0.0003054326225537807
1761230512315023400,7.5120234375,-0.00045814894838258624,-0.0006108652451075613,0.0003054326225537807
1761230512331799300,7.52879931640625,0.00015271631127689034,-0.00015271631127689034,0.00015271631127689034
1761230512348601900,7.545601806640625,-0.0006108652451075613,-0.0006108652451075613,0.0006108652451075613
1761230512365390600,7.562390625,-0.0003054326225537807,0.00015271631127689034,-0.00045814894838258624
1761230512382179600,7.5791796875,-0.0006108652451075613,0.00015271631127689034,0.0006108652451075613
1761230512398982000,7.59598193359375,0.00015271631127689034,0.00015271631127689034,0.001527163083665073
1761230512415761200,7.61276123046875,-0.00015271631127689034,-0.00045814894838258624,0.0012217304902151227
1761230512432526300,7.6295263671875,0.0003054326225537807,-0.0012217304902151227,0.0010690141934901476
1761230512449350000,7.646349853515625,-0.00045814894838258624,-0.00045814894838258624,0.00045814894838258624
1761230512466131500,7.66313134765625,0.0003054326225537807,-0.0009162978967651725,0.00015271631127689034
1761230512482928600,7.6799287109375,-0.00015271631127689034,-0.0006108652451075613,-0.00045814894838258624
1761230512499716900,7.696716796875,0.0003054326225537807,0.0006108652451075613,-0.0007635815418325365
1761230512516506600,7.713506591796875,0.0003054326225537807,-0.0006108652451075613,0.00015271631127689034
1761230512533294300,7.73029443359375,0.0006108652451075613,-0.0006108652451075613,-0.0007635815418325365
1761230512550091000,7.747091064453125,-0.00045814894838258624,0.0003054326225537807,-0.00015271631127689034
1761230512566849800,7.763849853515625,-0.00045814894838258624,0,0.00045814894838258624
1761230512583648500,7.7806484375,-0.00015271631127689034,0.0010690141934901476,0
1761230512600437800,7.797437744140625,0.0007635815418325365,0.0003054326225537807,-0.0003054326225537807
1761230512617226500,7.8142265625,0,-0.0006108652451075613,0.0003054326225537807
1761230512634015700,7.831015625,0.00045814894838258624,-0.00045814894838258624,-0.0007635815418325365
1761230512650804200,7.84780419921875,-0.00045814894838258624,0.0003054326225537807,0.0003054326225537807
1761230512667611400,7.864611328125,-0.00045814894838258624,-0.00015271631127689034,0.0003054326225537807
1761230512684396800,7.881396728515625,0.00045814894838258624,-0.0006108652451075613,0.0003054326225537807
1761230512701185500,7.898185546875,0.0006108652451075613,0.00045814894838258624,-0.00045814894838258624
1761230512717974500,7.914974609375,-0.00045814894838258624,-0.00045814894838258624,0.00045814894838258624
1761230512734760400,7.931760498046875,-0.00015271631127689034,0.00045814894838258624,0.00045814894838258624
1761230512751556600,7.948556640625,0.0003054326225537807,0.00045814894838258624,0.00045814894838258624
1761230512768342000,7.965342041015625,0,0.00015271631127689034,0.0003054326225537807
1761230512785112600,7.982112548828125,0.0006108652451075613,-0.0003054326225537807,0.0010690141934901476
1761230512801906400,7.998906494140625,-0.00045814894838258624,0.0003054326225537807,0.00045814894838258624
1761230512818695400,8.0156953125,-0.00045814894838258624,0.00015271631127689034,-0.00015271631127689034
1761230512835484200,8.032484130859375,0.00045814894838258624,-0.00015271631127689034,-0.0006108652451075613
1761230512852273200,8.049273193359374,-0.00045814894838258624,-0.00045814894838258624,-0.0007635815418325365
1761230512869063000,8.06606298828125,-0.00045814894838258624,0.0003054326225537807,0.00015271631127689034
1761230512885867800,8.08286767578125,-0.00015271631127689034,0.0006108652451075613,0
1761230512902655200,8.0996552734375,-0.0006108652451075613,-0.00045814894838258624,0.0003054326225537807
1761230512919463200,8.116463134765626,-0.0006108652451075613,0.00015271631127689034,-0.0007635815418325365
1761230512936231000,8.13323095703125,-0.00015271631127689034,-0.00045814894838258624,-0.0007635815418325365
1761230512953026300,8.1500263671875,-0.0006108652451075613,-0.0003054326225537807,0.00045814894838258624
1761230512969810700,8.166810791015624,-0.0003054326225537807,0.00015271631127689034,-0.0003054326225537807
1761230512986600400,8.183600341796875,-0.00045814894838258624,-0.0003054326225537807,-0.00045814894838258624
1761230513003389000,8.200388916015624,-0.0006108652451075613,0.00015271631127689034,0.00045814894838258624
1761230513020177700,8.217177734375,0.00015271631127689034,-0.0003054326225537807,0.00015271631127689034
1761230513036967200,8.23396728515625,0.00015271631127689034,0.0006108652451075613,-0.0003054326225537807
1761230513053750800,8.250750732421874,0.0003054326225537807,0.00015271631127689034,0.0003054326225537807
1761230513070531300,8.26753125,-0.0006108652451075613,-0.00015271631127689034,0.00045814894838258624
1761230513087320300,8.2843203125,-0.0003054326225537807,0.00015271631127689034,0.0010690141934901476
1761230513104097800,8.301097900390625,0.0006108652451075613,0.00045814894838258624,-0.00045814894838258624
1761230513120899600,8.317899658203125,0.0006108652451075613,0.00045814894838258624,0.0006108652451075613
1761230513137684200,8.334684326171875,0.0003054326225537807,0.0006108652451075613,-0.00045814894838258624
1761230513154483000,8.35148291015625,-0.00045814894838258624,-0.0003054326225537807,-0.0006108652451075613
1761230513171278000,8.368278076171874,-0.0003054326225537807,-0.0006108652451075613,-0.00045814894838258624
1761230513188067800,8.38506787109375,-0.0003054326225537807,0.00015271631127689034,0.0012217304902151227
1761230513204860400,8.4018603515625,0.0006108652451075613,0.0006108652451075613,0.0009162978967651725
1761230513221646600,8.418646484375,-0.0003054326225537807,0.0012217304902151227,0.0003054326225537807
1761230513238425000,8.435425048828124,0.00015271631127689034,0.0006108652451075613,0.0003054326225537807
1761230513255225600,8.4522255859375,0.00015271631127689034,0.00045814894838258624,-0.00045814894838258624
1761230513271996700,8.46899658203125,-0.00045814894838258624,0.0006108652451075613,-0.00045814894838258624
1761230513288789200,8.485789306640624,0.0003054326225537807,0.0003054326225537807,0
1761230513305578200,8.502578125,0.00045814894838258624,0,0.0003054326225537807
1761230513322367500,8.519367431640624,0.0003054326225537807,0.0003054326225537807,0.00015271631127689034
1761230513339156500,8.536156494140625,0.0006108652451075613,0.0007635815418325365,0.00045814894838258624
1761230513355945500,8.552945556640625,0.00015271631127689034,-0.0012217304902151227,0.0006108652451075613
1761230513372749800,8.569749755859375,0.00045814894838258624,-0.00045814894838258624,0.0006108652451075613
1761230513389522700,8.586522705078124,0.0003054326225537807,0.0007635815418325365,-0.00015271631127689034
1761230513406324500,8.603324462890624,0.00015271631127689034,0.0010690141934901476,0.0003054326225537807
1761230513423115000,8.620114990234375,-0.00015271631127689034,-0.0013744467869400978,0
1761230513439900700,8.636900634765626,-0.00045814894838258624,-0.0006108652451075613,0
1761230513456682800,8.653682861328125,-0.00045814894838258624,-0.00045814894838258624,-0.00015271631127689034
1761230513473483300,8.670483154296875,0.0006108652451075613,-0.00015271631127689034,-0.00045814894838258624
1761230513490254800,8.6872548828125,0.0006108652451075613,-0.00045814894838258624,0.0013744467869400978
1761230513507061200,8.704061279296875,0.00015271631127689034,-0.0003054326225537807,-0.0003054326225537807
1761230513523850000,8.72085009765625,-0.00015271631127689034,-0.0013744467869400978,0.00045814894838258624
1761230513540624000,8.737623779296875,-0.0003054326225537807,0.0007635815418325365,0.0003054326225537807
1761230513557409500,8.754409423828125,-0.0012217304902151227,-0.0006108652451075613,-0.0007635815418325365
1761230513574204200,8.7712041015625,0.00045814894838258624,0.0003054326225537807,0.00015271631127689034
1761230513590992400,8.787992431640625,0.00045814894838258624,0.00045814894838258624,-0.0010690141934901476
1761230513607781400,8.804781494140625,-0.00015271631127689034,-0.0006108652451075613,-0.00045814894838258624
1761230513624570400,8.8215703125,-0.00045814894838258624,0.0003054326225537807,0
1761230513641359600,8.838359619140626,0.0006108652451075613,0.0003054326225537807,0.0006108652451075613
1761230513658165500,8.85516552734375,0.0006108652451075613,-0.00045814894838258624,0.0006108652451075613
1761230513674951200,8.871951171875,0.00045814894838258624,0.0003054326225537807,-0.0007635815418325365
1761230513691739400,8.888739501953125,-0.00015271631127689034,-0.0006108652451075613,-0.00045814894838258624
1761230513708529400,8.905529296875,0.00015271631127689034,0.0003054326225537807,0.0006108652451075613
1761230513725319000,8.92231884765625,0.00015271631127689034,0.00045814894838258624,0.00015271631127689034
1761230513742107400,8.939107421875,-0.0006108652451075613,0.00045814894838258624,0
1761230513758880000,8.9558798828125,-0.00015271631127689034,-0.00015271631127689034,0.0003054326225537807
1761230513775653000,8.972653076171875,0.0003054326225537807,0.0010690141934901476,0
1761230513792461000,8.9894609375,0.0003054326225537807,0.00045814894838258624,0
1761230513809247000,9.0062470703125,-0.00045814894838258624,-0.0003054326225537807,0.0006108652451075613
1761230513826049300,9.02304931640625,-0.0003054326225537807,0.00045814894838258624,0.00015271631127689034
1761230513842828300,9.039828369140626,0.00015271631127689034,-0.0006108652451075613,0
1761230513859634700,9.056634765625,0.0003054326225537807,0.00015271631127689034,-0.00045814894838258624
1761230513876418300,9.073418212890624,-0.00045814894838258624,-0.0006108652451075613,0
1761230513893193200,9.090193115234374,0.0006108652451075613,0.0006108652451075613,-0.00045814894838258624
1761230513910022700,9.107022705078125,-0.00045814894838258624,0.0006108652451075613,0.0003054326225537807
1761230513926787800,9.123787841796876,-0.00045814894838258624,-0.00015271631127689034,0.00015271631127689034
1761230513943574800,9.14057470703125,0.00045814894838258624,-0.0009162978967651725,-0.0006108652451075613
1761230513960365300,9.157365234375,0.00045814894838258624,-0.0009162978967651725,0
1761230513977155000,9.174155029296875,0.00045814894838258624,0.0003054326225537807,-0.0010690141934901476
1761230513993943800,9.19094384765625,0.0003054326225537807,-0.0003054326225537807,0.00045814894838258624
1761230514010731500,9.2077314453125,-0.00015271631127689034,0.0006108652451075613,0
1761230514027521500,9.224521484375,0.00045814894838258624,0,-0.00045814894838258624
1761230514044309000,9.24130908203125,0.0003054326225537807,0.0003054326225537807,0.00045814894838258624
1761230514061081000,9.2580810546875,-0.0003054326225537807,0.0003054326225537807,0.0007635815418325365
1761230514077878800,9.274878662109375,-0.00045814894838258624,-0.00015271631127689034,0.0003054326225537807
1761230514094664400,9.29166455078125,0.00045814894838258624,-0.00045814894838258624,0.0013744467869400978
1761230514111453400,9.308453369140626,0.0006108652451075613,-0.0006108652451075613,0.0003054326225537807
1761230514128242400,9.325242431640625,-0.0006108652451075613,-0.00015271631127689034,0.0003054326225537807
1761230514145032000,9.342031982421876,0.00045814894838258624,0,0.0003054326225537807
1761230514161837000,9.358837158203125,-0.0003054326225537807,-0.00045814894838258624,0
1761230514178623000,9.375623046875,-0.00045814894838258624,-0.0003054326225537807,0.0003054326225537807
1761230514195402800,9.39240283203125,-0.0006108652451075613,-0.0003054326225537807,0.0007635815418325365
1761230514212210200,9.409210205078125,0.00015271631127689034,-0.0006108652451075613,0.0003054326225537807
1761230514228990200,9.425990234375,-0.00015271631127689034,-0.00045814894838258624,0
1761230514245760300,9.44276025390625,0.0006108652451075613,-0.00045814894838258624,-0.0009162978967651725
1761230514262559000,9.45955908203125,-0.0006108652451075613,-0.00045814894838258624,-0.0009162978967651725
1761230514279342300,9.47634228515625,-0.0006108652451075613,0,-0.0009162978967651725
1761230514296133000,9.493133056640625,-0.0003054326225537807,-0.0003054326225537807,-0.0006108652451075613
1761230514312921900,9.509921875,-0.0006108652451075613,-0.0003054326225537807,-0.0009162978967651725
1761230514329708300,9.526708251953124,-0.00015271631127689034,-0.00045814894838258624,0.00015271631127689034
1761230514346520300,9.543520263671875,-0.00015271631127689034,-0.0006108652451075613,0.00015271631127689034
1761230514363283200,9.560283203125,0.00045814894838258624,-0.0006108652451075613,-0.0007635815418325365
1761230514380092000,9.577091796875,0.00015271631127689034,-0.0006108652451075613,-0.0003054326225537807
1761230514396875000,9.593875,-0.00015271631127689034,-0.0009162978967651725,-0.0007635815418325365
1761230514413677600,9.610677490234375,-0.0003054326225537807,0.00045814894838258624,0.00015271631127689034
1761230514430459400,9.62745947265625,0.0006108652451075613,0.0006108652451075613,-0.0007635815418325365
1761230514447249000,9.644248779296875,0.00015271631127689034,0.0006108652451075613,-0.00045814894838258624
1761230514464037600,9.66103759765625,-0.00015271631127689034,-0.0006108652451075613,0.00045814894838258624
1761230514480830700,9.677830810546874,0.0003054326225537807,-0.0009162978967651725,0.00015271631127689034
1761230514497615600,9.69461572265625,0.0006108652451075613,0.0006108652451075613,0.00015271631127689034
1761230514514399500,9.7113994140625,0.00045814894838258624,-0.0003054326225537807,0.0003054326225537807
1761230514531177000,9.728177001953124,-0.00045814894838258624,0.0003054326225537807,0
1761230514547953700,9.74495361328125,-0.00015271631127689034,-0.0003054326225537807,-0.00015271631127689034
1761230514564761900,9.761761962890626,0.00015271631127689034,0.00015271631127689034,0.00015271631127689034
1761230514581547000,9.778547119140624,0.0003054326225537807,-0.00045814894838258624,0
1761230514598336300,9.795336181640625,0.0006108652451075613,0.0003054326225537807,0.0003054326225537807
1761230514615125200,9.812125244140624,0.0003054326225537807,-0.00045814894838258624,0.0003054326225537807
1761230514631914200,9.828914306640625,0.00015271631127689034,-0.0009162978967651725,0.0003054326225537807
1761230514648721400,9.845721435546874,-0.0003054326225537807,0.0006108652451075613,0.0003054326225537807
1761230514665505300,9.86250537109375,0.00015271631127689034,0.00015271631127689034,0.00015271631127689034
1761230514682278400,9.8792783203125,0.00045814894838258624,-0.0006108652451075613,-0.0006108652451075613
1761230514699080400,9.89608056640625,-0.0006108652451075613,-0.00015271631127689034,-0.0007635815418325365
1761230514715873500,9.91287353515625,-0.00015271631127689034,0.00045814894838258624,0
1761230514732649500,9.9296494140625,0.00015271631127689034,0.00045814894838258624,0
1761230514749437700,9.946437744140624,-0.00045814894838258624,-0.0003054326225537807,0.0003054326225537807
1761230514766213600,9.963213623046874,0.00045814894838258624,-0.0010690141934901476,0.00015271631127689034
1761230514783016000,9.980015869140624,0.0003054326225537807,-0.0006108652451075613,0.00045814894838258624
1761230514799803100,9.99680322265625,0.0006108652451075613,-0.0013744467869400978,-0.00045814894838258624
1761230514816595700,10.013595703125,0.00015271631127689034,-0.0009162978967651725,0
1761230514833416000,10.030416015625,0.00015271631127689034,-0.00015271631127689034,0
1761230514850185200,10.047185302734375,0.00045814894838258624,-0.0006108652451075613,0.00015271631127689034
1761230514866971100,10.06397119140625,0.00045814894838258624,0.00015271631127689034,0.00015271631127689034
1761230514883751400,10.08075146484375,0,0.0006108652451075613,-0.00015271631127689034
1761230514900536300,10.097536376953125,-0.0006108652451075613,-0.0009162978967651725,0
1761230514917342200,10.11434228515625,-0.00045814894838258624,0.0003054326225537807,-0.0007635815418325365
1761230514934130000,10.1311298828125,-0.00015271631127689034,-0.00015271631127689034,-0.0006108652451075613
1761230514950919200,10.147919189453125,0.0003054326225537807,0.0003054326225537807,-0.00045814894838258624
1761230514967708400,10.16470849609375,-0.0006108652451075613,0.0006108652451075613,-0.0007635815418325365
1761230514984482300,10.181482421875,-0.0003054326225537807,0.00045814894838258624,-0.0007635815418325365
1761230515001283600,10.19828369140625,-0.00015271631127689034,-0.0003054326225537807,-0.0006108652451075613
1761230515018077400,10.215077392578126,-0.0003054326225537807,0.0007635815418325365,0.00045814894838258624
1761230515034852000,10.23185205078125,-0.00045814894838258624,-0.001527163083665073,-0.00045814894838258624
1761230515051637500,10.248637451171875,0.00015271631127689034,-0.00045814894838258624,-0.00045814894838258624
1761230515068430000,10.26543017578125,0.0003054326225537807,0.00015271631127689034,0.00015271631127689034
1761230515085219000,10.282218994140624,-0.00015271631127689034,0,0.00015271631127689034
1761230515102008000,10.299008056640625,-0.0003054326225537807,0.00045814894838258624,0
1761230515118797000,10.315797119140624,0.00045814894838258624,0.0006108652451075613,0.0010690141934901476
1761230515135586300,10.33258642578125,0.0003054326225537807,0.0006108652451075613,-0.0007635815418325365
1761230515152392200,10.34939208984375,-0.00045814894838258624,-0.0003054326225537807,-0.0009162978967651725
1761230515169174500,10.366174560546876,0.00015271631127689034,0.00045814894838258624,-0.0007635815418325365
1761230515185970700,10.382970703125,0.00045814894838258624,-0.0013744467869400978,0.00045814894838258624
1761230515202739700,10.39973974609375,0.00045814894838258624,0.00015271631127689034,0.00045814894838258624
1761230515219528700,10.41652880859375,0.00015271631127689034,-0.00015271631127689034,-0.00045814894838258624
1761230515236320500,10.433320556640625,0.00015271631127689034,-0.0003054326225537807,-0.00015271631127689034
1761230515253109800,10.45010986328125,0.0006108652451075613,-0.00015271631127689034,-0.0006108652451075613
1761230515269895700,10.466895751953125,-0.0006108652451075613,0.0003054326225537807,0.0003054326225537807
1761230515286689500,10.483689453125,-0.00045814894838258624,-0.0003054326225537807,-0.00045814894838258624
1761230515303476700,10.500476806640625,0.00015271631127689034,0.00045814894838258624,0.00015271631127689034
1761230515320283100,10.517283203125,0.00045814894838258624,-0.00045814894838258624,0.0003054326225537807
1761230515337068800,10.53406884765625,0.00045814894838258624,-0.00045814894838258624,-0.00045814894838258624
1761230515353855700,10.550855712890625,0.0003054326225537807,0,-0.0013744467869400978
1761230515370634200,10.56763427734375,-0.00045814894838258624,0.00045814894838258624,-0.0007635815418325365
1761230515387435800,10.584435791015625,-0.0006108652451075613,-0.0003054326225537807,-0.00015271631127689034
1761230515404223200,10.60122314453125,0.00015271631127689034,-0.00045814894838258624,0.0003054326225537807
1761230515421012000,10.618011962890625,-0.0006108652451075613,-0.00045814894838258624,-0.0007635815418325365
1761230515437803800,10.6348037109375,-0.0006108652451075613,0.0007635815418325365,0.00015271631127689034
1761230515454581000,10.6515810546875,-0.00045814894838258624,-0.00015271631127689034,0.0003054326225537807
1761230515471380700,10.668380615234375,0.00045814894838258624,-0.0003054326225537807,0.0010690141934901476
1761230515488170800,10.685170654296876,0.0006108652451075613,-0.0006108652451075613,-0.0010690141934901476
1761230515504959200,10.701959228515625,-0.00045814894838258624,-0.0009162978967651725,0
1761230515521748700,10.718748779296876,0.0003054326225537807,0.00015271631127689034,-0.00045814894838258624
1761230515538519600,10.73551953125,0.00045814894838258624,-0.0007635815418325365,-0.0007635815418325365
1761230515555312600,10.752312744140625,0.0006108652451075613,0,0.0006108652451075613
1761230515572102000,10.769101806640625,0.00045814894838258624,0.00015271631127689034,0.0003054326225537807
1761230515588878000,10.785878173828126,-0.0006108652451075613,-0.00045814894838258624,0.00015271631127689034
1761230515605678800,10.802678955078125,-0.0003054326225537807,-0.00045814894838258624,-0.0007635815418325365
1761230515622466600,10.819466552734376,0.00045814894838258624,0.0003054326225537807,-0.00045814894838258624
1761230515639277600,10.836277587890624,0.0003054326225537807,-0.00015271631127689034,-0.0003054326225537807
1761230515656061000,10.85306103515625,-0.00045814894838258624,-0.0003054326225537807,0
1761230515672834000,10.869833984375,-0.00045814894838258624,-0.00015271631127689034,-0.0006108652451075613
1761230515689635000,10.886635009765625,0.0003054326225537807,-0.0003054326225537807,0.0003054326225537807
1761230515706414600,10.90341455078125,-0.00045814894838258624,0.0003054326225537807,0
1761230515723216000,10.9202158203125,-0.00015271631127689034,0.00015271631127689034,0.0010690141934901476
1761230515739993000,10.9369931640625,0.0006108652451075613,-0.00045814894838258624,0.00015271631127689034
1761230515756781000,10.953781005859375,0.0003054326225537807,0.0010690141934901476,0.0010690141934901476
1761230515773570600,10.970570556640626,0,-0.00015271631127689034,-0.0007635815418325365
1761230515790359300,10.987359375,-0.0003054326225537807,-0.0012217304902151227,-0.00045814894838258624
1761230515807131600,11.004131591796876,0.00015271631127689034,-0.0006108652451075613,0.00015271631127689034
1761230515823955500,11.02095556640625,-0.0003054326225537807,-0.0006108652451075613,0
1761230515840740600,11.03774072265625,0.00045814894838258624,0.0006108652451075613,-0.00045814894838258624
1761230515857527600,11.054527587890625,-0.0006108652451075613,-0.00015271631127689034,0.0003054326225537807
1761230515874319400,11.0713193359375,0.00045814894838258624,-0.0006108652451075613,-0.00015271631127689034
1761230515891108000,11.088108154296876,-0.00045814894838258624,-0.0006108652451075613,-0.00015271631127689034
1761230515907863600,11.104863525390625,-0.0003054326225537807,-0.00015271631127689034,-0.0003054326225537807
1761230515924683800,11.121683837890625,-0.0006108652451075613,-0.00045814894838258624,-0.0006108652451075613
1761230515941475300,11.138475341796875,0.00045814894838258624,0.0009162978967651725,-0.0003054326225537807
1761230515958263800,11.155263916015626,0.00045814894838258624,0.00045814894838258624,-0.0009162978967651725
1761230515975038000,11.172037841796875,0.00045814894838258624,-0.00045814894838258624,0.0003054326225537807
1761230515991840300,11.18884033203125,-0.0006108652451075613,-0.0006108652451075613,0.0003054326225537807
1761230516008631300,11.20563134765625,0.0003054326225537807,0.0003054326225537807,-0.0007635815418325365
1761230516025420000,11.222419921875,0.0003054326225537807,-0.0006108652451075613,0
1761230516042192100,11.239192138671875,0.0006108652451075613,0.0006108652451075613,0.0010690141934901476
1761230516058983200,11.255983154296874,-0.00045814894838258624,-0.0003054326225537807,-0.0006108652451075613
1761230516075773700,11.272773681640626,-0.00045814894838258624,0.0003054326225537807,0
1761230516092562700,11.289562744140625,-0.00015271631127689034,-0.0003054326225537807,0.00045814894838258624
1761230516109351700,11.3063515625,0.00015271631127689034,-0.00015271631127689034,-0.0006108652451075613
1761230516126141000,11.323140869140625,-0.00045814894838258624,0.00045814894838258624,-0.00045814894838258624
1761230516142946000,11.339946044921875,0.00015271631127689034,-0.00045814894838258624,-0.0013744467869400978
1761230516159736300,11.356736328125,0.0003054326225537807,-0.00045814894838258624,-0.0007635815418325365
1761230516176516900,11.373516845703126,-0.00015271631127689034,0.00045814894838258624,-0.0006108652451075613
1761230516193294300,11.39029443359375,-0.00045814894838258624,0.00045814894838258624,-0.00045814894838258624
1761230516210086400,11.40708642578125,0.0003054326225537807,-0.0003054326225537807,-0.0003054326225537807
1761230516226875100,11.423875244140625,0.0006108652451075613,0.0003054326225537807,0
1761230516243664100,11.4406640625,0.0003054326225537807,-0.00015271631127689034,0.0006108652451075613
1761230516260453600,11.45745361328125,-0.00045814894838258624,-0.00045814894838258624,0.00015271631127689034
1761230516277242400,11.474242431640626,0.00015271631127689034,0.00045814894838258624,0.00045814894838258624
1761230516294049000,11.491049072265625,0.0003054326225537807,-0.00015271631127689034,0
1761230516310832600,11.50783251953125,-0.0006108652451075613,-0.00015271631127689034,0.0006108652451075613
1761230516327623400,11.52462353515625,0.00015271631127689034,0.0006108652451075613,0.0003054326225537807
1761230516344412400,11.541412353515625,-0.0006108652451075613,-0.0012217304902151227,0
1761230516361202200,11.5582021484375,0.0006108652451075613,-0.0003054326225537807,0.00045814894838258624
1761230516377988000,11.574988037109375,0.0006108652451075613,0.0006108652451075613,0
1761230516394780200,11.5917802734375,0.0006108652451075613,0.0003054326225537807,0.00015271631127689034
1761230516411569000,11.60856884765625,-0.0006108652451075613,0.0003054326225537807,0.0003054326225537807
1761230516428354000,11.62535400390625,-0.00015271631127689034,-0.0009162978967651725,0.0003054326225537807
1761230516445150700,11.642150634765626,0.0003054326225537807,0.00045814894838258624,-0.0007635815418325365
1761230516461936000,11.65893603515625,0.0003054326225537807,-0.00045814894838258624,-0.0007635815418325365
1761230516478720800,11.675720703125,0.0006108652451075613,-0.00045814894838258624,-0.0007635815418325365
1761230516495512600,11.6925126953125,0.0006108652451075613,-0.00015271631127689034,-0.0003054326225537807
1761230516512306700,11.709306640625,-0.0006108652451075613,-0.00015271631127689034,-0.0007635815418325365
1761230516529075200,11.7260751953125,0.0003054326225537807,-0.00045814894838258624,-0.00045814894838258624
1761230516545867500,11.742867431640626,0.00045814894838258624,-0.0003054326225537807,-0.0003054326225537807
1761230516562659300,11.759659423828126,0.0006108652451075613,-0.00015271631127689034,-0.00045814894838258624
1761230516579439000,11.776439208984375,-0.00015271631127689034,-0.00045814894838258624,0
1761230516596238600,11.793238525390626,0.0006108652451075613,-0.00045814894838258624,0
1761230516613023700,11.810023681640626,-0.0006108652451075613,-0.0003054326225537807,-0.0003054326225537807
1761230516629827800,11.826827880859375,-0.00045814894838258624,0.00045814894838258624,-0.0007635815418325365
1761230516646611700,11.84361181640625,-0.0003054326225537807,0.0007635815418325365,-0.0009162978967651725
1761230516663408600,11.86040869140625,0.0003054326225537807,0.0003054326225537807,0.0003054326225537807
1761230516680176400,11.87717626953125,0.00045814894838258624,-0.00045814894838258624,-0.0006108652451075613
1761230516696968000,11.893968017578125,0.0006108652451075613,0.0007635815418325365,0.00045814894838258624
1761230516713755400,11.91075537109375,-0.00015271631127689034,-0.00045814894838258624,0
1761230516730551600,11.927551513671874,0.0006108652451075613,-0.0003054326225537807,0.0006108652451075613
1761230516747334700,11.944334716796876,-0.0003054326225537807,0.0013744467869400978,-0.00045814894838258624
1761230516764121600,11.96112158203125,-0.0006108652451075613,-0.00045814894838258624,0.0003054326225537807
1761230516780934100,11.97793408203125,-0.00045814894838258624,0.00045814894838258624,0.00015271631127689034
1761230516797700600,11.99470068359375,0.00015271631127689034,0.0007635815418325365,-0.0007635815418325365
1761230516814504000,12.01150390625,-0.00045814894838258624,0.0006108652451075613,0.0003054326225537807
1761230516831296000,12.0282958984375,-0.00015271631127689034,0.0003054326225537807,-0.0003054326225537807
1761230516848084000,12.045083984375,0.0003054326225537807,0,0.00015271631127689034
1761230516864873700,12.061873779296874,-0.00015271631127689034,0.0003054326225537807,-0.0013744467869400978
1761230516881659000,12.078658935546875,-0.0006108652451075613,0,-0.00015271631127689034
1761230516898455300,12.095455322265625,0.00015271631127689034,0.0006108652451075613,0.00045814894838258624
1761230516915241000,12.112240966796875,0.0006108652451075613,-0.00015271631127689034,0
1761230516932030000,12.129030029296874,-0.00045814894838258624,0.00045814894838258624,-0.00045814894838258624
1761230516948817700,12.145817626953125,-0.0003054326225537807,-0.0006108652451075613,0
1761230516965607200,12.162607177734374,-0.00015271631127689034,0.0006108652451075613,-0.0006108652451075613
1761230516982376200,12.179376220703125,0.0006108652451075613,-0.0003054326225537807,-0.00045814894838258624
1761230516999185700,12.196185546875,-0.0003054326225537807,-0.00045814894838258624,0
1761230517015976700,12.212976806640626,-0.0003054326225537807,-0.00015271631127689034,0.00015271631127689034
1761230517032734500,12.229734375,-0.0003054326225537807,-0.0003054326225537807,0.0003054326225537807
1761230517049538300,12.246538330078126,-0.00015271631127689034,0.00045814894838258624,0.00045814894838258624
1761230517066326800,12.263326904296875,-0.0003054326225537807,-0.00045814894838258624,0.0003054326225537807
1761230517083119900,12.280119873046875,-0.00015271631127689034,0.0003054326225537807,0.00015271631127689034
1761230517099904300,12.296904296875,0.00045814894838258624,-0.0009162978967651725,0
1761230517116695600,12.313695556640624,-0.00015271631127689034,0.0009162978967651725,0.00015271631127689034
1761230517133500400,12.33050048828125,-0.0006108652451075613,0.0007635815418325365,-0.00045814894838258624
1761230517150288600,12.34728857421875,-0.0006108652451075613,0.0006108652451075613,-0.0006108652451075613
1761230517167059200,12.36405908203125,-0.0003054326225537807,-0.00045814894838258624,0.0003054326225537807
1761230517183851800,12.380851806640624,-0.0006108652451075613,-0.00045814894838258624,0.0003054326225537807
1761230517200638500,12.397638427734375,0.0003054326225537807,0.00045814894838258624,-0.0003054326225537807
1761230517217430500,12.414430419921874,-0.00045814894838258624,0,0.00015271631127689034
1761230517234216400,12.431216552734375,0.00015271631127689034,0.00015271631127689034,-0.00015271631127689034
1761230517250989800,12.44798974609375,0.0006108652451075613,0.0006108652451075613,0
1761230517267799000,12.464799072265626,-0.00045814894838258624,-0.00045814894838258624,0.0003054326225537807
1761230517284600600,12.4816005859375,-0.0006108652451075613,-0.00045814894838258624,0.0003054326225537807
1761230517301384700,12.498384765625,0.00045814894838258624,-0.00015271631127689034,0.00015271631127689034
1761230517318182000,12.515181884765624,-0.0003054326225537807,0,-0.00045814894838258624
1761230517334949600,12.53194970703125,0.0006108652451075613,-0.00015271631127689034,-0.0003054326225537807
1761230517351756500,12.548756591796876,-0.00045814894838258624,0.0006108652451075613,0.00015271631127689034
1761230517368528600,12.565528564453125,-0.00045814894838258624,-0.0003054326225537807,0
1761230517385330200,12.582330078125,-0.00045814894838258624,-0.00045814894838258624,0
1761230517402125600,12.59912548828125,-0.0006108652451075613,0.00015271631127689034,-0.00045814894838258624
1761230517418895600,12.6158955078125,-0.00045814894838258624,0.0003054326225537807,-0.00045814894838258624
1761230517435701800,12.63270166015625,-0.00045814894838258624,0.0007635815418325365,0
1761230517452489200,12.6494892578125,-0.00015271631127689034,-0.00015271631127689034,0.00015271631127689034
1761230517469280500,12.666280517578125,0.0006108652451075613,-0.00015271631127689034,-0.0003054326225537807
1761230517486052000,12.683052001953126,-0.00045814894838258624,0.0003054326225537807,0.00045814894838258624
1761230517502857700,12.699857666015625,-0.0006108652451075613,-0.0003054326225537807,0.00045814894838258624
1761230517519629600,12.716629638671876,0.00015271631127689034,-0.0003054326225537807,0.00015271631127689034
1761230517536422100,12.733422119140625,-0.0003054326225537807,0.00045814894838258624,0
1761230517553211000,12.7502109375,0.00045814894838258624,-0.00015271631127689034,0.00015271631127689034
1761230517570002400,12.76700244140625,0.0006108652451075613,0.00015271631127689034,0
1761230517586785500,12.78378564453125,-0.00045814894838258624,0.0003054326225537807,-0.0007635815418325365
1761230517603566000,12.800566162109375,0.00015271631127689034,-0.0010690141934901476,-0.0003054326225537807
1761230517620368600,12.81736865234375,-0.00045814894838258624,0.0006108652451075613,-0.0006108652451075613
1761230517637168600,12.834168701171874,0.00045814894838258624,-0.00015271631127689034,0
1761230517653930000,12.850929931640625,0.00045814894838258624,0.0006108652451075613,0.0003054326225537807
1761230517670734800,12.86773486328125,0.00015271631127689034,0.0003054326225537807,-0.0003054326225537807
1761230517687523800,12.88452392578125,0.00015271631127689034,0.0007635815418325365,0.00015271631127689034
1761230517704312600,12.9013125,0.0006108652451075613,-0.0010690141934901476,-0.00045814894838258624
1761230517721101800,12.918101806640625,0.00045814894838258624,0.00045814894838258624,0.0003054326225537807
1761230517737875000,12.934875,-0.0003054326225537807,0.00015271631127689034,-0.0003054326225537807
1761230517754665700,12.951665771484375,0.0003054326225537807,0.0003054326225537807,-0.00015271631127689034
1761230517771487200,12.9684873046875,0.00015271631127689034,0.0003054326225537807,-0.0003054326225537807
1761230517788271900,12.98527197265625,-0.00045814894838258624,-0.0006108652451075613,-0.0007635815418325365
1761230517805060400,13.002060302734375,0.00045814894838258624,0.0010690141934901476,0.0003054326225537807
1761230517821833200,13.018833251953126,0.00015271631127689034,0.0003054326225537807,-0.0007635815418325365
1761230517838638800,13.035638916015625,0.0003054326225537807,-0.00015271631127689034,-0.00045814894838258624
1761230517855427800,13.052427734375,-0.00045814894838258624,-0.0009162978967651725,-0.0006108652451075613
1761230517872214500,13.069214599609374,0.00045814894838258624,-0.00015271631127689034,0.0003054326225537807
1761230517889003500,13.08600341796875,-0.00045814894838258624,-0.00015271631127689034,0.0003054326225537807
1761230517905778200,13.102778076171875,-0.00015271631127689034,0,-0.0003054326225537807
1761230517922584600,13.11958447265625,-0.0006108652451075613,-0.00015271631127689034,0.0003054326225537807
1761230517939373000,13.136373046875,-0.0006108652451075613,0.0006108652451075613,-0.0007635815418325365
1761230517956162000,13.153162109375,0.00045814894838258624,0.0007635815418325365,-0.0007635815418325365
1761230517972934000,13.169933837890625,-0.00045814894838258624,-0.00045814894838258624,0.00045814894838258624
1761230517989741600,13.186741455078124,-0.00045814894838258624,-0.0012217304902151227,0.0003054326225537807
1761230518006529300,13.203529296875,0.00045814894838258624,-0.0009162978967651725,0.00015271631127689034
1761230518023301400,13.22030126953125,-0.0003054326225537807,-0.0003054326225537807,0.00015271631127689034
1761230518040093700,13.23709375,0.0006108652451075613,-0.00015271631127689034,0.0003054326225537807
1761230518056879600,13.253879638671876,-0.0006108652451075613,-0.0009162978967651725,0.00045814894838258624
1761230518073675000,13.270675048828124,0.00045814894838258624,-0.00015271631127689034,-0.0003054326225537807
1761230518090460700,13.287460693359375,-0.0013744467869400978,-0.00045814894838258624,-0.0012217304902151227
1761230518107250200,13.304250244140626,0.0006108652451075613,0.0003054326225537807,0.0012217304902151227
1761230518124041700,13.321041748046875,0.0006108652451075613,-0.00015271631127689034,0.0012217304902151227
1761230518140822500,13.337822509765624,0.00045814894838258624,-0.00045814894838258624,0.00045814894838258624
1761230518157617200,13.3546171875,-0.0006108652451075613,0.0003054326225537807,0.00045814894838258624
1761230518174406400,13.371406494140626,0.00015271631127689034,0.0003054326225537807,0.00015271631127689034
1761230518191195400,13.3881953125,0.0003054326225537807,-0.00015271631127689034,-0.0003054326225537807
1761230518207984400,13.404984375,0.00015271631127689034,0.0003054326225537807,0.0006108652451075613
1761230518224771600,13.421771484375,0.00015271631127689034,0.0007635815418325365,0.0003054326225537807
1761230518241593300,13.43859326171875,0.00015271631127689034,0.0003054326225537807,-0.00045814894838258624
1761230518258365200,13.455365234375,-0.00045814894838258624,0.0007635815418325365,0.0003054326225537807
1761230518275154700,13.47215478515625,0.0003054326225537807,0.0012217304902151227,0.00045814894838258624
1761230518291939000,13.48893896484375,-0.0003054326225537807,-0.00045814894838258624,0.00045814894838258624
1761230518308737000,13.505737060546876,-0.00015271631127689034,0.00015271631127689034,0.0010690141934901476
1761230518325521700,13.522521728515626,-0.0006108652451075613,-0.0007635815418325365,-0.0007635815418325365
1761230518342311000,13.539310791015625,0.00045814894838258624,0.0010690141934901476,-0.00015271631127689034
1761230518359097900,13.556097900390625,-0.0006108652451075613,0.0006108652451075613,0.00045814894838258624
1761230518375884800,13.572884765625,-0.0006108652451075613,-0.0007635815418325365,-0.0003054326225537807
1761230518392681700,13.589681640625,0.0003054326225537807,0.0003054326225537807,-0.0003054326225537807
1761230518409467000,13.606466796875,0.0003054326225537807,0.00045814894838258624,0.0012217304902151227
1761230518426257000,13.6232568359375,0.0009162978967651725,-0.0010690141934901476,0.00045814894838258624
1761230518443044900,13.640044921875,-0.00015271631127689034,-0.00045814894838258624,-0.00015271631127689034
1761230518459833900,13.656833740234376,-0.0003054326225537807,-0.00015271631127689034,0
1761230518476622800,13.673622802734375,-0.00045814894838258624,-0.00045814894838258624,-0.0003054326225537807
1761230518493391400,13.690391357421875,-0.0006108652451075613,-0.00015271631127689034,-0.00045814894838258624
1761230518510184400,13.707184326171875,-0.00045814894838258624,-0.0022907445672899485,0.0003054326225537807
1761230518526976800,13.723976806640625,0.0006108652451075613,-0.0003054326225537807,0.00015271631127689034
1761230518543765200,13.74076513671875,-0.00015271631127689034,-0.00015271631127689034,-0.00045814894838258624
1761230518560555000,13.757554931640625,0.00045814894838258624,0.0007635815418325365,-0.0003054326225537807
1761230518577343500,13.774343505859376,-0.00045814894838258624,0.0007635815418325365,0
1761230518594127600,13.791127685546876,-0.0006108652451075613,0.0006108652451075613,0.0006108652451075613
1761230518610942500,13.8079423828125,-0.00015271631127689034,-0.00045814894838258624,0
1761230518627705300,13.824705322265626,0.0006108652451075613,0.00015271631127689034,0.0003054326225537807
1761230518644502300,13.841502197265624,-0.0006108652451075613,0.0003054326225537807,0.00045814894838258624
1761230518661284900,13.858284912109376,-0.0006108652451075613,-0.0009162978967651725,0.001527163083665073
1761230518678076700,13.87507666015625,0.0003054326225537807,0.0009162978967651725,0.00015271631127689034
1761230518694867200,13.8918671875,-0.0003054326225537807,0.0006108652451075613,-0.0006108652451075613
1761230518711656200,13.90865625,-0.0006108652451075613,-0.00015271631127689034,0.00045814894838258624
1761230518728462300,13.92546240234375,-0.0003054326225537807,0.0006108652451075613,-0.0006108652451075613
1761230518745248500,13.94224853515625,0.00015271631127689034,0.00045814894838258624,0.0003054326225537807
1761230518762037000,13.959037109375,-0.0006108652451075613,0.0006108652451075613,0.00045814894838258624
1761230518778826200,13.975826171875,0.00045814894838258624,-0.00015271631127689034,-0.0003054326225537807
1761230518795622000,13.992621826171876,-0.0009162978967651725,0.010690141469240189,0.0027488935738801956
1761230518812396500,14.009396484375,0.0006108652451075613,-0.001679879380390048,-0.0009162978967651725
1761230518829193500,14.026193359375,-0.00045814894838258624,-0.003359758760780096,-0.0013744467869400978
1761230518845978400,14.042978271484374,-0.00015271631127689034,-0.0007635815418325365,-0.00045814894838258624
1761230518862772000,14.05977197265625,0.00045814894838258624,-0.0006108652451075613,-0.00045814894838258624
