time,seconds_elapsed,z,y,x
1761230504938314800,0.135314697265625,-0.00015271631127689034,0.001527163083665073,-0.00015271631127689034
1761230504948807200,0.14580712890625,-0.0012217304902151227,0.0007635815418325365,0.00045814894838258624
1761230504965596700,0.1625966796875,-0.0009162978967651725,0.0007635815418325365,0.00015271631127689034
1761230504982388200,0.17938818359375,-0.0012217304902151227,0.0013744467869400978,-0.00015271631127689034
1761230504999187000,0.19618701171875,-0.0012217304902151227,0.0010690141934901476,-0.0003054326225537807
1761230505015976200,0.21297607421875,-0.001679879380390048,0.0013744467869400978,0.0009162978967651725
1761230505032764700,0.2297646484375,-0.0007635815418325365,0.00045814894838258624,0.0009162978967651725
1761230505049554200,0.24655419921875,-0.0010690141934901476,0.00015271631127689034,0.0010690141934901476
1761230505066342700,0.2633427734375,-0.0012217304902151227,0.0013744467869400978,-0.00015271631127689034
1761230505083133000,0.2801328125,-0.0009162978967651725,0.00015271631127689034,0.00015271631127689034
1761230505099920600,0.296920654296875,-0.0009162978967651725,0.0019853119738399982,0.0003054326225537807
1761230505116711200,0.313711181640625,-0.0009162978967651725,0.0006108652451075613,0.0012217304902151227
1761230505133499600,0.330499755859375,-0.0013744467869400978,0.0010690141934901476,0.0012217304902151227
1761230505150288600,0.34728857421875,-0.0010690141934901476,0.0010690141934901476,0.001527163083665073
1761230505167077400,0.364077392578125,-0.0012217304902151227,0,0.00045814894838258624
1761230505183867000,0.380866943359375,-0.0006108652451075613,0.0013744467869400978,0.0012217304902151227
1761230505200656000,0.39765576171875,-0.0010690141934901476,0.0010690141934901476,0.0009162978967651725
1761230505217445000,0.414445068359375,-0.0009162978967651725,0.0006108652451075613,0
1761230505234232000,0.431232177734375,-0.0012217304902151227,0.00015271631127689034,0.00015271631127689034
1761230505251023000,0.448023193359375,-0.0009162978967651725,-0.00015271631127689034,-0.0003054326225537807
1761230505267808800,0.464808837890625,-0.0007635815418325365,0.001679879380390048,0.0010690141934901476
1761230505284604700,0.481604736328125,-0.0003054326225537807,0.0012217304902151227,0.0009162978967651725
1761230505301390300,0.498390380859375,-0.0007635815418325365,0.00045814894838258624,-0.00015271631127689034
1761230505318179000,0.515178955078125,-0.0006108652451075613,0.0003054326225537807,0.0007635815418325365
1761230505334968300,0.53196826171875,-0.0009162978967651725,0.0007635815418325365,0.00015271631127689034
1761230505351757600,0.548757568359375,-0.0007635815418325365,0.00045814894838258624,0.0007635815418325365
1761230505368545000,0.565544921875,-0.0012217304902151227,0.0006108652451075613,0.001832595793530345
1761230505385335600,0.58233544921875,-0.0007635815418325365,0,0.00045814894838258624
1761230505402124500,0.59912451171875,-0.0007635815418325365,0.0010690141934901476,0.0006108652451075613
1761230505418915000,0.6159150390625,-0.0010690141934901476,-0.00015271631127689034,0.0007635815418325365
1761230505435702800,0.632702880859375,-0.0006108652451075613,0.001527163083665073,0.0006108652451075613
1761230505452491800,0.64949169921875,-0.0003054326225537807,0.0006108652451075613,0.0009162978967651725
1761230505469280800,0.66628076171875,-0.0010690141934901476,0.0006108652451075613,0.0007635815418325365
1761230505486070300,0.6830703125,-0.0007635815418325365,0.0025961773935705423,0.0013744467869400978
1761230505502858800,0.699858642578125,-0.001527163083665073,0.0006108652451075613,0.00015271631127689034
1761230505519635200,0.71663525390625,-0.00045814894838258624,0.0010690141934901476,-0.0003054326225537807
1761230505536424000,0.733423828125,-0.0009162978967651725,0.0007635815418325365,0.0009162978967651725
1761230505553226500,0.7502265625,-0.0010690141934901476,0.001832595793530345,0.00045814894838258624
1761230505570013700,0.767013671875,-0.0013744467869400978,0.0009162978967651725,0.00015271631127689034
1761230505586806300,0.78380615234375,-0.0007635815418325365,0.0003054326225537807,0.0009162978967651725
1761230505603576300,0.800576416015625,-0.0009162978967651725,0.0013744467869400978,-0.00015271631127689034
1761230505620383200,0.81738330078125,-0.0003054326225537807,0.001679879380390048,0.0007635815418325365
1761230505637171500,0.83417138671875,-0.0006108652451075613,0.0009162978967651725,0.0007635815418325365
1761230505653960700,0.850960693359375,-0.0013744467869400978,0.0007635815418325365,0.0003054326225537807
1761230505670749700,0.867749755859375,-0.0006108652451075613,0.0007635815418325365,0.0009162978967651725
1761230505687534600,0.88453466796875,-0.00045814894838258624,0.0010690141934901476,-0.0010690141934901476
1761230505704330800,0.901330810546875,-0.0009162978967651725,0.0006108652451075613,-0.0006108652451075613
1761230505721117200,0.9181171875,-0.00045814894838258624,0.0003054326225537807,0.0022907445672899485
1761230505737901800,0.93490185546875,-0.0006108652451075613,0.0013744467869400978,0.0013744467869400978
1761230505754699500,0.951699462890625,-0.0010690141934901476,0.001527163083665073,0.0003054326225537807
1761230505771484000,0.96848388671875,-0.00015271631127689034,0.0006108652451075613,0.0007635815418325365
1761230505788274000,0.98527392578125,-0.0009162978967651725,0.0009162978967651725,0.0007635815418325365
1761230505805062400,1.0020625,-0.00045814894838258624,0.00015271631127689034,0.0009162978967651725
1761230505821848300,1.018848388671875,-0.0003054326225537807,0.0006108652451075613,-0.00015271631127689034
1761230505838643500,1.0356435546875,-0.0013744467869400978,0.0012217304902151227,-0.00015271631127689034
1761230505855429400,1.052429443359375,-0.00045814894838258624,0.0007635815418325365,0.0013744467869400978
1761230505872218000,1.069218017578125,-0.0006108652451075613,-0.00015271631127689034,0.0003054326225537807
1761230505889005000,1.086005126953125,-0.0009162978967651725,0.0009162978967651725,0.00015271631127689034
1761230505905799700,1.102799560546875,-0.00045814894838258624,0.0007635815418325365,0
1761230505922585900,1.1195859375,0.00015271631127689034,0.00015271631127689034,0.0006108652451075613
1761230505939375000,1.136375,-0.0006108652451075613,0.001527163083665073,0.0006108652451075613
1761230505956164000,1.1531640625,-0.00045814894838258624,0.0006108652451075613,0.0007635815418325365
1761230505972952800,1.169952880859375,-0.0010690141934901476,0.0007635815418325365,0.0006108652451075613
1761230505989742000,1.1867421875,-0.0003054326225537807,0.0003054326225537807,0.0006108652451075613
1761230506006529800,1.20352978515625,-0.0003054326225537807,0.001527163083665073,0.0006108652451075613
1761230506023307800,1.220307861328125,-0.00015271631127689034,0.0012217304902151227,0.0012217304902151227
1761230506040109300,1.237109375,-0.0006108652451075613,0.0010690141934901476,0.0003054326225537807
1761230506056898600,1.253898681640625,-0.0010690141934901476,0.0012217304902151227,0.0010690141934901476
1761230506073687600,1.2706875,-0.0012217304902151227,0.0009162978967651725,0.0003054326225537807
1761230506090476800,1.287476806640625,-0.0012217304902151227,0.001832595793530345,0.00045814894838258624
1761230506107262200,1.30426220703125,-0.0010690141934901476,0.00045814894838258624,0.0007635815418325365
1761230506124057900,1.321057861328125,-0.0006108652451075613,0.0019853119738399982,0.0003054326225537807
1761230506140844300,1.33784423828125,-0.0013744467869400978,0.001527163083665073,0.0010690141934901476
1761230506157633000,1.354633056640625,-0.0010690141934901476,0.0012217304902151227,0.0012217304902151227
1761230506174421800,1.371421875,-0.0007635815418325365,0.0006108652451075613,0.00045814894838258624
1761230506191210800,1.388210693359375,-0.0010690141934901476,0.0007635815418325365,0.0006108652451075613
1761230506208000500,1.40500048828125,-0.001679879380390048,0.0007635815418325365,0.001679879380390048
1761230506224789200,1.421789306640625,-0.0009162978967651725,0.0003054326225537807,0.00015271631127689034
1761230506241578000,1.438577880859375,-0.00045814894838258624,0.0007635815418325365,0.0013744467869400978
1761230506258366000,1.455365966796875,-0.0003054326225537807,0.0012217304902151227,0.001679879380390048
1761230506275153200,1.472153076171875,-0.0006108652451075613,0.0003054326225537807,0.0006108652451075613
1761230506291932200,1.48893212890625,-0.0010690141934901476,0.0010690141934901476,0.0013744467869400978
1761230506308734200,1.505734130859375,-0.00015271631127689034,0.0007635815418325365,0.00045814894838258624
1761230506325522400,1.5225224609375,-0.0010690141934901476,0.0007635815418325365,0.0003054326225537807
1761230506342312700,1.539312744140625,-0.0010690141934901476,0.0012217304902151227,0.00015271631127689034
1761230506359102000,1.55610205078125,-0.0010690141934901476,0.0009162978967651725,0.00045814894838258624
1761230506375890700,1.572890625,-0.001832595793530345,-0.0006108652451075613,0.0003054326225537807
1761230506392680000,1.589679931640625,-0.0009162978967651725,0.0006108652451075613,0.0006108652451075613
1761230506409469000,1.606468994140625,-0.0012217304902151227,-0.0003054326225537807,0
1761230506426258200,1.623258056640625,-0.0009162978967651725,-0.00015271631127689034,0.001679879380390048
1761230506443047000,1.640046875,-0.00045814894838258624,0.0003054326225537807,0.0006108652451075613
1761230506459836200,1.656836181640625,-0.0013744467869400978,0.0010690141934901476,-0.00015271631127689034
1761230506476621800,1.673621826171875,-0.0003054326225537807,0.0027488935738801956,-0.00015271631127689034
1761230506493424400,1.69042431640625,-0.00015271631127689034,0.00045814894838258624,0.001832595793530345
1761230506510189600,1.707189453125,-0.0009162978967651725,0.0009162978967651725,-0.0003054326225537807
1761230506526993000,1.723992919921875,-0.0003054326225537807,0.00015271631127689034,0.0003054326225537807
1761230506543778800,1.74077880859375,-0.0006108652451075613,0.00045814894838258624,0.0010690141934901476
1761230506560560400,1.757560302734375,-0.001679879380390048,0.0007635815418325365,0.001679879380390048
1761230506577358000,1.774358154296875,-0.0007635815418325365,0.0010690141934901476,0.0007635815418325365
1761230506594152000,1.79115185546875,-0.0003054326225537807,0.00045814894838258624,0.00015271631127689034
1761230506610930200,1.80793017578125,-0.0012217304902151227,0.0007635815418325365,0.0003054326225537807
1761230506627730400,1.82473046875,-0.0006108652451075613,0.00045814894838258624,0.00015271631127689034
1761230506644514000,1.84151416015625,-0.00045814894838258624,0.0012217304902151227,0.0012217304902151227
1761230506661305600,1.8583056640625,-0.0006108652451075613,0.001527163083665073,0.0006108652451075613
1761230506678094000,1.875093994140625,-0.0012217304902151227,0.0010690141934901476,0.0012217304902151227
1761230506694883600,1.891883544921875,-0.0010690141934901476,0.0006108652451075613,0.00015271631127689034
1761230506711672300,1.90867236328125,-0.0007635815418325365,0.002138028386980295,0
1761230506728461300,1.92546142578125,-0.0003054326225537807,-0.00015271631127689034,0.001527163083665073
1761230506745250300,1.942250244140625,-0.0006108652451075613,0.00045814894838258624,0.0006108652451075613
1761230506762039800,1.959039794921875,-0.00045814894838258624,0.0006108652451075613,0.00015271631127689034
1761230506778826800,1.97582666015625,-0.0007635815418325365,0.0009162978967651725,0.001679879380390048
1761230506795616500,1.992616455078125,-0.0012217304902151227,0.0022907445672899485,0.0006108652451075613
1761230506812407800,2.00940771484375,-0.0006108652451075613,0.002138028386980295,0
1761230506829196000,2.026196044921875,-0.0003054326225537807,0.0019853119738399982,0.0007635815418325365
1761230506845984500,2.042984619140625,-0.0009162978967651725,0.0012217304902151227,0.0009162978967651725
1761230506862773200,2.059773193359375,-0.0007635815418325365,0.0003054326225537807,0.0010690141934901476
1761230506879560400,2.076560546875,-0.0003054326225537807,0.001527163083665073,0.0010690141934901476
1761230506896351200,2.093351318359375,-0.00045814894838258624,0.0019853119738399982,0.001527163083665073
1761230506913138200,2.11013818359375,-0.0010690141934901476,0.0009162978967651725,0.0009162978967651725
1761230506929932800,2.126932861328125,-0.0003054326225537807,0.0006108652451075613,0.0007635815418325365
1761230506946719500,2.143719482421875,-0.0009162978967651725,0.0013744467869400978,0.0013744467869400978
1761230506963508500,2.160508544921875,-0.0009162978967651725,0.002138028386980295,0.00015271631127689034
1761230506980297200,2.177297119140625,-0.0012217304902151227,0.0013744467869400978,0.00045814894838258624
1761230506997084700,2.194084716796875,-0.0006108652451075613,0.0009162978967651725,0.00045814894838258624
1761230507013875500,2.21087548828125,-0.0007635815418325365,0.0007635815418325365,0.0003054326225537807
1761230507030665000,2.2276650390625,-0.0003054326225537807,0.001832595793530345,-0.0006108652451075613
1761230507047453400,2.244453369140625,-0.0006108652451075613,0.0007635815418325365,0.00045814894838258624
1761230507064242700,2.26124267578125,-0.0012217304902151227,0.001679879380390048,0.0007635815418325365
1761230507081011700,2.27801171875,-0.0006108652451075613,0.0007635815418325365,0.0010690141934901476
1761230507097808000,2.294807861328125,-0.001832595793530345,0.0007635815418325365,0.0009162978967651725
1761230507114606300,2.3116064453125,0.00015271631127689034,0.0009162978967651725,0.001527163083665073
1761230507131402200,2.32840234375,-0.0009162978967651725,0.00015271631127689034,0.00015271631127689034
1761230507148188200,2.345188232421875,-0.00015271631127689034,0.0013744467869400978,0.0013744467869400978
1761230507164977400,2.361977294921875,-0.00045814894838258624,0.0012217304902151227,0.001527163083665073
1761230507181766100,2.37876611328125,-0.00045814894838258624,-0.0003054326225537807,0.00045814894838258624
1761230507198555000,2.395554931640625,-0.0007635815418325365,0.0012217304902151227,0.001679879380390048
1761230507215343000,2.412343017578125,-0.0007635815418325365,0.001832595793530345,0.0010690141934901476
1761230507232133600,2.429133544921875,-0.0009162978967651725,0.0010690141934901476,0.0012217304902151227
1761230507248922000,2.445922119140625,-0.0010690141934901476,0.0012217304902151227,0.0013744467869400978
1761230507265711600,2.462711669921875,-0.0007635815418325365,-0.00015271631127689034,0.0009162978967651725
1761230507282497000,2.4794970703125,-0.0010690141934901476,0.0019853119738399982,0.001832595793530345
1761230507296277200,2.49327734375,-0.0013744467869400978,0.001527163083665073,0.0010690141934901476
1761230507311981300,2.508981201171875,-0.0013744467869400978,0.0003054326225537807,0.0010690141934901476
1761230507328670500,2.52567041015625,-0.0009162978967651725,0.001527163083665073,0.0006108652451075613
1761230507345458400,2.54245849609375,-0.0010690141934901476,0.0010690141934901476,0.00015271631127689034
1761230507362248400,2.55924853515625,-0.0012217304902151227,0.00015271631127689034,0.0010690141934901476
1761230507379037400,2.576037353515625,-0.00015271631127689034,0.0006108652451075613,0.0007635815418325365
1761230507395844000,2.592843994140625,-0.0013744467869400978,0.001527163083665073,0.001679879380390048
1761230507412629000,2.60962890625,-0.0013744467869400978,0.0007635815418325365,0.0010690141934901476
1761230507429402400,2.62640234375,-0.0012217304902151227,0.0006108652451075613,0.0006108652451075613
1761230507446197200,2.643197265625,-0.0009162978967651725,0.0003054326225537807,0.0006108652451075613
1761230507462983200,2.659983154296875,-0.0009162978967651725,0.0003054326225537807,0.0010690141934901476
1761230507479769000,2.67676904296875,-0.001832595793530345,0.0006108652451075613,0.0010690141934901476
1761230507496564500,2.693564453125,-0.0010690141934901476,0.001527163083665073,0.0010690141934901476
1761230507513350400,2.710350341796875,-0.00015271631127689034,0.00045814894838258624,0.0010690141934901476
1761230507530156000,2.727156005859375,-0.0009162978967651725,0.0007635815418325365,0.001679879380390048
1761230507546943000,2.74394287109375,-0.0006108652451075613,0.001527163083665073,-0.00045814894838258624
1761230507563727000,2.76072705078125,-0.0003054326225537807,0.00045814894838258624,0.0009162978967651725
1761230507580524500,2.777524658203125,-0.00015271631127689034,-0.0003054326225537807,0.0003054326225537807
1761230507597292500,2.79429248046875,-0.0010690141934901476,0.0012217304902151227,0.00045814894838258624
1761230507614088700,2.811088623046875,-0.0009162978967651725,0.001527163083665073,0
1761230507630873600,2.82787353515625,-0.0003054326225537807,0.0010690141934901476,0.0012217304902151227
1761230507647663000,2.8446630859375,-0.0013744467869400978,0.00015271631127689034,0.001832595793530345
1761230507664449800,2.86144970703125,-0.0010690141934901476,0.0007635815418325365,0.0013744467869400978
1761230507681243400,2.878243408203125,-0.0009162978967651725,0.001527163083665073,0.0003054326225537807
1761230507698030000,2.895030029296875,-0.0013744467869400978,0.0007635815418325365,0.0009162978967651725
1761230507714836200,2.911836181640625,-0.0006108652451075613,0.001679879380390048,0.0009162978967651725
1761230507731621400,2.928621337890625,-0.0006108652451075613,0.0022907445672899485,0.0007635815418325365
1761230507748394800,2.945394775390625,-0.0003054326225537807,0.00045814894838258624,0.0003054326225537807
1761230507765203000,2.962202880859375,-0.0010690141934901476,-0.0003054326225537807,0.0009162978967651725
1761230507781989000,2.978989013671875,-0.0009162978967651725,-0.00015271631127689034,0.0010690141934901476
1761230507798776300,2.9957763671875,-0.0012217304902151227,0.00015271631127689034,0.0003054326225537807
1761230507815567600,3.012567626953125,-0.0009162978967651725,0.0007635815418325365,-0.00045814894838258624
1761230507832352500,3.0293525390625,-0.00015271631127689034,0.0006108652451075613,0.0010690141934901476
1761230507849149200,3.046149169921875,-0.0003054326225537807,0.00045814894838258624,0.0006108652451075613
1761230507865934800,3.062934814453125,-0.0010690141934901476,0.0007635815418325365,0.0010690141934901476
1761230507882723800,3.079723876953125,-0.0003054326225537807,0.0006108652451075613,0.00015271631127689034
1761230507899512300,3.09651220703125,-0.00045814894838258624,0.0013744467869400978,0.001832595793530345
1761230507916284400,3.113284423828125,-0.0012217304902151227,0.0003054326225537807,0.0007635815418325365
1761230507933077000,3.130076904296875,-0.0012217304902151227,0.001679879380390048,0.001679879380390048
1761230507949866200,3.1468662109375,-0.00015271631127689034,0.0006108652451075613,0.0007635815418325365
1761230507966655000,3.163655029296875,-0.0009162978967651725,-0.0006108652451075613,0
1761230507983444000,3.18044384765625,-0.0013744467869400978,0.0007635815418325365,0.0003054326225537807
1761230508000230400,3.19723046875,-0.0012217304902151227,0.0007635815418325365,0.0007635815418325365
1761230508017042200,3.214042236328125,-0.00045814894838258624,0.0007635815418325365,0.001527163083665073
1761230508033825800,3.23082568359375,-0.0009162978967651725,0.00045814894838258624,0.0007635815418325365
1761230508050613800,3.24761376953125,-0.0013744467869400978,0.0007635815418325365,0.00015271631127689034
1761230508067403800,3.26440380859375,-0.0012217304902151227,0.00045814894838258624,0.00015271631127689034
1761230508084190500,3.2811904296875,-0.00015271631127689034,0.0012217304902151227,0.0010690141934901476
1761230508100978200,3.297978271484375,-0.0010690141934901476,0.0009162978967651725,0.0006108652451075613
1761230508117755400,3.31475537109375,-0.0013744467869400978,0.00045814894838258624,0.0003054326225537807
1761230508134542800,3.33154296875,-0.0003054326225537807,0.0010690141934901476,0.0010690141934901476
1761230508151313700,3.348313720703125,-0.00015271631127689034,0.0010690141934901476,0.0007635815418325365
1761230508168110800,3.36511083984375,-0.0009162978967651725,0.0007635815418325365,-0.00015271631127689034
1761230508184916200,3.381916259765625,-0.00015271631127689034,0.0006108652451075613,0.0003054326225537807
1761230508201695700,3.39869580078125,-0.0013744467869400978,0.0010690141934901476,-0.0006108652451075613
1761230508218505000,3.4155048828125,-0.0012217304902151227,0.0003054326225537807,0.0007635815418325365
1761230508235294200,3.432294189453125,-0.00015271631127689034,0.0013744467869400978,-0.00015271631127689034
1761230508252087000,3.449087158203125,-0.0012217304902151227,0.0012217304902151227,0.001679879380390048
1761230508268873500,3.46587353515625,-0.00045814894838258624,0.001527163083665073,0.0007635815418325365
1761230508285661200,3.4826611328125,-0.0009162978967651725,0.001527163083665073,0.0007635815418325365
1761230508302449700,3.49944970703125,-0.0006108652451075613,0.001527163083665073,0.0010690141934901476
1761230508319240200,3.516240234375,-0.0013744467869400978,0.0012217304902151227,0
1761230508336028200,3.533028076171875,-0.00015271631127689034,0.001527163083665073,0.0010690141934901476
1761230508352801000,3.549801025390625,-0.00045814894838258624,0,0.0003054326225537807
1761230508369606400,3.5666064453125,-0.0013744467869400978,0.0012217304902151227,0.0007635815418325365
1761230508386395600,3.583395751953125,-0.0009162978967651725,0.002138028386980295,0.0003054326225537807
1761230508403165700,3.600165771484375,-0.00045814894838258624,0.00045814894838258624,0.00015271631127689034
1761230508419961600,3.616961669921875,-0.00045814894838258624,0.00045814894838258624,0.0003054326225537807
1761230508436747800,3.633747802734375,-0.0010690141934901476,0.0010690141934901476,0.0006108652451075613
1761230508453518000,3.65051806640625,-0.0006108652451075613,0.001679879380390048,0.0009162978967651725
1761230508470327300,3.667327392578125,-0.0013744467869400978,0.001527163083665073,0.0013744467869400978
1761230508487116300,3.6841162109375,-0.0012217304902151227,0.002138028386980295,0.0006108652451075613
1761230508503922400,3.70092236328125,-0.0010690141934901476,0.001527163083665073,0.001679879380390048
1761230508520708900,3.717708984375,-0.0010690141934901476,0.0006108652451075613,0.00015271631127689034
1761230508537496800,3.734496826171875,-0.0012217304902151227,0.0010690141934901476,0.0006108652451075613
1761230508554270200,3.751270263671875,-0.0010690141934901476,0.0003054326225537807,0.0010690141934901476
1761230508571074000,3.768073974609375,-0.00015271631127689034,0.0007635815418325365,-0.00015271631127689034
1761230508587860700,3.78486083984375,-0.0009162978967651725,0.0007635815418325365,0
1761230508604640300,3.80164013671875,-0.0003054326225537807,0.0009162978967651725,0
1761230508621428500,3.818428466796875,-0.0013744467869400978,0.0006108652451075613,0.0010690141934901476
1761230508638209500,3.83520947265625,-0.0009162978967651725,0.0013744467869400978,0.0003054326225537807
1761230508655007000,3.852007080078125,-0.0009162978967651725,0,0.001679879380390048
1761230508671794200,3.868794189453125,-0.0003054326225537807,0.0009162978967651725,0
1761230508688586800,3.885586669921875,-0.0009162978967651725,0.0012217304902151227,0.0007635815418325365
1761230508705391000,3.90239111328125,-0.0013744467869400978,-0.0003054326225537807,-0.00015271631127689034
1761230508722177300,3.91917724609375,-0.0013744467869400978,0.0006108652451075613,0.0009162978967651725
1761230508738965800,3.9359658203125,-0.00015271631127689034,0.001527163083665073,0.0013744467869400978
1761230508755752700,3.952752685546875,-0.0006108652451075613,0.001527163083665073,-0.0003054326225537807
1761230508772540400,3.96954052734375,-0.0013744467869400978,0.0012217304902151227,0.0007635815418325365
1761230508789333000,3.9863330078125,-0.0013744467869400978,0.001527163083665073,0
1761230508806126300,4.003126220703125,-0.0012217304902151227,0.0013744467869400978,0.0006108652451075613
1761230508822909400,4.019909423828125,-0.0009162978967651725,0.001527163083665073,0.0003054326225537807
1761230508839701000,4.036700927734375,-0.00015271631127689034,0.001527163083665073,0.0003054326225537807
1761230508856489200,4.0534892578125,-0.0003054326225537807,0.0013744467869400978,0.0009162978967651725
1761230508873278700,4.07027880859375,-0.00045814894838258624,0.00045814894838258624,0
1761230508890044000,4.0870439453125,-0.0012217304902151227,0.0006108652451075613,0.0010690141934901476
1761230508906843000,4.1038427734375,-0.0003054326225537807,0.0007635815418325365,-0.0009162978967651725
1761230508923632000,4.120632080078125,-0.00015271631127689034,0.0007635815418325365,0
1761230508940420900,4.1374208984375,-0.0013744467869400978,0.0006108652451075613,0.0009162978967651725
1761230508957210400,4.15421044921875,-0.0013744467869400978,0.0012217304902151227,0.001832595793530345
1761230508973999400,4.170999267578125,-0.0013744467869400978,0.0003054326225537807,0
1761230508990805500,4.187805419921875,-0.0010690141934901476,0.0003054326225537807,-0.00015271631127689034
1761230509007591200,4.204591064453125,-0.0006108652451075613,0.001527163083665073,0.0009162978967651725
1761230509024380400,4.22138037109375,-0.0006108652451075613,0.001527163083665073,0.0003054326225537807
1761230509041169400,4.23816943359375,-0.0010690141934901476,0.0013744467869400978,0.0013744467869400978
1761230509057958100,4.254958251953125,-0.0013744467869400978,0.00045814894838258624,0.0003054326225537807
1761230509074745300,4.271745361328125,-0.0009162978967651725,0,0.00015271631127689034
1761230509091533600,4.288533447265625,-0.00045814894838258624,0.00045814894838258624,0.0006108652451075613
1761230509108311800,4.305311767578125,-0.0012217304902151227,0.0013744467869400978,0.0006108652451075613
1761230509125100800,4.322100830078125,-0.00015271631127689034,0.0013744467869400978,0.0003054326225537807
1761230509141879800,4.3388798828125,-0.0013744467869400978,0.0006108652451075613,0.0009162978967651725
1761230509158679000,4.355678955078125,-0.0006108652451075613,0.0010690141934901476,0
1761230509175468000,4.372468017578125,-0.00045814894838258624,0.0010690141934901476,0.0003054326225537807
1761230509192260400,4.38926025390625,-0.00015271631127689034,0.0013744467869400978,0.001679879380390048
1761230509209057500,4.4060576171875,-0.0012217304902151227,0.0003054326225537807,0.0013744467869400978
1761230509225833200,4.422833251953125,-0.0010690141934901476,0.00045814894838258624,0.0010690141934901476
1761230509242638600,4.439638671875,-0.0012217304902151227,0.0003054326225537807,0
1761230509259427000,4.456427001953125,-0.00015271631127689034,0.0007635815418325365,0.00015271631127689034
1761230509276216600,4.473216552734375,-0.0010690141934901476,0.0007635815418325365,0.0009162978967651725
1761230509293004000,4.490004150390625,-0.0009162978967651725,0.0007635815418325365,0.001527163083665073
1761230509309795800,4.5067958984375,-0.00015271631127689034,0.0013744467869400978,0.0009162978967651725
1761230509326566700,4.523566650390625,-0.0003054326225537807,0.0013744467869400978,0.0006108652451075613
1761230509343367000,4.540366943359375,-0.0010690141934901476,0.001527163083665073,0.0010690141934901476
1761230509360165400,4.557165283203125,-0.0009162978967651725,0.001527163083665073,0.0003054326225537807
1761230509376933600,4.57393359375,-0.0009162978967651725,0.0010690141934901476,0.0003054326225537807
1761230509393725700,4.5907255859375,-0.0013744467869400978,0.001679879380390048,0.00015271631127689034
1761230509410515200,4.60751513671875,-0.0012217304902151227,0.0010690141934901476,0.0006108652451075613
1761230509427304000,4.624303955078125,-0.0009162978967651725,0.001527163083665073,0
1761230509444094700,4.6410947265625,-0.0010690141934901476,0,0.0009162978967651725
1761230509460882200,4.657882080078125,-0.0010690141934901476,0.0012217304902151227,0.001832595793530345
1761230509477688800,4.674688720703125,-0.0003054326225537807,0.0012217304902151227,0.0009162978967651725
1761230509494474000,4.691473876953125,-0.0010690141934901476,0.00045814894838258624,0.0010690141934901476
1761230509511263700,4.708263671875,-0.00045814894838258624,0.0012217304902151227,0.0003054326225537807
1761230509528050000,4.7250498046875,-0.00045814894838258624,0.0007635815418325365,0.0003054326225537807
1761230509544837600,4.741837646484375,-0.0012217304902151227,0.001527163083665073,0.0012217304902151227
1761230509561634600,4.758634521484375,-0.00045814894838258624,0.00015271631127689034,0.0010690141934901476
1761230509578419200,4.775419189453125,-0.0009162978967651725,0.0013744467869400978,0.0013744467869400978
1761230509595191300,4.79219140625,-0.0013744467869400978,0.0010690141934901476,0.0009162978967651725
1761230509611983600,4.808983642578125,-0.0012217304902151227,0.0003054326225537807,0.0006108652451075613
1761230509628772900,4.82577294921875,-0.0006108652451075613,0.0013744467869400978,0.0009162978967651725
1761230509645558500,4.84255859375,-0.0010690141934901476,0.002138028386980295,0.0006108652451075613
1761230509662348800,4.859348876953125,-0.0003054326225537807,0.0009162978967651725,0.0009162978967651725
1761230509679145500,4.8761455078125,-0.00015271631127689034,0.0013744467869400978,-0.00015271631127689034
1761230509695946500,4.892946533203125,-0.0006108652451075613,0.0013744467869400978,0.0010690141934901476
1761230509712731600,4.909731689453125,-0.0013744467869400978,0.001527163083665073,0.0003054326225537807
1761230509729521200,4.926521240234375,-0.0012217304902151227,0.001527163083665073,0.0003054326225537807
1761230509746310000,4.943309814453125,-0.0006108652451075613,0.0010690141934901476,0
1761230509763099100,4.96009912109375,-0.0006108652451075613,0.0006108652451075613,0.00015271631127689034
1761230509779886800,4.976886962890625,-0.00015271631127689034,0.00015271631127689034,0.0007635815418325365
1761230509796661800,4.993661865234375,-0.0003054326225537807,0.0022907445672899485,0.0010690141934901476
1761230509813466600,5.010466552734375,-0.0003054326225537807,0.001527163083665073,0.0010690141934901476
1761230509830255900,5.027255859375,-0.00015271631127689034,0.00045814894838258624,-0.00015271631127689034
1761230509847042000,5.0440419921875,-0.0013744467869400978,0.0006108652451075613,0.0009162978967651725
1761230509863817000,5.06081689453125,-0.00045814894838258624,0.00045814894838258624,0.001679879380390048
1761230509880608800,5.07760888671875,-0.0013744467869400978,0.0003054326225537807,0
1761230509897401300,5.0944013671875,-0.0003054326225537807,0.0006108652451075613,0
1761230509914171100,5.111171142578125,-0.0003054326225537807,0.00045814894838258624,0.0006108652451075613
1761230509930976000,5.12797607421875,-0.0003054326225537807,0,0.00045814894838258624
1761230509947765000,5.144764892578125,-0.00015271631127689034,0.0012217304902151227,0.0010690141934901476
1761230509964554200,5.16155419921875,-0.0013744467869400978,0.001527163083665073,0.0007635815418325365
1761230509981343500,5.178343505859375,-0.0010690141934901476,0.0010690141934901476,0.0012217304902151227
1761230509998132500,5.195132568359375,-0.00015271631127689034,0.001527163083665073,0.0010690141934901476
1761230510014938400,5.2119384765625,-0.00045814894838258624,0,0.00015271631127689034
1761230510031724000,5.22872412109375,-0.0012217304902151227,0.0010690141934901476,-0.00015271631127689034
1761230510048514000,5.24551416015625,-0.0010690141934901476,0.0012217304902151227,0.0009162978967651725
1761230510065302000,5.262302001953125,-0.0010690141934901476,0.0007635815418325365,0.0010690141934901476
1761230510082073300,5.2790732421875,-0.0003054326225537807,0.001527163083665073,0.0010690141934901476
1761230510098855400,5.29585546875,-0.00015271631127689034,0.001527163083665073,0.0003054326225537807
1761230510115654100,5.312654052734375,-0.00045814894838258624,0.0019853119738399982,0.0010690141934901476
1761230510132444700,5.329444580078125,-0.0013744467869400978,0.0007635815418325365,0.0010690141934901476
1761230510149234000,5.34623388671875,-0.0009162978967651725,0.0013744467869400978,0.0009162978967651725
1761230510166021600,5.363021728515625,-0.00015271631127689034,0.001527163083665073,0.0012217304902151227
1761230510182815500,5.3798154296875,-0.0009162978967651725,0.0006108652451075613,0.0007635815418325365
1761230510199614500,5.396614501953125,-0.0003054326225537807,0.0006108652451075613,0.0003054326225537807
1761230510216404000,5.413404052734375,-0.0013744467869400978,0.001679879380390048,-0.00015271631127689034
1761230510233191400,5.43019140625,-0.0013744467869400978,0.00045814894838258624,0.0010690141934901476
1761230510249981400,5.4469814453125,-0.0003054326225537807,0.0010690141934901476,0.0003054326225537807
1761230510266772000,5.46377197265625,-0.0003054326225537807,0.0010690141934901476,0.0012217304902151227
1761230510283559700,5.4805595703125,-0.0009162978967651725,0.0007635815418325365,0.001679879380390048
1761230510300348200,5.49734814453125,-0.00015271631127689034,0.0013744467869400978,0
1761230510317138000,5.514137939453125,-0.00015271631127689034,0.00045814894838258624,0.0010690141934901476
1761230510333927400,5.530927490234375,-0.0010690141934901476,0.001527163083665073,0
1761230510350698800,5.54769873046875,-0.0013744467869400978,0.0007635815418325365,0.0003054326225537807
1761230510367480800,5.564480712890625,-0.0013744467869400978,0.0013744467869400978,0.0010690141934901476
1761230510384280600,5.581280517578125,-0.0003054326225537807,0.0009162978967651725,0.0009162978967651725
1761230510401070000,5.598070068359375,-0.0010690141934901476,0.0010690141934901476,0.0009162978967651725
1761230510417857500,5.614857421875,-0.00045814894838258624,-0.00045814894838258624,0.00045814894838258624
1761230510434648000,5.63164794921875,-0.0010690141934901476,0.0010690141934901476,0
1761230510451454000,5.648453857421875,-0.00015271631127689034,0.0013744467869400978,0.0012217304902151227
1761230510468240100,5.665240234375,-0.0013744467869400978,0.0007635815418325365,0.0009162978967651725
1761230510485006000,5.682006103515625,-0.0012217304902151227,0.0003054326225537807,0.00045814894838258624
1761230510501818600,5.698818603515625,-0.0012217304902151227,0.0009162978967651725,0.0003054326225537807
1761230510518607000,5.715607177734375,-0.0010690141934901476,0.0006108652451075613,0.0006108652451075613
1761230510535384000,5.732384033203125,-0.0013744467869400978,0.001679879380390048,0.0010690141934901476
1761230510552183800,5.749183837890625,-0.0006108652451075613,0.001832595793530345,0.0010690141934901476
1761230510568974300,5.765974365234375,-0.0012217304902151227,0.001832595793530345,0.0009162978967651725
1761230510585746000,5.782745849609375,-0.0003054326225537807,0.00045814894838258624,-0.00015271631127689034
1761230510602538800,5.799538818359375,-0.00045814894838258624,0.0003054326225537807,0.0006108652451075613
1761230510619327700,5.81632763671875,-0.0006108652451075613,0.0013744467869400978,0.0003054326225537807
1761230510636117000,5.833116943359375,-0.0006108652451075613,0.0010690141934901476,0.0009162978967651725
1761230510652884200,5.84988427734375,-0.0006108652451075613,0.0007635815418325365,0.00045814894838258624
1761230510669692000,5.86669189453125,-0.0012217304902151227,0.0009162978967651725,-0.00015271631127689034
1761230510686504400,5.88350439453125,-0.0012217304902151227,0.0013744467869400978,0.0010690141934901476
1761230510703287300,5.900287353515625,-0.0010690141934901476,0.0006108652451075613,0.00015271631127689034
1761230510720076300,5.917076171875,-0.0009162978967651725,0.002138028386980295,0.0012217304902151227
1761230510736862500,5.933862548828125,-0.00015271631127689034,-0.00015271631127689034,0.0007635815418325365
1761230510753638000,5.950637939453125,-0.0006108652451075613,0.00045814894838258624,0.00045814894838258624
1761230510770443300,5.967443359375,-0.0009162978967651725,0.0012217304902151227,0.0010690141934901476
1761230510787220200,5.98422021484375,-0.0006108652451075613,0.0007635815418325365,-0.00015271631127689034
1761230510804020700,6.001020751953125,-0.0010690141934901476,0.0003054326225537807,0.0003054326225537807
1761230510820810500,6.017810546875,-0.0009162978967651725,0.00045814894838258624,0.0007635815418325365
1761230510837570000,6.034570068359375,-0.0003054326225537807,0.001679879380390048,0.0010690141934901476
1761230510854374700,6.051374755859375,-0.002138028386980295,0.001527163083665073,0.0010690141934901476
1761230510871164000,6.068163818359375,-0.0006108652451075613,0.0010690141934901476,0.0013744467869400978
1761230510887953000,6.084952880859375,-0.0013744467869400978,0.001527163083665073,0.0003054326225537807
1761230510904742000,6.101741943359375,-0.0009162978967651725,0.0012217304902151227,0.0009162978967651725
1761230510921531000,6.11853076171875,-0.0012217304902151227,0.0013744467869400978,0.0009162978967651725
1761230510938335000,6.1353349609375,-0.0003054326225537807,0.0007635815418325365,0.0003054326225537807
1761230510955127300,6.152127197265625,-0.0013744467869400978,-0.0003054326225537807,0.0007635815418325365
1761230510971906000,6.168906005859375,-0.00015271631127689034,0.0022907445672899485,0
1761230510988703200,6.185703125,-0.0012217304902151227,0.0012217304902151227,0.00015271631127689034
1761230511005490400,6.202490478515625,-0.0006108652451075613,0.0010690141934901476,0.00015271631127689034
1761230511022250000,6.21925,-0.0006108652451075613,0.002138028386980295,0.0009162978967651725
1761230511039068200,6.236068115234375,-0.0009162978967651725,0.0012217304902151227,0.00015271631127689034
1761230511055855900,6.25285595703125,-0.0012217304902151227,0.0009162978967651725,0.0010690141934901476
1761230511072642800,6.269642822265625,-0.00015271631127689034,0.0013744467869400978,0.0006108652451075613
1761230511089421600,6.286421630859375,-0.00015271631127689034,0.001832595793530345,0.0010690141934901476
1761230511106210600,6.30321044921875,-0.00015271631127689034,0.0010690141934901476,0.0003054326225537807
1761230511122999600,6.31999951171875,-0.0009162978967651725,0.0010690141934901476,0.0006108652451075613
1761230511139789000,6.3367890625,-0.0003054326225537807,0.001527163083665073,0
1761230511156577800,6.353577880859375,-0.0012217304902151227,0.001679879380390048,0
1761230511173370400,6.370370361328125,-0.00015271631127689034,0.001527163083665073,0.0003054326225537807
1761230511190168600,6.38716845703125,-0.0010690141934901476,0.0012217304902151227,0.0010690141934901476
1761230511206958600,6.40395849609375,-0.00045814894838258624,0.0007635815418325365,0.0010690141934901476
1761230511223748000,6.420748046875,-0.0006108652451075613,0,0.0003054326225537807
1761230511240537000,6.437537109375,-0.0009162978967651725,0.0013744467869400978,0.0010690141934901476
1761230511257323500,6.454323486328125,-0.00015271631127689034,0.00045814894838258624,0.0006108652451075613
1761230511274115800,6.47111572265625,-0.0012217304902151227,0.0006108652451075613,0.0007635815418325365
1761230511290901000,6.48790087890625,-0.0010690141934901476,0.0012217304902151227,0.0003054326225537807
1761230511307696400,6.5046962890625,-0.0010690141934901476,0.0006108652451075613,0.0013744467869400978
1761230511324465000,6.52146484375,-0.0006108652451075613,0.0010690141934901476,0.0006108652451075613
1761230511341254400,6.53825439453125,-0.0006108652451075613,0.00045814894838258624,0.0009162978967651725
1761230511358033700,6.55503369140625,-0.0003054326225537807,0.0003054326225537807,0.0010690141934901476
1761230511374837800,6.571837646484375,-0.0006108652451075613,0.0010690141934901476,0.0007635815418325365
1761230511391612400,6.5886123046875,-0.00015271631127689034,0.0007635815418325365,0.0003054326225537807
1761230511408413700,6.60541357421875,-0.00045814894838258624,0.0006108652451075613,0.0006108652451075613
1761230511425220400,6.622220458984375,-0.00045814894838258624,0.001527163083665073,0.0010690141934901476
1761230511442005200,6.639005126953125,-0.0003054326225537807,0.0003054326225537807,0
1761230511458795300,6.655795166015625,-0.0012217304902151227,0.00045814894838258624,0.0010690141934901476
1761230511475584500,6.67258447265625,-0.00015271631127689034,0.0006108652451075613,0.0009162978967651725
1761230511492364300,6.6893642578125,-0.0012217304902151227,0.0013744467869400978,0.0010690141934901476
1761230511509160000,6.706159912109375,-0.0006108652451075613,0.0013744467869400978,0.0003054326225537807
1761230511525955000,6.722955078125,-0.0013744467869400978,0.001679879380390048,0.0009162978967651725
1761230511542732500,6.739732666015625,-0.0010690141934901476,0.0009162978967651725,0.0010690141934901476
1761230511559533600,6.756533447265625,-0.0006108652451075613,0.0010690141934901476,0.0009162978967651725
1761230511576281300,6.77328125,-0.0009162978967651725,0.00045814894838258624,0.0012217304902151227
1761230511593090600,6.790090576171875,-0.0012217304902151227,0.0009162978967651725,0.0010690141934901476
1761230511609887000,6.806886962890625,-0.0003054326225537807,0.0010690141934901476,0.0019853119738399982
1761230511626670600,6.823670654296875,-0.0010690141934901476,0.00015271631127689034,0.0010690141934901476
1761230511643460600,6.840460693359375,-0.0013744467869400978,0.001527163083665073,0.0009162978967651725
1761230511660247300,6.857247314453125,-0.0006108652451075613,0.0013744467869400978,0.001832595793530345
1761230511677044500,6.87404443359375,-0.0013744467869400978,0.0003054326225537807,0.00045814894838258624
1761230511693824800,6.89082470703125,-0.0009162978967651725,0.001832595793530345,0.0010690141934901476
1761230511710646800,6.907646728515625,-0.0009162978967651725,0.001527163083665073,0
1761230511727419600,6.924419677734375,-0.0006108652451075613,0.0010690141934901476,0.0006108652451075613
1761230511744208000,6.941207763671875,-0.0006108652451075613,0.0006108652451075613,0.0010690141934901476
1761230511760963600,6.957963623046875,-0.0006108652451075613,0.0013744467869400978,0.0003054326225537807
1761230511777783800,6.97478369140625,-0.0009162978967651725,0.0006108652451075613,0.00015271631127689034
1761230511794574300,6.99157421875,-0.00015271631127689034,0.0010690141934901476,0.001679879380390048
1761230511811351000,7.00835107421875,-0.0003054326225537807,0.0007635815418325365,0.0010690141934901476
1761230511828142600,7.025142578125,-0.0013744467869400978,0.001527163083665073,0
1761230511844926700,7.0419267578125,-0.0009162978967651725,0.0009162978967651725,0.00015271631127689034
1761230511861709000,7.058708984375,-0.0009162978967651725,0.0003054326225537807,0.0006108652451075613
1761230511878507500,7.075507568359375,-0.00045814894838258624,0.0019853119738399982,0.0006108652451075613
1761230511895295700,7.092295654296875,-0.00015271631127689034,0.001679879380390048,0.0010690141934901476
1761230511912102700,7.1091025390625,-0.0012217304902151227,0.00045814894838258624,0.0007635815418325365
1761230511928888800,7.125888916015625,-0.00045814894838258624,0.001527163083665073,0.0009162978967651725
1761230511945677600,7.142677490234375,-0.0003054326225537807,0.0010690141934901476,0
1761230511962465000,7.159465087890625,-0.0010690141934901476,0.0012217304902151227,0.0003054326225537807
1761230511979256000,7.176256103515625,-0.00015271631127689034,0.0007635815418325365,0.00045814894838258624
1761230511996040400,7.19304052734375,-0.0013744467869400978,0.00045814894838258624,0.0009162978967651725
1761230512012837600,7.209837646484375,-0.00015271631127689034,0.0013744467869400978,0.0010690141934901476
1761230512029623300,7.226623291015625,-0.0009162978967651725,0.0003054326225537807,0.0010690141934901476
1761230512046412300,7.243412353515625,-0.0010690141934901476,0.00045814894838258624,0.0009162978967651725
1761230512063195000,7.26019482421875,-0.0012217304902151227,0.0010690141934901476,0.0003054326225537807
1761230512079979000,7.27697900390625,-0.0009162978967651725,0.0013744467869400978,0.001527163083665073
1761230512096766000,7.293765869140625,-0.0013744467869400978,0.0003054326225537807,0.00015271631127689034
1761230512113554700,7.3105546875,-0.0013744467869400978,0.0006108652451075613,0.0007635815418325365
1761230512130343700,7.32734375,-0.0006108652451075613,0.0012217304902151227,-0.00015271631127689034
1761230512147131400,7.34413134765625,-0.0012217304902151227,0.0012217304902151227,0.00015271631127689034
1761230512163925000,7.360925048828125,-0.0006108652451075613,0.0003054326225537807,0.001832595793530345
1761230512180704000,7.3777041015625,-0.0006108652451075613,0.0007635815418325365,0.0003054326225537807
1761230512197517800,7.394517822265625,-0.00045814894838258624,0.00045814894838258624,0.0010690141934901476
1761230512214300400,7.411300537109375,-0.0010690141934901476,0.0013744467869400978,0.00015271631127689034
1761230512231092200,7.42809228515625,-0.0012217304902151227,0.00045814894838258624,0.0003054326225537807
1761230512247881000,7.444880859375,-0.0009162978967651725,0.0003054326225537807,0.0009162978967651725
1761230512264670000,7.461669921875,-0.0013744467869400978,0.0006108652451075613,0.0006108652451075613
1761230512281457700,7.478457763671875,-0.0006108652451075613,0.0003054326225537807,0.00015271631127689034
1761230512298230800,7.495230712890625,-0.00015271631127689034,0.0006108652451075613,0.0003054326225537807
1761230512315023400,7.5120234375,-0.0013744467869400978,0.0003054326225537807,0.0010690141934901476
1761230512331799300,7.52879931640625,-0.0006108652451075613,0.0009162978967651725,0.0009162978967651725
1761230512348601900,7.545601806640625,-0.0013744467869400978,0.0003054326225537807,0.0013744467869400978
1761230512365390600,7.562390625,-0.0010690141934901476,0.0012217304902151227,0.00015271631127689034
1761230512382179600,7.5791796875,-0.0013744467869400978,0.0012217304902151227,0.0012217304902151227
1761230512398982000,7.59598193359375,-0.0006108652451075613,0.0012217304902151227,0.002138028386980295
1761230512415761200,7.61276123046875,-0.0010690141934901476,0.00045814894838258624,0.001832595793530345
1761230512432526300,7.6295263671875,-0.00045814894838258624,-0.00015271631127689034,0.001679879380390048
1761230512449350000,7.646349853515625,-0.0013744467869400978,0.00045814894838258624,0.0010690141934901476
1761230512466131500,7.66313134765625,-0.0006108652451075613,0,0.0009162978967651725
1761230512482928600,7.6799287109375,-0.0010690141934901476,0.00045814894838258624,0.0003054326225537807
1761230512499716900,7.696716796875,-0.00045814894838258624,0.001527163083665073,-0.00015271631127689034
1761230512516506600,7.713506591796875,-0.0006108652451075613,0.0003054326225537807,0.0009162978967651725
1761230512533294300,7.73029443359375,-0.0003054326225537807,0.00045814894838258624,0
1761230512550091000,7.747091064453125,-0.0013744467869400978,0.0012217304902151227,0.0006108652451075613
1761230512566849800,7.763849853515625,-0.0012217304902151227,0.0010690141934901476,0.0010690141934901476
1761230512583648500,7.7806484375,-0.0010690141934901476,0.002138028386980295,0.0007635815418325365
1761230512600437800,7.797437744140625,0,0.0012217304902151227,0.0003054326225537807
1761230512617226500,7.8142265625,-0.0009162978967651725,0.0003054326225537807,0.0010690141934901476
1761230512634015700,7.831015625,-0.0003054326225537807,0.00045814894838258624,0
1761230512650804200,7.84780419921875,-0.0013744467869400978,0.0012217304902151227,0.0009162978967651725
1761230512667611400,7.864611328125,-0.0013744467869400978,0.0007635815418325365,0.0010690141934901476
1761230512684396800,7.881396728515625,-0.0003054326225537807,0.0003054326225537807,0.0009162978967651725
1761230512701185500,7.898185546875,-0.0003054326225537807,0.001527163083665073,0.00015271631127689034
1761230512717974500,7.914974609375,-0.0013744467869400978,0.00045814894838258624,0.0010690141934901476
1761230512734760400,7.931760498046875,-0.0010690141934901476,0.001527163083665073,0.0010690141934901476
1761230512751556600,7.948556640625,-0.00045814894838258624,0.0013744467869400978,0.0010690141934901476
1761230512768342000,7.965342041015625,-0.0007635815418325365,0.0012217304902151227,0.0009162978967651725
1761230512785112600,7.982112548828125,-0.00015271631127689034,0.0006108652451075613,0.001679879380390048
1761230512801906400,7.998906494140625,-0.0012217304902151227,0.0012217304902151227,0.0012217304902151227
1761230512818695400,8.0156953125,-0.0012217304902151227,0.0010690141934901476,0.0006108652451075613
1761230512835484200,8.032484130859375,-0.0003054326225537807,0.0007635815418325365,0
1761230512852273200,8.049273193359374,-0.0013744467869400978,0.00045814894838258624,0
1761230512869063000,8.06606298828125,-0.0012217304902151227,0.0012217304902151227,0.0009162978967651725
1761230512885867800,8.08286767578125,-0.0009162978967651725,0.001527163083665073,0.0006108652451075613
1761230512902655200,8.0996552734375,-0.0013744467869400978,0.00045814894838258624,0.0010690141934901476
1761230512919463200,8.116463134765626,-0.0013744467869400978,0.0010690141934901476,-0.00015271631127689034
1761230512936231000,8.13323095703125,-0.0009162978967651725,0.00045814894838258624,0
1761230512953026300,8.1500263671875,-0.0013744467869400978,0.0006108652451075613,0.0012217304902151227
1761230512969810700,8.166810791015624,-0.0010690141934901476,0.0010690141934901476,0.0003054326225537807
1761230512986600400,8.183600341796875,-0.0012217304902151227,0.0006108652451075613,0.0003054326225537807
1761230513003389000,8.200388916015624,-0.0013744467869400978,0.0010690141934901476,0.0010690141934901476
1761230513020177700,8.217177734375,-0.0006108652451075613,0.0006108652451075613,0.0007635815418325365
1761230513036967200,8.23396728515625,-0.0006108652451075613,0.001527163083665073,0.0003054326225537807
1761230513053750800,8.250750732421874,-0.00045814894838258624,0.0010690141934901476,0.0009162978967651725
1761230513070531300,8.26753125,-0.0013744467869400978,0.0007635815418325365,0.0010690141934901476
1761230513087320300,8.2843203125,-0.0010690141934901476,0.0010690141934901476,0.001679879380390048
1761230513104097800,8.301097900390625,-0.00015271631127689034,0.0013744467869400978,0.00015271631127689034
1761230513120899600,8.317899658203125,-0.00015271631127689034,0.0013744467869400978,0.0013744467869400978
1761230513137684200,8.334684326171875,-0.0006108652451075613,0.001527163083665073,0.0003054326225537807
1761230513154483000,8.35148291015625,-0.0013744467869400978,0.0006108652451075613,0.00015271631127689034
1761230513171278000,8.368278076171874,-0.0010690141934901476,0.0003054326225537807,0.00015271631127689034
1761230513188067800,8.38506787109375,-0.0010690141934901476,0.0010690141934901476,0.0019853119738399982
1761230513204860400,8.4018603515625,-0.00015271631127689034,0.001527163083665073,0.001527163083665073
1761230513221646600,8.418646484375,-0.0010690141934901476,0.002138028386980295,0.0010690141934901476
1761230513238425000,8.435425048828124,-0.0006108652451075613,0.001527163083665073,0.0010690141934901476
1761230513255225600,8.4522255859375,-0.0006108652451075613,0.0013744467869400978,0.0003054326225537807
1761230513271996700,8.46899658203125,-0.0012217304902151227,0.001527163083665073,0.0003054326225537807
1761230513288789200,8.485789306640624,-0.00045814894838258624,0.0012217304902151227,0.0007635815418325365
1761230513305578200,8.502578125,-0.0003054326225537807,0.0009162978967651725,0.0010690141934901476
1761230513322367500,8.519367431640624,-0.00045814894838258624,0.0012217304902151227,0.0009162978967651725
1761230513339156500,8.536156494140625,-0.00015271631127689034,0.001679879380390048,0.0010690141934901476
1761230513355945500,8.552945556640625,-0.0006108652451075613,-0.0003054326225537807,0.0013744467869400978
1761230513372749800,8.569749755859375,-0.0003054326225537807,0.00045814894838258624,0.0012217304902151227
1761230513389522700,8.586522705078124,-0.00045814894838258624,0.001679879380390048,0.0006108652451075613
1761230513406324500,8.603324462890624,-0.0006108652451075613,0.0019853119738399982,0.0010690141934901476
1761230513423115000,8.620114990234375,-0.0010690141934901476,-0.00045814894838258624,0.0007635815418325365
1761230513439900700,8.636900634765626,-0.0013744467869400978,0.0003054326225537807,0.0007635815418325365
1761230513456682800,8.653682861328125,-0.0012217304902151227,0.00045814894838258624,0.0006108652451075613
1761230513473483300,8.670483154296875,-0.00015271631127689034,0.0007635815418325365,0.0003054326225537807
1761230513490254800,8.6872548828125,-0.00015271631127689034,0.00045814894838258624,0.002138028386980295
1761230513507061200,8.704061279296875,-0.0006108652451075613,0.0006108652451075613,0.00045814894838258624
1761230513523850000,8.72085009765625,-0.0009162978967651725,-0.00045814894838258624,0.0012217304902151227
1761230513540624000,8.737623779296875,-0.0010690141934901476,0.001679879380390048,0.0010690141934901476
1761230513557409500,8.754409423828125,-0.0019853119738399982,0.0003054326225537807,-0.00015271631127689034
1761230513574204200,8.7712041015625,-0.0003054326225537807,0.0012217304902151227,0.0009162978967651725
1761230513590992400,8.787992431640625,-0.0003054326225537807,0.0013744467869400978,-0.00045814894838258624
1761230513607781400,8.804781494140625,-0.0009162978967651725,0.0003054326225537807,0.0003054326225537807
1761230513624570400,8.8215703125,-0.0012217304902151227,0.0012217304902151227,0.0007635815418325365
1761230513641359600,8.838359619140626,-0.00015271631127689034,0.0012217304902151227,0.0013744467869400978
1761230513658165500,8.85516552734375,-0.00015271631127689034,0.00045814894838258624,0.0013744467869400978
1761230513674951200,8.871951171875,-0.0003054326225537807,0.0012217304902151227,0
1761230513691739400,8.888739501953125,-0.0009162978967651725,0.0003054326225537807,0.0003054326225537807
1761230513708529400,8.905529296875,-0.0006108652451075613,0.0012217304902151227,0.0012217304902151227
1761230513725319000,8.92231884765625,-0.0006108652451075613,0.0013744467869400978,0.0007635815418325365
1761230513742107400,8.939107421875,-0.0013744467869400978,0.0013744467869400978,0.0006108652451075613
1761230513758880000,8.9558798828125,-0.0009162978967651725,0.0007635815418325365,0.0010690141934901476
1761230513775653000,8.972653076171875,-0.00045814894838258624,0.0019853119738399982,0.0007635815418325365
1761230513792461000,8.9894609375,-0.00045814894838258624,0.0013744467869400978,0.0006108652451075613
1761230513809247000,9.0062470703125,-0.0013744467869400978,0.0006108652451075613,0.0013744467869400978
1761230513826049300,9.02304931640625,-0.0010690141934901476,0.0013744467869400978,0.0009162978967651725
1761230513842828300,9.039828369140626,-0.0006108652451075613,0.0003054326225537807,0.0007635815418325365
1761230513859634700,9.056634765625,-0.00045814894838258624,0.0010690141934901476,0.0003054326225537807
1761230513876418300,9.073418212890624,-0.0012217304902151227,0.0003054326225537807,0.0007635815418325365
1761230513893193200,9.090193115234374,-0.00015271631127689034,0.001527163083665073,0.0003054326225537807
1761230513910022700,9.107022705078125,-0.0012217304902151227,0.001527163083665073,0.0009162978967651725
1761230513926787800,9.123787841796876,-0.0013744467869400978,0.0007635815418325365,0.0009162978967651725
1761230513943574800,9.14057470703125,-0.0003054326225537807,0,0
1761230513960365300,9.157365234375,-0.0003054326225537807,0,0.0007635815418325365
1761230513977155000,9.174155029296875,-0.0003054326225537807,0.0012217304902151227,-0.00045814894838258624
1761230513993943800,9.19094384765625,-0.00045814894838258624,0.0006108652451075613,0.0012217304902151227
1761230514010731500,9.2077314453125,-0.0009162978967651725,0.001527163083665073,0.0006108652451075613
1761230514027521500,9.224521484375,-0.0003054326225537807,0.0009162978967651725,0.0003054326225537807
1761230514044309000,9.24130908203125,-0.0006108652451075613,0.0012217304902151227,0.0012217304902151227
1761230514061081000,9.2580810546875,-0.0010690141934901476,0.0012217304902151227,0.0013744467869400978
1761230514077878800,9.274878662109375,-0.0012217304902151227,0.0007635815418325365,0.0009162978967651725
1761230514094664400,9.29166455078125,-0.0003054326225537807,0.00045814894838258624,0.002138028386980295
1761230514111453400,9.308453369140626,-0.00015271631127689034,0.0003054326225537807,0.0010690141934901476
1761230514128242400,9.325242431640625,-0.0013744467869400978,0.0007635815418325365,0.0009162978967651725
1761230514145032000,9.342031982421876,-0.0003054326225537807,0.0009162978967651725,0.0010690141934901476
1761230514161837000,9.358837158203125,-0.0010690141934901476,0.00045814894838258624,0.0007635815418325365
1761230514178623000,9.375623046875,-0.0013744467869400978,0.0006108652451075613,0.0010690141934901476
1761230514195402800,9.39240283203125,-0.0013744467869400978,0.0006108652451075613,0.0013744467869400978
1761230514212210200,9.409210205078125,-0.0006108652451075613,0.0003054326225537807,0.0010690141934901476
1761230514228990200,9.425990234375,-0.0009162978967651725,0.00045814894838258624,0.0007635815418325365
1761230514245760300,9.44276025390625,-0.00015271631127689034,0.0003054326225537807,-0.00015271631127689034
1761230514262559000,9.45955908203125,-0.0013744467869400978,0.00045814894838258624,-0.00015271631127689034
1761230514279342300,9.47634228515625,-0.0013744467869400978,0.0009162978967651725,-0.00015271631127689034
1761230514296133000,9.493133056640625,-0.0010690141934901476,0.0006108652451075613,0.00015271631127689034
1761230514312921900,9.509921875,-0.0013744467869400978,0.0006108652451075613,-0.00015271631127689034
1761230514329708300,9.526708251953124,-0.0009162978967651725,0.00045814894838258624,0.0009162978967651725
1761230514346520300,9.543520263671875,-0.0009162978967651725,0.0003054326225537807,0.0009162978967651725
1761230514363283200,9.560283203125,-0.0003054326225537807,0.0003054326225537807,0
1761230514380092000,9.577091796875,-0.0006108652451075613,0.0003054326225537807,0.00045814894838258624
1761230514396875000,9.593875,-0.0009162978967651725,0,0
1761230514413677600,9.610677490234375,-0.0010690141934901476,0.0013744467869400978,0.0009162978967651725
1761230514430459400,9.62745947265625,-0.00015271631127689034,0.001527163083665073,0
1761230514447249000,9.644248779296875,-0.0006108652451075613,0.001527163083665073,0.0003054326225537807
1761230514464037600,9.66103759765625,-0.0009162978967651725,0.0003054326225537807,0.0012217304902151227
1761230514480830700,9.677830810546874,-0.00045814894838258624,0,0.0009162978967651725
1761230514497615600,9.69461572265625,-0.00015271631127689034,0.0013744467869400978,0.0009162978967651725
1761230514514399500,9.7113994140625,-0.0003054326225537807,0.0006108652451075613,0.0010690141934901476
1761230514531177000,9.728177001953124,-0.0012217304902151227,0.0012217304902151227,0.0007635815418325365
1761230514547953700,9.74495361328125,-0.0009162978967651725,0.0006108652451075613,0.0006108652451075613
1761230514564761900,9.761761962890626,-0.0006108652451075613,0.0010690141934901476,0.0009162978967651725
1761230514581547000,9.778547119140624,-0.00045814894838258624,0.0003054326225537807,0.0007635815418325365
1761230514598336300,9.795336181640625,-0.00015271631127689034,0.0012217304902151227,0.0010690141934901476
1761230514615125200,9.812125244140624,-0.00045814894838258624,0.00045814894838258624,0.0010690141934901476
1761230514631914200,9.828914306640625,-0.0006108652451075613,0,0.0010690141934901476
1761230514648721400,9.845721435546874,-0.0010690141934901476,0.001527163083665073,0.0010690141934901476
1761230514665505300,9.86250537109375,-0.0006108652451075613,0.0010690141934901476,0.0009162978967651725
1761230514682278400,9.8792783203125,-0.0003054326225537807,0.0003054326225537807,0.00015271631127689034
1761230514699080400,9.89608056640625,-0.0013744467869400978,0.0007635815418325365,0
1761230514715873500,9.91287353515625,-0.0009162978967651725,0.0013744467869400978,0.0007635815418325365
1761230514732649500,9.9296494140625,-0.0006108652451075613,0.0012217304902151227,0.0007635815418325365
1761230514749437700,9.946437744140624,-0.0012217304902151227,0.0006108652451075613,0.0010690141934901476
1761230514766213600,9.963213623046874,-0.0003054326225537807,-0.00015271631127689034,0.0009162978967651725
1761230514783016000,9.980015869140624,-0.00045814894838258624,0.0003054326225537807,0.0012217304902151227
1761230514799803100,9.99680322265625,-0.00015271631127689034,-0.00045814894838258624,0.0003054326225537807
1761230514816595700,10.013595703125,-0.0006108652451075613,0,0.0007635815418325365
1761230514833416000,10.030416015625,-0.0006108652451075613,0.0007635815418325365,0.0007635815418325365
1761230514850185200,10.047185302734375,-0.0003054326225537807,0.0003054326225537807,0.0009162978967651725
1761230514866971100,10.06397119140625,-0.0003054326225537807,0.0010690141934901476,0.0009162978967651725
1761230514883751400,10.08075146484375,-0.0007635815418325365,0.001527163083665073,0.0006108652451075613
1761230514900536300,10.097536376953125,-0.0013744467869400978,0,0.0007635815418325365
1761230514917342200,10.11434228515625,-0.0012217304902151227,0.0012217304902151227,0
1761230514934130000,10.1311298828125,-0.0009162978967651725,0.0007635815418325365,0.00015271631127689034
1761230514950919200,10.147919189453125,-0.00045814894838258624,0.0012217304902151227,0.0003054326225537807
1761230514967708400,10.16470849609375,-0.0013744467869400978,0.001527163083665073,0
1761230514984482300,10.181482421875,-0.0010690141934901476,0.0013744467869400978,0.00015271631127689034
1761230515001283600,10.19828369140625,-0.0009162978967651725,0.0006108652451075613,0.00015271631127689034
1761230515018077400,10.215077392578126,-0.0010690141934901476,0.001679879380390048,0.0012217304902151227
1761230515034852000,10.23185205078125,-0.0012217304902151227,-0.0006108652451075613,0.0003054326225537807
1761230515051637500,10.248637451171875,-0.0006108652451075613,0.00045814894838258624,0.0003054326225537807
1761230515068430000,10.26543017578125,-0.00045814894838258624,0.0010690141934901476,0.0009162978967651725
1761230515085219000,10.282218994140624,-0.0009162978967651725,0.0009162978967651725,0.0009162978967651725
1761230515102008000,10.299008056640625,-0.0010690141934901476,0.0013744467869400978,0.0007635815418325365
1761230515118797000,10.315797119140624,-0.0003054326225537807,0.0013744467869400978,0.001832595793530345
1761230515135586300,10.33258642578125,-0.00045814894838258624,0.001527163083665073,0
1761230515152392200,10.34939208984375,-0.0012217304902151227,0.0006108652451075613,-0.00015271631127689034
1761230515169174500,10.366174560546876,-0.0006108652451075613,0.0013744467869400978,0
1761230515185970700,10.382970703125,-0.0003054326225537807,-0.00045814894838258624,0.0012217304902151227
1761230515202739700,10.39973974609375,-0.0003054326225537807,0.0009162978967651725,0.0012217304902151227
1761230515227930000,10.42493017578125,-0.0009162978967651725,0.0006108652451075613,0
1761230515244712200,10.441712158203124,-0.00015271631127689034,0.0013744467869400978,0
1761230515261502500,10.45850244140625,-0.0009162978967651725,0.0007635815418325365,0.0012217304902151227
1761230515278298000,10.475298095703126,-0.0003054326225537807,0.00045814894838258624,0.0013744467869400978
1761230515295088000,10.492088134765625,-0.0010690141934901476,0.0003054326225537807,0.00015271631127689034
1761230515311871500,10.50887158203125,-0.0012217304902151227,0.001527163083665073,0.0007635815418325365
1761230515328673300,10.52567333984375,-0.0012217304902151227,0.0013744467869400978,0.0010690141934901476
1761230515345465600,10.542465576171875,-0.00045814894838258624,0.0003054326225537807,-0.00015271631127689034
1761230515362253800,10.55925390625,-0.00015271631127689034,0.00045814894838258624,0.0007635815418325365
1761230515379041500,10.57604150390625,-0.0013744467869400978,0.00045814894838258624,0.00015271631127689034
1761230515395825400,10.592825439453126,-0.0010690141934901476,0.0010690141934901476,0.0003054326225537807
1761230515412624100,10.6096240234375,-0.0009162978967651725,0.0013744467869400978,0.0007635815418325365
1761230515429410000,10.62641015625,-0.0013744467869400978,0.0003054326225537807,0.00015271631127689034
1761230515446197800,10.64319775390625,-0.0003054326225537807,0.0007635815418325365,0.0010690141934901476
1761230515462991000,10.6599912109375,-0.0013744467869400978,0.0006108652451075613,0.0007635815418325365
1761230515479763500,10.676763427734375,-0.00015271631127689034,0.0006108652451075613,0.0012217304902151227
1761230515496571600,10.693571533203125,-0.00045814894838258624,0.0007635815418325365,0.0006108652451075613
1761230515513354200,10.710354248046874,-0.0003054326225537807,0.0010690141934901476,0.0007635815418325365
1761230515530142500,10.727142578125,-0.0012217304902151227,-0.0003054326225537807,0.0009162978967651725
1761230515546911700,10.743911865234375,-0.00045814894838258624,0.0003054326225537807,0.0009162978967651725
1761230515563712000,10.7607119140625,-0.0012217304902151227,0.0006108652451075613,0.0007635815418325365
1761230515580496600,10.77749658203125,-0.0012217304902151227,0.0010690141934901476,0.0003054326225537807
1761230515597272300,10.794272216796875,-0.0013744467869400978,0.001679879380390048,0.0013744467869400978
1761230515614076200,10.811076171875,-0.0013744467869400978,0.0007635815418325365,0.0006108652451075613
1761230515630864400,10.827864501953124,-0.00015271631127689034,0.001527163083665073,0.001679879380390048
1761230515647661000,10.8446611328125,-0.00045814894838258624,0.0006108652451075613,0.0013744467869400978
1761230515664453600,10.86145361328125,-0.0003054326225537807,0.0010690141934901476,0.001832595793530345
1761230515681244400,10.878244384765624,-0.0006108652451075613,0.0003054326225537807,0.0012217304902151227
1761230515698032400,10.895032470703125,-0.00045814894838258624,-0.00045814894838258624,0.0010690141934901476
1761230515714807600,10.9118076171875,-0.0003054326225537807,0.00045814894838258624,0.0010690141934901476
1761230515731597300,10.928597412109376,-0.0003054326225537807,-0.0003054326225537807,0.00015271631127689034
1761230515748387600,10.9453876953125,-0.00045814894838258624,0.0010690141934901476,0.0007635815418325365
1761230515765176800,10.9621767578125,-0.0012217304902151227,0.0007635815418325365,0.0012217304902151227
1761230515781965300,10.97896533203125,-0.0010690141934901476,0.0006108652451075613,0.0006108652451075613
1761230515798755800,10.995755859375,-0.0010690141934901476,0.00045814894838258624,0.00015271631127689034
1761230515815557400,11.012557373046874,-0.0012217304902151227,0.0003054326225537807,0.0010690141934901476
1761230515832356600,11.029356689453126,-0.0013744467869400978,0.0010690141934901476,0.0010690141934901476
1761230515849119700,11.04611962890625,-0.0012217304902151227,0.0010690141934901476,0.0006108652451075613
1761230515865923800,11.062923828125,-0.0013744467869400978,0.0003054326225537807,0
1761230515882713000,11.079713134765624,-0.00015271631127689034,0.0006108652451075613,0.0010690141934901476
1761230515899492000,11.0964921875,-0.0013744467869400978,0.0013744467869400978,0
1761230515916291300,11.113291259765624,-0.0013744467869400978,0.0010690141934901476,0.001679879380390048
1761230515933074400,11.130074462890626,-0.0010690141934901476,0.0010690141934901476,0.00015271631127689034
1761230515949871600,11.14687158203125,-0.0009162978967651725,0.00045814894838258624,0.0003054326225537807
1761230515966661000,11.1636611328125,-0.0012217304902151227,0.0012217304902151227,0.0006108652451075613
1761230515983434500,11.1804345703125,-0.0012217304902151227,0.0003054326225537807,0.0010690141934901476
1761230516000236800,11.19723681640625,-0.0006108652451075613,0.0013744467869400978,0.0006108652451075613
1761230516017025800,11.21402587890625,-0.00015271631127689034,-0.0003054326225537807,0.0009162978967651725
1761230516033795600,11.230795654296875,-0.00015271631127689034,0.0013744467869400978,0.0006108652451075613
1761230516050593300,11.24759326171875,-0.00045814894838258624,0.001527163083665073,0.0012217304902151227
1761230516067366100,11.2643662109375,-0.0003054326225537807,0.0007635815418325365,0.001679879380390048
1761230516084169000,11.2811689453125,-0.0006108652451075613,0.00015271631127689034,0.0010690141934901476
1761230516100962600,11.297962646484375,-0.0013744467869400978,0.0010690141934901476,0.0010690141934901476
1761230516117748700,11.314748779296876,-0.0009162978967651725,0.0013744467869400978,-0.00015271631127689034
1761230516134535400,11.331535400390624,-0.0010690141934901476,0.00045814894838258624,0.0009162978967651725
1761230516151338500,11.34833837890625,-0.00015271631127689034,0.0010690141934901476,0
1761230516168124000,11.3651240234375,-0.00045814894838258624,0.0003054326225537807,0.0012217304902151227
1761230516184917800,11.381917724609375,-0.0003054326225537807,0.001527163083665073,0.00015271631127689034
1761230516201691400,11.39869140625,-0.0006108652451075613,0.001527163083665073,-0.00015271631127689034
1761230516218481200,11.415481201171875,-0.00015271631127689034,0.0003054326225537807,0.0006108652451075613
1761230516235270400,11.4322705078125,-0.0009162978967651725,0.00045814894838258624,0.0003054326225537807
1761230516252059100,11.44905908203125,-0.0009162978967651725,0.0003054326225537807,-0.0007635815418325365
1761230516268847600,11.46584765625,-0.0013744467869400978,0.001679879380390048,0.0010690141934901476
1761230516285636600,11.48263671875,-0.0009162978967651725,0.0007635815418325365,0.0003054326225537807
1761230516302444500,11.499444580078125,-0.0012217304902151227,0.0010690141934901476,0.0010690141934901476
1761230516319225300,11.516225341796876,-0.0010690141934901476,0.0003054326225537807,0.0007635815418325365
1761230516336021800,11.533021728515624,-0.0012217304902151227,0.00045814894838258624,0.0007635815418325365
1761230516352821200,11.5498212890625,-0.0006108652451075613,0.0012217304902151227,0.0010690141934901476
1761230516369596400,11.566596435546876,-0.00015271631127689034,0.0006108652451075613,0.0003054326225537807
1761230516386366200,11.5833662109375,-0.00045814894838258624,0.00045814894838258624,0.0010690141934901476
1761230516403162600,11.60016259765625,-0.0012217304902151227,0.0007635815418325365,0
1761230516419964000,11.6169638671875,-0.0003054326225537807,0.00045814894838258624,0.0003054326225537807
1761230516436751000,11.633751220703125,-0.0003054326225537807,0.0012217304902151227,0
1761230516453561300,11.650561279296875,-0.0009162978967651725,0.00045814894838258624,0.0006108652451075613
1761230516470318600,11.667318603515625,-0.00045814894838258624,0.0006108652451075613,0.00015271631127689034
1761230516487119400,11.684119384765625,-0.00045814894838258624,0.0003054326225537807,0.0009162978967651725
1761230516503911700,11.70091162109375,-0.0012217304902151227,0.0003054326225537807,-0.00015271631127689034
1761230516520665600,11.71766552734375,-0.0003054326225537807,0.0007635815418325365,0.0006108652451075613
1761230516537456000,11.7344560546875,-0.0009162978967651725,0.0013744467869400978,0.0013744467869400978
1761230516554262300,11.75126220703125,-0.0009162978967651725,0.0006108652451075613,0.00015271631127689034
1761230516571048700,11.768048583984376,-0.00015271631127689034,0.0003054326225537807,0.00015271631127689034
1761230516587847200,11.78484716796875,-0.0006108652451075613,0.0003054326225537807,0.0007635815418325365
1761230516604613400,11.80161328125,-0.0012217304902151227,0.0013744467869400978,0.0010690141934901476
1761230516621418200,11.818418212890625,-0.0003054326225537807,0.0003054326225537807,-0.00015271631127689034
1761230516638225700,11.8352255859375,-0.0010690141934901476,0.001527163083665073,-0.00045814894838258624
1761230516655010600,11.852010498046875,-0.0003054326225537807,0.00045814894838258624,0.0006108652451075613
1761230516671795200,11.868795166015625,-0.0009162978967651725,0.00045814894838258624,0.0010690141934901476
1761230516688569000,11.885569091796874,-0.0009162978967651725,0,0.001679879380390048
1761230516705364500,11.902364501953125,-0.00015271631127689034,0.0007635815418325365,0.0003054326225537807
1761230516722152700,11.919152587890625,-0.0003054326225537807,0.0013744467869400978,0.0010690141934901476
1761230516738941400,11.93594140625,-0.0012217304902151227,0.0010690141934901476,0.0003054326225537807
1761230516755720200,11.95272021484375,-0.0013744467869400978,0.0006108652451075613,0.0009162978967651725
1761230516772524000,11.96952392578125,-0.0006108652451075613,0.0003054326225537807,0.0010690141934901476
1761230516789320400,11.986320556640624,-0.0013744467869400978,0.001527163083665073,0.0007635815418325365
1761230516806114000,12.003114013671874,-0.00045814894838258624,0.00045814894838258624,0.0003054326225537807
1761230516822895400,12.019895263671875,-0.0003054326225537807,0.001832595793530345,0.0010690141934901476
1761230516839694800,12.03669482421875,-0.0006108652451075613,0.0007635815418325365,-0.00015271631127689034
1761230516856447000,12.053447021484375,-0.00045814894838258624,0.0010690141934901476,0.0010690141934901476
1761230516873272300,12.070272216796875,-0.0013744467869400978,0.001527163083665073,-0.0003054326225537807
1761230516890055200,12.08705517578125,-0.0013744467869400978,0.0010690141934901476,0.0010690141934901476
1761230516906820400,12.1038203125,-0.00015271631127689034,0.0007635815418325365,0
1761230516923631400,12.12063134765625,-0.00015271631127689034,-0.00015271631127689034,0.0003054326225537807
1761230516940427500,12.137427490234375,-0.0010690141934901476,0.001527163083665073,0.00045814894838258624
1761230516957213700,12.154213623046875,-0.0010690141934901476,0.0010690141934901476,0.0013744467869400978
1761230516973998800,12.170998779296875,-0.0006108652451075613,0.001527163083665073,0.0006108652451075613
1761230516990796500,12.187796630859374,-0.0012217304902151227,0.0010690141934901476,-0.00015271631127689034
1761230517007580200,12.204580078125,-0.0013744467869400978,0.0006108652451075613,0
1761230517024353000,12.22135302734375,-0.001832595793530345,-0.00015271631127689034,0.0007635815418325365
1761230517041146000,12.23814599609375,-0.0003054326225537807,0.0003054326225537807,0.001832595793530345
1761230517057933600,12.25493359375,-0.0013744467869400978,0.0007635815418325365,0.0007635815418325365
1761230517074721000,12.271720947265624,-0.0003054326225537807,0.0010690141934901476,0.0010690141934901476
1761230517091509500,12.288509521484375,-0.0013744467869400978,0.00045814894838258624,0.0007635815418325365
1761230517108303000,12.30530322265625,-0.0009162978967651725,0.00045814894838258624,0
1761230517125108700,12.322108642578126,-0.0013744467869400978,0.001527163083665073,0
1761230517141890800,12.338890869140625,-0.0013744467869400978,0.0012217304902151227,0.0009162978967651725
1761230517158679000,12.355678955078124,-0.0010690141934901476,0.0010690141934901476,0.0006108652451075613
1761230517175457800,12.372457763671875,-0.0013744467869400978,0.0006108652451075613,0.0003054326225537807
1761230517192246500,12.38924658203125,-0.0003054326225537807,0.001832595793530345,0.001832595793530345
1761230517209033500,12.406033447265624,-0.0009162978967651725,0.001527163083665073,0
1761230517225824800,12.42282470703125,-0.0013744467869400978,0.00015271631127689034,0.0010690141934901476
1761230517242614300,12.4396142578125,-0.00015271631127689034,0.00045814894838258624,0.0007635815418325365
1761230517259406300,12.45640625,-0.00045814894838258624,0.00045814894838258624,0.0007635815418325365
1761230517276205300,12.473205322265626,-0.0013744467869400978,0.0007635815418325365,0
1761230517292990700,12.48999072265625,-0.0010690141934901476,0.0006108652451075613,0.0010690141934901476
1761230517309788400,12.506788330078125,-0.0012217304902151227,0.0013744467869400978,0.0007635815418325365
1761230517326572800,12.52357275390625,-0.0006108652451075613,0.002138028386980295,0.0009162978967651725
1761230517343359700,12.54035986328125,-0.00015271631127689034,0.0010690141934901476,-0.00015271631127689034
1761230517360150500,12.557150634765625,-0.0003054326225537807,0.001527163083665073,0
1761230517376940800,12.57394091796875,-0.0006108652451075613,0.0010690141934901476,0
1761230517393744400,12.590744384765625,-0.001679879380390048,0,0.00045814894838258624
1761230517410517800,12.607517822265624,-0.0006108652451075613,0.00045814894838258624,0.00015271631127689034
1761230517427307300,12.624307373046875,-0.0006108652451075613,0.001527163083665073,0.00015271631127689034
1761230517444101400,12.641101318359375,-0.0006108652451075613,0.0012217304902151227,0.0010690141934901476
1761230517460883500,12.657883544921875,-0.0006108652451075613,0.0006108652451075613,0.0010690141934901476
1761230517477674000,12.674674072265624,-0.00045814894838258624,0.0010690141934901476,0.0012217304902151227
1761230517494453000,12.691452880859375,-0.0013744467869400978,0.001527163083665073,0.0010690141934901476
1761230517511253000,12.7082529296875,-0.0010690141934901476,0.0013744467869400978,0.0010690141934901476
1761230517528023000,12.72502294921875,-0.0009162978967651725,0.002138028386980295,0.0010690141934901476
1761230517544816000,12.741816162109375,-0.0010690141934901476,0.00045814894838258624,0.0010690141934901476
1761230517561606000,12.75860595703125,-0.00045814894838258624,0.0013744467869400978,0.0006108652451075613
1761230517578395400,12.7753955078125,-0.00015271631127689034,0.0007635815418325365,0
1761230517595183900,12.792183837890626,-0.0010690141934901476,0.001527163083665073,0.0009162978967651725
1761230517611974700,12.808974609375,-0.00015271631127689034,0.0009162978967651725,0.0009162978967651725
1761230517628789500,12.82578955078125,-0.0013744467869400978,0.00045814894838258624,-0.00015271631127689034
1761230517645563100,12.842563232421876,-0.0009162978967651725,0.0006108652451075613,0
1761230517662340000,12.859340087890626,-0.0012217304902151227,0.0007635815418325365,0.0010690141934901476
1761230517679125000,12.876125,-0.0009162978967651725,0.001527163083665073,0.0006108652451075613
1761230517695906300,12.89290625,-0.00015271631127689034,0.001527163083665073,0.0003054326225537807
1761230517712708600,12.90970849609375,-0.0012217304902151227,0.00015271631127689034,-0.00015271631127689034
1761230517729495600,12.92649560546875,-0.0012217304902151227,0.001527163083665073,0.0006108652451075613
1761230517746276000,12.943276123046875,-0.0003054326225537807,0.0007635815418325365,0.0013744467869400978
1761230517763072500,12.960072509765626,-0.0009162978967651725,0.00045814894838258624,0.0009162978967651725
1761230517779876900,12.976876953125,-0.00045814894838258624,0.0012217304902151227,0.00015271631127689034
1761230517796670200,12.993670166015624,-0.0010690141934901476,0.001832595793530345,0.00015271631127689034
1761230517813455400,13.010455322265624,-0.0009162978967651725,0.0010690141934901476,0.0003054326225537807
1761230517830244400,13.027244384765625,-0.00045814894838258624,0.0012217304902151227,0.00015271631127689034
1761230517847028200,13.0440283203125,-0.0009162978967651725,0.0006108652451075613,0.0009162978967651725
1761230517863823000,13.060822998046875,-0.0013744467869400978,0.0003054326225537807,0.00015271631127689034
1761230517880615400,13.077615478515625,-0.00015271631127689034,0.0009162978967651725,0
1761230517897384200,13.09438427734375,-0.0006108652451075613,0.0013744467869400978,0.0010690141934901476
1761230517914188800,13.111188720703124,-0.0013744467869400978,0.0010690141934901476,0.0006108652451075613
1761230517930974700,13.127974609375,-0.0010690141934901476,0.0010690141934901476,0
1761230517947771600,13.144771728515625,-0.0013744467869400978,0.001527163083665073,0.0003054326225537807
1761230517964557300,13.161557373046875,-0.00045814894838258624,0.0010690141934901476,0.0009162978967651725
1761230517981344500,13.178344482421876,-0.0003054326225537807,0,0.001832595793530345
1761230517998115000,13.195114990234375,-0.0013744467869400978,0.0009162978967651725,-0.00045814894838258624
1761230518014897200,13.211897216796874,-0.0012217304902151227,0.001679879380390048,0.0007635815418325365
1761230518031699000,13.228698974609374,-0.0003054326225537807,0.0010690141934901476,0.0003054326225537807
1761230518048489500,13.245489501953125,-0.0012217304902151227,0.0006108652451075613,0.0007635815418325365
1761230518065278000,13.26227783203125,-0.0010690141934901476,0.0003054326225537807,0.0007635815418325365
1761230518082060000,13.27906005859375,-0.0012217304902151227,0.0003054326225537807,-0.00015271631127689034
1761230518098854700,13.295854736328126,-0.00045814894838258624,0.0006108652451075613,0.0007635815418325365
1761230518115662300,13.312662353515625,-0.00045814894838258624,0.0012217304902151227,0.0009162978967651725
1761230518132444200,13.329444091796875,-0.0012217304902151227,0.0006108652451075613,0.001527163083665073
1761230518149222400,13.346222412109375,-0.001679879380390048,0.0006108652451075613,0.0007635815418325365
1761230518166010600,13.3630107421875,-0.0013744467869400978,0.0012217304902151227,0.0007635815418325365
1761230518182801000,13.37980078125,-0.00045814894838258624,0.0012217304902151227,0.0003054326225537807
1761230518199590400,13.39659033203125,-0.0009162978967651725,0.0006108652451075613,0.0006108652451075613
1761230518216374500,13.41337451171875,-0.0009162978967651725,0.001527163083665073,0
1761230518233168000,13.43016796875,-0.0012217304902151227,0.00045814894838258624,0.00045814894838258624
1761230518249971500,13.446971435546875,-0.00015271631127689034,0.001527163083665073,0.0006108652451075613
1761230518266770700,13.463770751953126,-0.0003054326225537807,0.001527163083665073,0.0010690141934901476
1761230518283544600,13.480544677734375,-0.0009162978967651725,0.0006108652451075613,0.0007635815418325365
1761230518300322000,13.497322021484376,-0.0003054326225537807,0,0.0006108652451075613
1761230518317130500,13.514130615234375,-0.0010690141934901476,0.0007635815418325365,0.00015271631127689034
1761230518333913900,13.530913818359375,-0.0010690141934901476,0.0019853119738399982,0.0006108652451075613
1761230518350677500,13.547677490234374,-0.0012217304902151227,0.0006108652451075613,0.0009162978967651725
1761230518367495400,13.564495361328126,-0.0010690141934901476,0.0007635815418325365,0.0007635815418325365
1761230518384284400,13.581284423828125,-0.0006108652451075613,0.0010690141934901476,0.0006108652451075613
1761230518401072600,13.59807275390625,-0.00015271631127689034,0.001527163083665073,0.0009162978967651725
1761230518417844000,13.614843994140625,-0.0009162978967651725,0.001527163083665073,0.0012217304902151227
1761230518434651000,13.63165087890625,-0.0009162978967651725,0.0009162978967651725,0.0003054326225537807
1761230518451437300,13.648437255859376,-0.0010690141934901476,0.0010690141934901476,0.0003054326225537807
1761230518468224800,13.665224853515625,-0.0006108652451075613,0.0010690141934901476,0.001527163083665073
1761230518485015800,13.682015869140624,-0.0010690141934901476,0.0010690141934901476,0.00015271631127689034
1761230518501802800,13.698802734375,-0.0006108652451075613,0.0006108652451075613,0.0006108652451075613
1761230518518583000,13.7155830078125,-0.0003054326225537807,-0.0003054326225537807,0.001527163083665073
1761230518535371300,13.732371337890624,-0.00045814894838258624,0.0003054326225537807,-0.0003054326225537807
1761230518552155600,13.74915576171875,-0.0013744467869400978,0.001832595793530345,0.0006108652451075613
1761230518568953900,13.765953857421875,-0.00015271631127689034,0.001527163083665073,0.00015271631127689034
1761230518585739000,13.782739013671875,-0.0013744467869400978,0.00045814894838258624,0.0007635815418325365
1761230518602527500,13.799527587890625,-0.0003054326225537807,0.00045814894838258624,0.0003054326225537807
1761230518619328000,13.816327880859374,-0.0003054326225537807,-0.00045814894838258624,0
1761230518636119600,13.83311962890625,-0.0012217304902151227,0.00045814894838258624,0.0010690141934901476
1761230518652895000,13.84989501953125,-0.0010690141934901476,-0.0003054326225537807,0.0010690141934901476
1761230518669683700,13.86668359375,-0.0003054326225537807,0.0010690141934901476,0.0012217304902151227
1761230518686472200,13.88347216796875,-0.0009162978967651725,0.00045814894838258624,0.0010690141934901476
1761230518703261700,13.90026171875,-0.0013744467869400978,0.0007635815418325365,0.0009162978967651725
1761230518720054800,13.9170546875,-0.001679879380390048,0.0003054326225537807,0.0010690141934901476
1761230518736851700,13.933851806640625,-0.0010690141934901476,0.0019853119738399982,0.00015271631127689034
1761230518753638400,13.950638427734376,-0.0012217304902151227,0.0012217304902151227,0.0007635815418325365
1761230518770436600,13.9674365234375,-0.0013744467869400978,0.00045814894838258624,0.0010690141934901476
1761230518787221500,13.984221435546875,-0.00015271631127689034,0.0003054326225537807,0.0009162978967651725
1761230518804009500,14.001009521484375,-0.0003054326225537807,0.006719517521560192,0.0012217304902151227
1761230518820797000,14.017796875,-0.00015271631127689034,-0.0027488935738801956,-0.0019853119738399982
1761230518837588000,14.034587890625,-0.0006108652451075613,-0.0013744467869400978,0.00015271631127689034
1761230518854377500,14.05137744140625,-0.0010690141934901476,-0.00015271631127689034,-0.00015271631127689034
