time,seconds_elapsed,z,y,x
1761401781591274500,0.0992744140625,0.41629183292388916,-9.081730842590332,-3.706299066543579
1761401781601469000,0.109468994140625,0.4314052164554596,-8.99628734588623,-3.6845266819000244
1761401781611549000,0.119548828125,0.39227497577667236,-8.96852970123291,-3.7217116355895996
1761401781621652700,0.12965283203125,0.41045594215393066,-9.00279712677002,-3.773261785507202
1761401781631722800,0.13972265625,0.42444705963134766,-9.031003952026367,-3.787402629852295
1761401781641817600,0.149817626953125,0.39968204498291016,-8.999654769897461,-3.810147523880005
1761401781651892700,0.159892822265625,0.36990416049957275,-8.956633567810059,-3.8569841384887695
1761401781661979400,0.1699794921875,0.35090017318725586,-8.920721054077148,-3.901501417160034
1761401781672060200,0.18006005859375,0.3744681179523468,-8.92573356628418,-3.8951416015625
1761401781682135000,0.190135009765625,0.40963295102119446,-8.978555679321289,-3.872471570968628
1761401781692223200,0.20022314453125,0.4123264253139496,-9.026215553283691,-3.8477065563201904
1761401781702291200,0.210291259765625,0.3991583287715912,-9.057415008544922,-3.8221933841705322
1761401781712385300,0.22038525390625,0.4126257002353668,-9.048810958862305,-3.7975780963897705
1761401781722466600,0.230466552734375,0.4341735243797302,-8.99628734588623,-3.790769577026367
1761401781732535300,0.240535400390625,0.45025956630706787,-8.9581298828125,-3.8085763454437256
1761401781742624500,0.25062451171875,0.4729296565055847,-8.968155860900879,-3.848529577255249
1761401781752696300,0.2606962890625,0.46754270792007446,-9.006388664245605,-3.8569841384887695
1761401781762791400,0.27079150390625,0.4397101104259491,-9.01476764678955,-3.8576574325561523
1761401781772859600,0.280859619140625,0.38060325384140015,-9.005640029907227,-3.825335741043091
1761401781782941400,0.29094140625,0.33099839091300964,-8.989928245544434,-3.7568764686584473
1761401781793035000,0.301034912109375,0.3373579978942871,-9.034744262695312,-3.7143046855926514
1761401781803104000,0.31110400390625,0.3424456715583801,-9.069311141967773,-3.6646997928619385
1761401781813193500,0.321193359375,0.3860650360584259,-9.066991806030273,-3.6053683757781982
1761401781823266000,0.33126611328125,0.42669162154197693,-9.058387756347656,-3.5791819095611572
1761401781833360000,0.34135986328125,0.46574705839157104,-9.018359184265137,-3.6168906688690186
1761401781843433200,0.35143310546875,0.4644751250743866,-8.984167098999023,-3.7009119987487793
1761401781853522400,0.3615224609375,0.45257893204689026,-8.9680814743042,-3.8022167682647705
1761401781863603500,0.371603515625,0.4238485097885132,-9.0028715133667,-3.850998640060425
1761401781873673000,0.3816728515625,0.3867383897304535,-9.020079612731934,-3.8251113891601562
1761401781883764200,0.39176416015625,0.35898062586784363,-9.026140213012695,-3.7761049270629883
1761401781893834200,0.401834228515625,0.378433495759964,-9.010428428649902,-3.738919973373413
1761401781903928300,0.41192822265625,0.4163666367530823,-9.010578155517578,-3.7310640811920166
1761401781913996500,0.42199658203125,0.4572176933288574,-8.98005199432373,-3.7363014221191406
1761401781924080400,0.432080322265625,0.48901569843292236,-8.959626197814941,-3.7731871604919434
1761401781934171000,0.4421708984375,0.5285948514938354,-8.941071510314941,-3.8110454082489014
1761401781944238800,0.45223876953125,0.5290437340736389,-8.94077205657959,-3.8471081256866455
1761401781954334200,0.462334228515625,0.5009118914604187,-8.9819974899292,-3.8836944103240967
1761401781964403500,0.472403564453125,0.46627077460289,-8.998008728027344,-3.8664112091064453
1761401781974484200,0.482484130859375,0.455422043800354,-8.990975379943848,-3.81882643699646
1761401781984565800,0.492565673828125,0.4471171796321869,-8.995614051818848,-3.805284261703491
1761401781994668500,0.50266845703125,0.41711482405662537,-9.007136344909668,-3.821071147918701
1761401782004718600,0.512718505859375,0.4321534037590027,-8.99157428741455,-3.8407485485076904
1761401782014809000,0.52280908203125,0.4406827390193939,-8.97653579711914,-3.856759548187256
1761401782024903200,0.532903076171875,0.4512321949005127,-8.938976287841797,-3.8470332622528076
1761401782034972400,0.542972412109375,0.4371662735939026,-8.895730972290039,-3.839850664138794
1761401782045053400,0.553053466796875,0.4315548539161682,-8.869993209838867,-3.8563854694366455
1761401782055146500,0.563146484375,0.44337621331214905,-8.888099670410156,-3.86199688911438
1761401782065215200,0.57321533203125,0.4240729808807373,-8.942343711853027,-3.861248731613159
1761401782075274000,0.58327392578125,0.41112932562828064,-9.0005521774292,-3.8395514488220215
1761401782085378800,0.59337890625,0.38127660751342773,-9.001974105834961,-3.815235137939453
1761401782095471400,0.603471435546875,0.3678840696811676,-8.985513687133789,-3.7939867973327637
1761401782105540900,0.613540771484375,0.34274494647979736,-9.001151084899902,-3.814262628555298
1761401782115630300,0.62363037109375,0.35568860173225403,-9.070134162902832,-3.834688186645508
1761401782125702100,0.6337021484375,0.3357867896556854,-9.080533981323242,-3.8096237182617188
1761401782135782400,0.643782470703125,0.3513490855693817,-9.016263961791992,-3.7420623302459717
1761401782145865700,0.65386572265625,0.3758896589279175,-8.970475196838379,-3.714005470275879
1761401782155959000,0.663958984375,0.3610755503177643,-8.972644805908203,-3.698218584060669
1761401782166025500,0.674025390625,0.31850364804267883,-8.958803176879883,-3.705176830291748
1761401782176121600,0.68412158203125,0.26231473684310913,-8.944737434387207,-3.7229835987091064
1761401782186202400,0.694202392578125,0.22363340854644775,-8.991873741149902,-3.7304654121398926
1761401782196281600,0.704281494140625,0.15337854623794556,-9.120487213134766,-3.6869957447052
1761401782206348800,0.714348876953125,0.08245032280683517,-9.190293312072754,-3.5942952632904053
1761401782216446200,0.7244462890625,0.08948329091072083,-9.180566787719727,-3.4944121837615967
1761401782226527700,0.73452783203125,0.15592238306999207,-9.084798812866211,-3.4594717025756836
1761401782236615200,0.744615234375,0.27144262194633484,-9.044845581054688,-3.5422213077545166
1761401782246666800,0.754666748046875,0.37162500619888306,-9.057863235473633,-3.6571431159973145
1761401782256761000,0.764760986328125,0.4076128304004669,-9.068188667297363,-3.737348794937134
1761401782266851600,0.7748515625,0.43282678723335266,-9.087118148803711,-3.7689223289489746
1761401782276933600,0.78493359375,0.3862146735191345,-9.073874473571777,-3.727996587753296
1761401782287001900,0.795001953125,0.3678092360496521,-9.037288665771484,-3.693505048751831
1761401782297096700,0.8050966796875,0.3669862151145935,-9.035866737365723,-3.7090673446655273
1761401782307166200,0.815166259765625,0.3893570601940155,-9.044171333312988,-3.77333664894104
1761401782317256400,0.82525634765625,0.40873512625694275,-9.016263961791992,-3.8314709663391113
1761401782327340000,0.835340087890625,0.43529579043388367,-8.96037483215332,-3.849202871322632
1761401782337411000,0.8454111328125,0.4576666057109833,-8.944587707519531,-3.8389527797698975
1761401782347490000,0.855489990234375,0.4596867263317108,-8.977508544921875,-3.8435168266296387
1761401782357571300,0.8655712890625,0.4571428894996643,-9.013646125793457,-3.821669578552246
1761401782367651800,0.87565185546875,0.44322657585144043,-9.030180931091309,-3.7713913917541504
1761401782377745700,0.88574560546875,0.4213046729564667,-8.989479064941406,-3.715202569961548
1761401782387814700,0.895814697265625,0.4397849142551422,-8.969428062438965,-3.695974111557007
1761401782397908000,0.905907958984375,0.45751696825027466,-8.958279609680176,-3.666046619415283
1761401782407976700,0.915976806640625,0.4398597478866577,-9.004443168640137,-3.648688554763794
1761401782418058200,0.926058349609375,0.40387189388275146,-9.052027702331543,-3.618985414505005
1761401782428135400,0.936135498046875,0.33369186520576477,-9.073126792907715,-3.554192304611206
1761401782438234400,0.946234375,0.3107973039150238,-9.045293807983398,-3.443535327911377
1761401782448312600,0.9563125,0.30623334646224976,-9.00863265991211,-3.3918356895446777
1761401782458394000,0.96639404296875,0.3280804455280304,-9.049408912658691,-3.3634045124053955
1761401782468476400,0.976476318359375,0.3901052474975586,-9.143007278442383,-3.3901147842407227
1761401782478558000,0.986557861328125,0.44509705901145935,-9.206378936767578,-3.4502692222595215
1761401782488639000,0.996638916015625,0.47135844826698303,-9.219547271728516,-3.514613389968872
1761401782498720000,1.006719970703125,0.44749125838279724,-9.194482803344727,-3.5358617305755615
1761401782508801500,1.016801513671875,0.36638766527175903,-9.133654594421387,-3.5260605812072754
1761401782518880800,1.026880859375,0.2544587552547455,-9.07567024230957,-3.5435681343078613
1761401782528952300,1.036952392578125,0.16841712594032288,-9.021576881408691,-3.561898708343506
1761401782539044900,1.047044921875,0.21959318220615387,-8.989928245544434,-3.6080620288848877
1761401782549103600,1.057103515625,0.3770119547843933,-8.955436706542969,-3.666121244430542
1761401782559207200,1.067207275390625,0.4851251244544983,-8.952070236206055,-3.81186842918396
1761401782569289000,1.0772890625,0.5003133416175842,-8.971298217773438,-3.9326260089874268
1761401782579363300,1.08736328125,0.5119850635528564,-8.923713684082031,-4.017171382904053
1761401782589451000,1.097450927734375,0.5579237937927246,-8.927305221557617,-3.911452293395996
1761401782599520300,1.107520263671875,0.5966799259185791,-9.089212417602539,-3.667393207550049
1761401782609603600,1.117603515625,0.6036381125450134,-9.182287216186523,-3.3821091651916504
1761401782619682000,1.12768212890625,0.6061819195747375,-9.164405822753906,-3.2608277797698975
1761401782629776100,1.137776123046875,0.5999720096588135,-9.106945037841797,-3.358541250228882
1761401782639842800,1.1478427734375,0.5722890496253967,-9.104326248168945,-3.527930974960327
1761401782649926100,1.157926025390625,0.5637596845626831,-9.103877067565918,-3.5666871070861816
1761401782660019500,1.16801953125,0.6587047576904297,-9.038934707641602,-3.599083662033081
1761401782670093600,1.178093505859375,0.7085340619087219,-9.076044082641602,-3.576488494873047
1761401782680169700,1.188169677734375,0.6878092288970947,-9.175553321838379,-3.5271828174591064
1761401782690263300,1.19826318359375,0.6291513442993164,-9.237354278564453,-3.3959505558013916
1761401782700334300,1.208334228515625,0.5345055460929871,-9.212963104248047,-3.3213562965393066
1761401782710421800,1.218421875,0.4275146424770355,-9.110461235046387,-3.341482639312744
1761401782720494300,1.228494384765625,0.30137014389038086,-9.083227157592773,-3.3903391361236572
1761401782730578200,1.238578125,0.24331074953079224,-9.106271743774414,-3.4011130332946777
1761401782740680200,1.24868017578125,0.2786252200603485,-9.148019790649414,-3.355997323989868
1761401782750751000,1.2587509765625,0.36990416049957275,-9.138294219970703,-3.31350040435791
1761401782760819500,1.2688193359375,0.49537530541419983,-9.09961223602295,-3.3000328540802
1761401782770915000,1.2789150390625,0.6013935208320618,-9.097143173217773,-3.31813907623291
1761401782780981800,1.288981689453125,0.656460165977478,-9.094599723815918,-3.3250224590301514
1761401782791075300,1.299075439453125,0.7356932759284973,-9.083526611328125,-3.292476177215576
1761401782801143600,1.3091435546875,0.806696355342865,-9.085396766662598,-3.259855270385742
1761401782811237600,1.319237548828125,0.8613888621330261,-9.189095497131348,-3.204489231109619
1761401782821319000,1.32931884765625,0.8444798588752747,-9.315239906311035,-3.1316158771514893
1761401782831388000,1.339387939453125,0.7934533953666687,-9.389909744262695,-3.074005365371704
1761401782841478400,1.349478515625,0.7309048771858215,-9.379284858703613,-3.088071346282959
1761401782851552300,1.35955224609375,0.6565349698066711,-9.266084671020508,-3.1337108612060547
1761401782861643800,1.369643798828125,0.577526330947876,-9.147122383117676,-3.213916540145874
1761401782871725300,1.379725341796875,0.5618892312049866,-9.075296401977539,-3.3116297721862793
1761401782881793800,1.389793701171875,0.5957072973251343,-9.050980567932129,-3.4245314598083496
1761401782891887400,1.399887451171875,0.6149357557296753,-9.08143138885498,-3.5311481952667236
1761401782901945900,1.40994580078125,0.5900210738182068,-9.091307640075684,-3.585017681121826
1761401782912050200,1.42005029296875,0.587701678276062,-9.038485527038574,-3.620033025741577
1761401782922131200,1.430131103515625,0.585232675075531,-9.015815734863281,-3.6360442638397217
1761401782932208400,1.44020849609375,0.5951087474822998,-9.006912231445312,-3.63342547416687
1761401782942281500,1.450281494140625,0.5838111042976379,-9.005640029907227,-3.624896287918091
1761401782952375000,1.460375,0.610596239566803,-8.983793258666992,-3.6029741764068604
1761401782962454000,1.4704541015625,0.6392518281936646,-8.987159729003906,-3.592050790786743
1761401782972526600,1.480526611328125,0.6800280809402466,-9.016189575195312,-3.5778350830078125
1761401782982618600,1.49061865234375,0.6750900745391846,-9.063849449157715,-3.5591304302215576
1761401782992700000,1.500699951171875,0.6391770243644714,-9.096395492553711,-3.5567362308502197
1761401783002768600,1.5107685546875,0.5919663906097412,-9.124676704406738,-3.533766984939575
1761401783012862200,1.5208623046875,0.5362263321876526,-9.15497875213623,-3.5247137546539307
1761401783022930400,1.530930419921875,0.5048024654388428,-9.176002502441406,-3.5294272899627686
1761401783033022700,1.541022705078125,0.4785410761833191,-9.151013374328613,-3.5131916999816895
1761401783043106300,1.551106201171875,0.4703109860420227,-9.137545585632324,-3.4945619106292725
1761401783053169700,1.561169677734375,0.4866214990615845,-9.118391990661621,-3.4938883781433105
1761401783063266300,1.571266357421875,0.5140799880027771,-9.108291625976562,-3.528679132461548
1761401783073338600,1.581338623046875,0.5478981137275696,-9.119888305664062,-3.5791819095611572
1761401783083430700,1.5914306640625,0.5776011347770691,-9.10657024383545,-3.624746561050415
1761401783093509600,1.601509521484375,0.5881506204605103,-9.057788848876953,-3.6419548988342285
1761401783103586600,1.611586669921875,0.5756558775901794,-9.033921241760254,-3.61262583732605
1761401783113674000,1.621674072265625,0.5279214978218079,-9.038111686706543,-3.5975873470306396
1761401783123743000,1.631742919921875,0.4965724050998688,-9.07641887664795,-3.558307409286499
1761401783133827800,1.641827880859375,0.4635773003101349,-9.111658096313477,-3.5381064414978027
1761401783143905500,1.651905517578125,0.43933600187301636,-9.117045402526855,-3.505260944366455
1761401783153988000,1.661988037109375,0.4031985402107239,-9.121384620666504,-3.503614902496338
1761401783164078600,1.67207861328125,0.36563947796821594,-9.11577320098877,-3.504737138748169
1761401783174161700,1.68216162109375,0.3572597801685333,-9.108291625976562,-3.5020437240600586
1761401783184254000,1.69225390625,0.35329440236091614,-9.09961223602295,-3.501070976257324
1761401783194318600,1.702318603515625,0.39466917514801025,-9.128342628479004,-3.4781765937805176
1761401783204405200,1.7124052734375,0.41935938596725464,-9.146748542785645,-3.4653077125549316
1761401783214473700,1.7224736328125,0.44988545775413513,-9.132831573486328,-3.4605941772460938
1761401783224563500,1.7325634765625,0.4694879949092865,-9.101034164428711,-3.4961330890655518
1761401783234648000,1.74264794921875,0.47337856888771057,-9.082254409790039,-3.5206735134124756
1761401783244707600,1.75270751953125,0.44180503487586975,-9.073650360107422,-3.5514988899230957
1761401783254799600,1.762799560546875,0.4305822253227234,-9.047313690185547,-3.5579333305358887
1761401783264859000,1.77285888671875,0.4379892647266388,-9.068787574768066,-3.5480573177337646
1761401783274971400,1.782971435546875,0.46402621269226074,-9.101034164428711,-3.565415143966675
1761401783285053200,1.79305322265625,0.45923781394958496,-9.102081298828125,-3.5668368339538574
1761401783295123700,1.803123779296875,0.45579615235328674,-9.068412780761719,-3.5964651107788086
1761401783305230800,1.81323095703125,0.45242929458618164,-9.043049812316895,-3.620781183242798
1761401783315308300,1.823308349609375,0.4587140679359436,-9.030704498291016,-3.6237738132476807
1761401783325354500,1.8333544921875,0.4605097472667694,-9.037138938903809,-3.5924997329711914
1761401783335460900,1.8434609375,0.4685153365135193,-9.075520515441895,-3.5731964111328125
1761401783345532400,1.853532470703125,0.46178165078163147,-9.092729568481445,-3.5800797939300537
1761401783355621600,1.86362158203125,0.46320322155952454,-9.10185718536377,-3.579930067062378
1761401783365693700,1.873693603515625,0.47248074412345886,-9.077765464782715,-3.5768625736236572
1761401783375773200,1.883773193359375,0.4787655174732208,-9.069684982299805,-3.5744683742523193
1761401783385857500,1.893857421875,0.5042787194252014,-9.09497356414795,-3.5748424530029297
1761401783395947800,1.90394775390625,0.49372929334640503,-9.115848541259766,-3.5835962295532227
1761401783406014500,1.914014404296875,0.4842272996902466,-9.088464736938477,-3.573420763015747
1761401783416111000,1.924111083984375,0.4859481155872345,-9.046566009521484,-3.575366258621216
1761401783426192100,1.934192138671875,0.4860977530479431,-9.040431022644043,-3.58292293548584
1761401783436272600,1.944272705078125,0.46993690729141235,-9.055693626403809,-3.5765633583068848
1761401783446341600,1.954341552734375,0.4507084786891937,-9.074173927307129,-3.5590555667877197
1761401783456435500,1.964435546875,0.44831427931785583,-9.083152770996094,-3.5587563514709473
1761401783466516700,1.974516845703125,0.4614075720310211,-9.09729290008545,-3.5586814880371094
1761401783476596000,1.984595947265625,0.45654433965682983,-9.085172653198242,-3.5631706714630127
1761401783486688300,1.994688232421875,0.47824180126190186,-9.077316284179688,-3.5835962295532227
1761401783496748000,2.004748046875,0.4958242177963257,-9.037812232971191,-3.6088101863861084
1761401783506842400,2.01484228515625,0.5247790813446045,-9.011401176452637,-3.629460096359253
1761401783516930800,2.024930908203125,0.5376479029655457,-9.010054588317871,-3.63342547416687
1761401783527004200,2.035004150390625,0.5052513480186462,-9.025466918945312,-3.635146379470825
1761401783537073000,2.045072998046875,0.4837783873081207,-9.030255317687988,-3.640383720397949
1761401783547159000,2.055158935546875,0.47165772318840027,-9.03751277923584,-3.6330513954162598
1761401783557235000,2.06523486328125,0.49140989780426025,-9.047538757324219,-3.6245968341827393
1761401783567316200,2.075316162109375,0.5023334622383118,-9.0743989944458,-3.6070144176483154
1761401783577397200,2.085397216796875,0.5293430089950562,-9.082927703857422,-3.5924997329711914
1761401783587491300,2.0954912109375,0.532934308052063,-9.073874473571777,-3.599607467651367
1761401783597567700,2.105567626953125,0.5414636731147766,-9.052700996398926,-3.6287119388580322
1761401783607641000,2.11564111328125,0.5425111651420593,-9.044994354248047,-3.6501102447509766
1761401783617722000,2.12572216796875,0.5463268756866455,-9.034296035766602,-3.6610336303710938
1761401783627812900,2.135812744140625,0.5490203499794006,-9.034220695495605,-3.6517560482025146
1761401783637866200,2.1458662109375,0.5244050025939941,-9.05606746673584,-3.668365955352783
1761401783647955500,2.15595556640625,0.4991162419319153,-9.050381660461426,-3.6535518169403076
1761401783658059800,2.166059814453125,0.46627077460289,-9.03526782989502,-3.659163236618042
1761401783668139000,2.176138916015625,0.4899883270263672,-9.041702270507812,-3.644049882888794
1761401783678209300,2.186209228515625,0.5165489912033081,-9.056591987609863,-3.632827043533325
1761401783688265000,2.196264892578125,0.5185691118240356,-9.050082206726074,-3.607164144515991
1761401783698375400,2.20637548828125,0.5108627676963806,-9.04334831237793,-3.593996047973633
1761401783708466000,2.2164658203125,0.5039794445037842,-9.041403770446777,-3.600954294204712
1761401783718547000,2.226546875,0.4737526476383209,-9.052401542663574,-3.6169652938842773
1761401783728626200,2.236626220703125,0.45504796504974365,-9.037288665771484,-3.632452964782715
1761401783738709500,2.24670947265625,0.4412064850330353,-9.028983116149902,-3.641580820083618
1761401783748779500,2.256779541015625,0.441430926322937,-9.04910945892334,-3.6418051719665527
1761401783758872000,2.2668720703125,0.4357447028160095,-9.050681114196777,-3.6396355628967285
1761401783768952600,2.27695263671875,0.43589434027671814,-9.059210777282715,-3.6222774982452393
1761401783779021600,2.287021484375,0.44831427931785583,-9.047463417053223,-3.6256444454193115
1761401783789115600,2.29711572265625,0.46499887108802795,-9.030704498291016,-3.6443490982055664
1761401783799195100,2.307195068359375,0.5000888705253601,-9.007959365844727,-3.642852783203125
1761401783809277700,2.317277587890625,0.5015852451324463,-9.017312049865723,-3.6227264404296875
1761401783819364600,2.327364501953125,0.5081692934036255,-9.030105590820312,-3.6000564098358154
1761401783829440500,2.3374404296875,0.49709612131118774,-9.025766372680664,-3.589806079864502
1761401783839520500,2.3475205078125,0.48325464129447937,-9.01708698272705,-3.5889084339141846
1761401783849600800,2.357600830078125,0.4727051854133606,-9.036989212036133,-3.6023008823394775
1761401783859670500,2.36767041015625,0.4471171796321869,-9.071555137634277,-3.599008798599243
1761401783869759000,2.377759033203125,0.39399582147598267,-9.09265422821045,-3.6076879501342773
1761401783879833300,2.387833251953125,0.3775356709957123,-9.091157913208008,-3.605443239212036
1761401783889927700,2.397927734375,0.38636431097984314,-9.08719253540039,-3.62070631980896
1761401783899988200,2.40798828125,0.39706337451934814,-9.08801555633545,-3.6115036010742188
1761401783910090000,2.418090087890625,0.4040215313434601,-9.070208549499512,-3.6011037826538086
1761401783920157400,2.428157470703125,0.42541971802711487,-9.078139305114746,-3.59332275390625
1761401783930240500,2.438240478515625,0.4489876329898834,-9.079261779785156,-3.57753586769104
1761401783940325000,2.4483251953125,0.4465186297893524,-9.068188667297363,-3.5773861408233643
1761401783950396700,2.458396728515625,0.4462941586971283,-9.079935073852539,-3.5807530879974365
1761401783960495600,2.46849560546875,0.4446481466293335,-9.081655502319336,-3.577012062072754
1761401783970577000,2.478576904296875,0.44928690791130066,-9.088614463806152,-3.57753586769104
1761401783980646000,2.48864599609375,0.46402621269226074,-9.106420516967773,-3.5767128467559814
1761401783990722000,2.49872216796875,0.472555547952652,-9.113304138183594,-3.5761890411376953
1761401784000799000,2.508799072265625,0.43424832820892334,-9.110461235046387,-3.5642929077148438
1761401784010902000,2.518902099609375,0.44083237648010254,-9.077466011047363,-3.557634115219116
1761401784020983000,2.528983154296875,0.43701663613319397,-9.065869331359863,-3.568333148956299
1761401784031053600,2.539053466796875,0.42108023166656494,-9.05367374420166,-3.5736453533172607
1761401784041140500,2.549140380859375,0.4308066666126251,-9.04319953918457,-3.5829975605010986
1761401784051214300,2.55921435546875,0.435819536447525,-9.032424926757812,-3.5806033611297607
1761401784061308200,2.56930810546875,0.4176385700702667,-9.040505409240723,-3.5742437839508057
1761401784071389200,2.57938916015625,0.4107552170753479,-9.063774108886719,-3.580528736114502
1761401784081455600,2.58945556640625,0.4125508666038513,-9.08143138885498,-3.577461004257202
1761401784091551700,2.5995517578125,0.43170449137687683,-9.081730842590332,-3.5831472873687744
1761401784101619700,2.60961962890625,0.43275195360183716,-9.104999542236328,-3.581052303314209
1761401784111714300,2.61971435546875,0.43589434027671814,-9.095198631286621,-3.572972059249878
1761401784121793300,2.629793212890625,0.44083237648010254,-9.100135803222656,-3.5698294639587402
1761401784131875600,2.63987548828125,0.43522098660469055,-9.086145401000977,-3.571101427078247
1761401784141945300,2.6499453125,0.43013331294059753,-9.079935073852539,-3.591452121734619
1761401784152026400,2.6600263671875,0.4239233434200287,-9.082853317260742,-3.5934722423553467
1761401784162112000,2.670112060546875,0.43013331294059753,-9.077466011047363,-3.588608980178833
1761401784172188700,2.680188720703125,0.44696754217147827,-9.075370788574219,-3.5684828758239746
1761401784182271200,2.690271240234375,0.4339490532875061,-9.088614463806152,-3.558382272720337
1761401784192346600,2.7003466796875,0.42945992946624756,-9.103353500366211,-3.5616743564605713
1761401784202432800,2.710432861328125,0.42616790533065796,-9.101632118225098,-3.5791070461273193
1761401784212526000,2.720526123046875,0.42706573009490967,-9.09033489227295,-3.579406261444092
1761401784222598000,2.730597900390625,0.4183119237422943,-9.077690124511719,-3.5917515754699707
1761401784232672000,2.740672119140625,0.42871174216270447,-9.053299903869629,-3.5749919414520264
1761401784242755000,2.750755126953125,0.4346972405910492,-9.052700996398926,-3.572972059249878
1761401784252851000,2.760850830078125,0.43836337327957153,-9.072677612304688,-3.5749173164367676
1761401784262932200,2.77093212890625,0.4207809567451477,-9.066617012023926,-3.5807530879974365
1761401784273001200,2.781001220703125,0.4106055796146393,-9.071929931640625,-3.5878608226776123
1761401784283094800,2.7910947265625,0.3993079662322998,-9.082927703857422,-3.586289644241333
1761401784293164500,2.80116455078125,0.375291109085083,-9.089437484741211,-3.5568859577178955
1761401784303257000,2.811257080078125,0.38464346528053284,-9.092504501342773,-3.5567362308502197
1761401784313323500,2.821323486328125,0.3941454589366913,-9.089287757873535,-3.5627965927124023
1761401784323414800,2.831414794921875,0.43200376629829407,-9.083826065063477,-3.572373390197754
1761401784333492000,2.841491943359375,0.4429273009300232,-9.10769271850586,-3.5690813064575195
1761401784343582000,2.85158203125,0.4354454278945923,-9.08494758605957,-3.5586814880371094
1761401784353663000,2.8616630859375,0.42025721073150635,-9.08494758605957,-3.556661367416382
1761401784363732200,2.871732177734375,0.41457098722457886,-9.074623107910156,-3.570054054260254
1761401784373823500,2.881823486328125,0.3925742506980896,-9.055768966674805,-3.579331636428833
1761401784383894000,2.89189404296875,0.40050506591796875,-9.05247688293457,-3.587486743927002
1761401784393987600,2.901987548828125,0.4108300507068634,-9.051728248596191,-3.583371639251709
1761401784404069000,2.912069091796875,0.4173392951488495,-9.069086074829102,-3.555464267730713
1761401784414138000,2.92213818359375,0.4116530418395996,-9.087716102600098,-3.5311481952667236
1761401784424227000,2.93222705078125,0.4165911078453064,-9.114800453186035,-3.5416977405548096
1761401784434302000,2.942302001953125,0.40544310212135315,-9.11569881439209,-3.555539131164551
1761401784444392400,2.952392333984375,0.3916016221046448,-9.099014282226562,-3.572298526763916
1761401784454474200,2.96247412109375,0.3969137370586395,-9.082030296325684,-3.576488494873047
1761401784464554800,2.9725546875,0.4109048545360565,-9.069984436035156,-3.5533695220947266
1761401784474636500,2.982636474609375,0.42743980884552,-9.083227157592773,-3.5456631183624268
1761401784484706600,2.99270654296875,0.4576666057109833,-9.076044082641602,-3.5406501293182373
1761401784494798000,3.002798095703125,0.46971243619918823,-9.074623107910156,-3.5532946586608887
1761401784504871000,3.012870849609375,0.4596118927001953,-9.080384254455566,-3.56481671333313
1761401784514950100,3.0229501953125,0.44936174154281616,-9.067889213562012,-3.5853171348571777
1761401784525043500,3.03304345703125,0.43851301074028015,-9.064672470092773,-3.602525472640991
1761401784535124700,3.043124755859375,0.4388870894908905,-9.071405410766602,-3.6076879501342773
1761401784545180700,3.0531806640625,0.4308066666126251,-9.073724746704102,-3.6186861991882324
1761401784555285500,3.063285400390625,0.42108023166656494,-9.065869331359863,-3.605443239212036
1761401784565366800,3.07336669921875,0.42609307169914246,-9.074623107910156,-3.596689462661743
1761401784575436800,3.083436767578125,0.4314800500869751,-9.066766738891602,-3.590928554534912
1761401784585530600,3.093530517578125,0.4431517720222473,-9.064896583557129,-3.5917515754699707
1761401784595599600,3.103599609375,0.4291606545448303,-9.066617012023926,-3.5720741748809814
1761401784605693400,3.113693359375,0.41876083612442017,-9.084124565124512,-3.5605521202087402
1761401784615774500,3.1237744140625,0.4082113802433014,-9.09646987915039,-3.558382272720337
1761401784625847600,3.13384765625,0.4091092050075531,-9.095572471618652,-3.5708770751953125
1761401784635922400,3.14392236328125,0.43260231614112854,-9.065793991088867,-3.6082115173339844
1761401784646005500,3.154005615234375,0.43858781456947327,-9.041777610778809,-3.618985414505005
1761401784656094700,3.1640947265625,0.42212769389152527,-9.03062915802002,-3.629909038543701
1761401784666181000,3.17418115234375,0.41853639483451843,-9.05367374420166,-3.6279637813568115
1761401784676251400,3.18425146484375,0.402749627828598,-9.06751537322998,-3.6070892810821533
1761401784686340900,3.1943408203125,0.40454527735710144,-9.075072288513184,-3.6041712760925293
1761401784696424700,3.2044248046875,0.39646482467651367,-9.069161415100098,-3.602076530456543
1761401784706493200,3.2144931640625,0.4190601110458374,-9.06946086883545,-3.61262583732605
1761401784716586800,3.224586669921875,0.4379892647266388,-9.073051452636719,-3.5906291007995605
1761401784726668000,3.23466796875,0.43507134914398193,-9.0836763381958,-3.57289719581604
1761401784736749300,3.244749267578125,0.42190322279930115,-9.07679271697998,-3.5789575576782227
1761401784746813200,3.254813232421875,0.4258686304092407,-9.093103408813477,-3.6109797954559326
1761401784756909800,3.264909912109375,0.43993455171585083,-9.092130661010742,-3.6251206398010254
1761401784766980000,3.27497998046875,0.46664488315582275,-9.080533981323242,-3.64345121383667
1761401784777074000,3.285073974609375,0.4793640673160553,-9.061380386352539,-3.6465935707092285
1761401784787152400,3.29515234375,0.4736030101776123,-9.046116828918457,-3.649960517883301
1761401784797236200,3.305236328125,0.4571428894996643,-9.043124198913574,-3.6198084354400635
1761401784807305000,3.315304931640625,0.4323778748512268,-9.05359935760498,-3.60798716545105
1761401784817374000,3.3253740234375,0.40529346466064453,-9.044321060180664,-3.597362756729126
1761401784827456800,3.335456787109375,0.39624038338661194,-9.043797492980957,-3.603797197341919
1761401784837536300,3.345536376953125,0.4084358513355255,-9.053299903869629,-3.59220027923584
1761401784847621000,3.35562109375,0.42594343423843384,-9.085247039794922,-3.573570489883423
1761401784857697500,3.365697509765625,0.4396352767944336,-9.09033489227295,-3.5661635398864746
1761401784877855500,3.38585546875,0.4339490532875061,-9.100809097290039,-3.5529205799102783
1761401784887933200,3.39593310546875,0.44158056378364563,-9.086219787597656,-3.5557637214660645
1761401784898032400,3.406032470703125,0.4263923466205597,-9.078662872314453,-3.5500025749206543
1761401784908107800,3.416107666015625,0.4256441593170166,-9.070283889770508,-3.56249737739563
1761401784918202600,3.42620263671875,0.436343252658844,-9.061604499816895,-3.569904327392578
1761401784928279800,3.43627978515625,0.4290858507156372,-9.057639122009277,-3.5674352645874023
1761401784938373400,3.446373291015625,0.4278887212276459,-9.066842079162598,-3.5482068061828613
1761401784948459300,3.456459228515625,0.43522098660469055,-9.070134162902832,-3.5411739349365234
1761401784958522000,3.466522216796875,0.4305073916912079,-9.069235801696777,-3.5422213077545166
1761401784968617200,3.4766171875,0.4241477847099304,-9.064672470092773,-3.558831214904785
1761401784978698200,3.4866982421875,0.41846156120300293,-9.069535255432129,-3.552546501159668
1761401784988768000,3.49676806640625,0.433200865983963,-9.079635620117188,-3.546785354614258
1761401784998847700,3.50684765625,0.4407575726509094,-9.088688850402832,-3.5411739349365234
1761401785008939800,3.516939697265625,0.44988545775413513,-9.104849815368652,-3.5458126068115234
1761401785019031000,3.527031005859375,0.46746787428855896,-9.131111145019531,-3.5585319995880127
1761401785029104000,3.537104248046875,0.4645499587059021,-9.140463829040527,-3.537881851196289
1761401785039162600,3.54716259765625,0.4595370888710022,-9.136423110961914,-3.524414539337158
1761401785049266700,3.5572666015625,0.44838908314704895,-9.121010780334473,-3.5235915184020996
1761401785059349000,3.567348876953125,0.4562450647354126,-9.113154411315918,-3.520374298095703
1761401785069429000,3.577428955078125,0.45819035172462463,-9.104700088500977,-3.5329439640045166
1761401785079495400,3.587495361328125,0.43514615297317505,-9.091607093811035,-3.540799856185913
1761401785089580000,3.597580078125,0.4174889326095581,-9.075895309448242,-3.5684080123901367
1761401785099670300,3.607670166015625,0.4397101104259491,-9.067215919494629,-3.565265655517578
1761401785109728500,3.617728515625,0.4332756996154785,-9.075072288513184,-3.53975248336792
1761401785119835400,3.62783544921875,0.4471171796321869,-9.073874473571777,-3.5264346599578857
1761401785129916000,3.637916015625,0.4677671492099762,-9.075296401977539,-3.5434184074401855
1761401785139983400,3.6479833984375,0.4636521339416504,-9.053000450134277,-3.5591304302215576
1761401785150083800,3.658083740234375,0.45572131872177124,-9.048286437988281,-3.570128917694092
1761401785160159700,3.66815966796875,0.44360068440437317,-9.064896583557129,-3.573944568634033
1761401785170241000,3.678240966796875,0.44532153010368347,-9.06990909576416,-3.5812020301818848
1761401785180309800,3.688309814453125,0.4390367269515991,-9.0790376663208,-3.570054054260254
1761401785190403300,3.6984033203125,0.4523544907569885,-9.083451271057129,-3.5743935108184814
1761401785200480300,3.708480224609375,0.4753986895084381,-9.09766674041748,-3.589357376098633
1761401785210577000,3.718576904296875,0.47973817586898804,-9.100360870361328,-3.607239007949829
1761401785220634400,3.72863427734375,0.48130935430526733,-9.082853317260742,-3.6011037826538086
1761401785230728000,3.73872802734375,0.4703858196735382,-9.072977066040039,-3.6005799770355225
1761401785240809200,3.748809326171875,0.4679167866706848,-9.041702270507812,-3.615394115447998
1761401785250890500,3.758890380859375,0.4556465148925781,-9.035942077636719,-3.625868797302246
1761401785260972000,3.768971923828125,0.46148237586021423,-9.042900085449219,-3.6263177394866943
1761401785271051500,3.779051513671875,0.45242929458618164,-9.064522743225098,-3.6115036010742188
1761401785281134300,3.78913427734375,0.4388870894908905,-9.058162689208984,-3.594519853591919
1761401785291215400,3.79921533203125,0.4556465148925781,-9.043647766113281,-3.59220027923584
1761401785301284000,3.8092841796875,0.4539256691932678,-9.055843353271484,-3.585092544555664
1761401785311378000,3.8193779296875,0.4396352767944336,-9.065644264221191,-3.593921184539795
1761401785321459500,3.82945947265625,0.43701663613319397,-9.053973197937012,-3.5952680110931396
1761401785331538400,3.839538330078125,0.44030866026878357,-9.05950927734375,-3.600879430770874
1761401785341601500,3.8496015625,0.4387374520301819,-9.071331024169922,-3.60836124420166
1761401785351702500,3.85970263671875,0.431255578994751,-9.072378158569336,-3.5820999145507812
1761401785361784000,3.8697841796875,0.45003509521484375,-9.077092170715332,-3.568183422088623
1761401785371865300,3.879865234375,0.4635773003101349,-9.084573745727539,-3.5895068645477295
1761401785381943300,3.889943359375,0.4750994145870209,-9.058012962341309,-3.614795684814453
1761401785392027400,3.90002734375,0.4685153365135193,-9.049858093261719,-3.603797197341919
1761401785402106600,3.910106689453125,0.4727800190448761,-9.041851997375488,-3.5788826942443848
1761401785412190200,3.920190185546875,0.4531026780605316,-9.05374813079834,-3.5585319995880127
1761401785432352500,3.9403525390625,0.42534488439559937,-9.06063175201416,-3.5803041458129883
1761401785442408400,3.950408447265625,0.4555716812610626,-9.043947219848633,-3.6064908504486084
1761401785452514600,3.9605146484375,0.4702361822128296,-9.058985710144043,-3.615543842315674
1761401785462594600,3.970594482421875,0.46425068378448486,-9.068562507629395,-3.59332275390625
1761401785472664600,3.98066455078125,0.4652981460094452,-9.106271743774414,-3.573420763015747
1761401785482754000,3.990754150390625,0.4712088108062744,-9.103353500366211,-3.57289719581604
1761401785492839700,4.000839599609375,0.47569796442985535,-9.092354774475098,-3.584120035171509
1761401785502920400,4.01092041015625,0.4808604419231415,-9.06519603729248,-3.5930981636047363
1761401785513002000,4.021001953125,0.4784662425518036,-9.05823802947998,-3.5900306701660156
1761401785523081500,4.03108154296875,0.4645499587059021,-9.065943717956543,-3.5930981636047363
1761401785533152800,4.04115283203125,0.4530278444290161,-9.07522201538086,-3.588683843612671
1761401785543245800,4.051245849609375,0.4635024964809418,-9.08838939666748,-3.611428737640381
1761401785553326300,4.061326416015625,0.46754270792007446,-9.071480751037598,-3.618312120437622
1761401785563408000,4.071407958984375,0.4719569981098175,-9.057489395141602,-3.5919010639190674
1761401785573489200,4.0814892578125,0.4941782057285309,-9.043872833251953,-3.5815012454986572
1761401785583570200,4.091570068359375,0.48235681653022766,-9.040879249572754,-3.585092544555664
1761401785593650000,4.10164990234375,0.46986207365989685,-9.056442260742188,-3.5934722423553467
1761401785603721700,4.1117216796875,0.4421791136264801,-9.054347038269043,-3.5883097648620605
1761401785613814300,4.121814208984375,0.419883131980896,-9.051953315734863,-3.5912277698516846
1761401785623882500,4.131882568359375,0.43260231614112854,-9.058012962341309,-3.575889825820923
1761401785633963800,4.1419638671875,0.438961923122406,-9.076568603515625,-3.5744683742523193
1761401785644057900,4.152057861328125,0.45579615235328674,-9.092280387878418,-3.5772366523742676
1761401785654120700,4.16212060546875,0.46567222476005554,-9.08794116973877,-3.57753586769104
1761401785664219600,4.1722197265625,0.4762965142726898,-9.068488121032715,-3.5795559883117676
1761401785674301000,4.182301025390625,0.4909609854221344,-9.071181297302246,-3.5987095832824707
1761401785684382700,4.1923828125,0.5167734622955322,-9.069161415100098,-3.6192848682403564
1761401785694465500,4.202465576171875,0.48235681653022766,-9.06871223449707,-3.6257193088531494
1761401785704542700,4.212542724609375,0.4613327383995056,-9.06182861328125,-3.613074779510498
1761401785714624500,4.22262451171875,0.441430926322937,-9.060407638549805,-3.6012535095214844
1761401785724704800,4.232704833984375,0.41030630469322205,-9.066019058227539,-3.582324266433716
1761401785734779400,4.242779296875,0.4025251567363739,-9.075895309448242,-3.584643602371216
1761401785744879900,4.2528798828125,0.4156184494495392,-9.081131935119629,-3.58217453956604
1761401785754951000,4.262950927734375,0.4321534037590027,-9.071630477905273,-3.600355625152588
1761401785765020200,4.273020263671875,0.46088382601737976,-9.057489395141602,-3.608436107635498
1761401785775111700,4.283111572265625,0.4902876019477844,-9.050830841064453,-3.612476348876953
1761401785785192400,4.2931923828125,0.48160862922668457,-9.061080932617188,-3.6070144176483154
1761401785795252700,4.303252685546875,0.45579615235328674,-9.075072288513184,-3.5847933292388916
1761401785805356800,4.313356689453125,0.4421791136264801,-9.081131935119629,-3.5615246295928955
1761401785815438600,4.3234384765625,0.42339959740638733,-9.078962326049805,-3.5545666217803955
1761401785825506600,4.333506591796875,0.4175637364387512,-9.0883150100708,-3.5755157470703125
1761401785835598300,4.343598388671875,0.41943421959877014,-9.076343536376953,-3.5876364707946777
1761401785845659400,4.353659423828125,0.4421791136264801,-9.06639289855957,-3.604395866394043
1761401785855762700,4.3637626953125,0.45669397711753845,-9.054422378540039,-3.604321002960205
1761401785865843700,4.37384375,0.4602852761745453,-9.06639289855957,-3.5911529064178467
1761401785875925500,4.383925537109375,0.46013563871383667,-9.069011688232422,-3.5984103679656982
1761401785886006300,4.39400634765625,0.4589385390281677,-9.085247039794922,-3.586214780807495
1761401785896088000,4.404088134765625,0.433874249458313,-9.0813570022583,-3.5878608226776123
1761401785906167000,4.4141669921875,0.43028295040130615,-9.084274291992188,-3.5883097648620605
1761401785916250400,4.42425048828125,0.4263175427913666,-9.064970970153809,-3.6087353229522705
1761401785926318600,4.434318603515625,0.42811319231987,-9.043049812316895,-3.6051440238952637
1761401785936410600,4.44441064453125,0.42437225580215454,-9.05606746673584,-3.6146459579467773
1761401785946493700,4.45449365234375,0.42018240690231323,-9.073426246643066,-3.592125654220581
1761401785956561200,4.46456103515625,0.43686699867248535,-9.088239669799805,-3.592649221420288
1761401785966654200,4.474654296875,0.44831427931785583,-9.093701362609863,-3.6040966510772705
1761401785976724500,4.484724365234375,0.4719569981098175,-9.084424018859863,-3.607388496398926
1761401785986805000,4.494804931640625,0.449810653924942,-9.075446128845215,-3.6080620288848877
1761401785996899800,4.50489990234375,0.42773908376693726,-9.070134162902832,-3.590479612350464
1761401786006981400,4.5149814453125,0.4308066666126251,-9.061080932617188,-3.5946693420410156
1761401786017062000,4.525061767578125,0.4496610164642334,-9.054272651672363,-3.5942952632904053
1761401786027131400,4.53513134765625,0.4445733428001404,-9.055170059204102,-3.5964651107788086
1761401786037223000,4.545222900390625,0.44322657585144043,-9.066243171691895,-3.6017024517059326
1761401786047293200,4.555293212890625,0.4412064850330353,-9.065046310424805,-3.590404748916626
1761401786057387300,4.56538720703125,0.4382137358188629,-9.064970970153809,-3.59025502204895
1761401786067455700,4.575455810546875,0.4287865459918976,-9.05943489074707,-3.6012535095214844
1761401786077549300,4.58554931640625,0.44786536693573,-9.057415008544922,-3.590928554534912
1761401786087630800,4.595630859375,0.4562450647354126,-9.066542625427246,-3.5843443870544434
1761401786097687600,4.6056875,0.4676923453807831,-9.059210777282715,-3.5963902473449707
1761401786107794000,4.6157939453125,0.4593874514102936,-9.051204681396484,-3.622502088546753
1761401786117874400,4.62587451171875,0.4512321949005127,-9.03983211517334,-3.622427225112915
1761401786127956200,4.635956298828125,0.4361936151981354,-9.048136711120605,-3.6069397926330566
1761401786138024200,4.646024169921875,0.4387374520301819,-9.06175422668457,-3.5948939323425293
1761401786148118000,4.656117919921875,0.4596867263317108,-9.064297676086426,-3.6006548404693604
1761401786158197200,4.666197265625,0.47554832696914673,-9.051653861999512,-3.611877679824829
1761401786168280800,4.67628076171875,0.5110124349594116,-9.045069694519043,-3.6192848682403564
1761401786178346800,4.6863466796875,0.4893149733543396,-9.050681114196777,-3.6285622119903564
1761401786188442600,4.696442626953125,0.4571428894996643,-9.055843353271484,-3.62878680229187
1761401786198512000,4.70651220703125,0.4346224367618561,-9.067365646362305,-3.6314053535461426
1761401786208604700,4.716604736328125,0.4339490532875061,-9.065793991088867,-3.6210055351257324
1761401786218686000,4.72668603515625,0.4522048532962799,-9.067290306091309,-3.6045455932617188
1761401786228765700,4.736765625,0.46993690729141235,-9.074249267578125,-3.6023008823394775
1761401786238855000,4.74685498046875,0.5006874203681946,-9.065869331359863,-3.595043420791626
1761401786248930000,4.756929931640625,0.518943190574646,-9.074024200439453,-3.595118284225464
1761401786258998500,4.76699853515625,0.5031564235687256,-9.04791259765625,-3.596240520477295
1761401786269092400,4.77709228515625,0.4786158800125122,-9.033173561096191,-3.608959674835205
1761401786279173600,4.787173583984375,0.45991119742393494,-9.040804862976074,-3.6085855960845947
1761401786289252600,4.797252685546875,0.44838908314704895,-9.060257911682129,-3.6153194904327393
1761401786299336000,4.8073359375,0.46410104632377625,-9.060855865478516,-3.624222755432129
1761401786309413600,4.81741357421875,0.4742763936519623,-9.064373016357422,-3.59564208984375
1761401786319500000,4.8275,0.48317983746528625,-9.062427520751953,-3.5948939323425293
1761401786329565000,4.83756494140625,0.4899883270263672,-9.06482219696045,-3.6029741764068604
1761401786339659000,4.847658935546875,0.4999392330646515,-9.04559326171875,-3.63110613822937
1761401786349746200,4.85774609375,0.4927566349506378,-9.048062324523926,-3.6453964710235596
1761401786359828200,4.867828125,0.516474187374115,-9.06407356262207,-3.652130126953125
1761401786369884400,4.877884521484375,0.5143044590950012,-9.061230659484863,-3.6536266803741455
1761401786379985400,4.8879853515625,0.5184195041656494,-9.060407638549805,-3.648090124130249
1761401786390066400,4.89806640625,0.5118354558944702,-9.066842079162598,-3.63342547416687
1761401786400122600,4.90812255859375,0.5169979333877563,-9.057938575744629,-3.616591215133667
1761401786410229200,4.918229248046875,0.49133509397506714,-9.025017738342285,-3.6280386447906494
1761401786420306400,4.928306396484375,0.4818331003189087,-9.020528793334961,-3.6319291591644287
1761401786430391300,4.938391357421875,0.4704606235027313,-9.022324562072754,-3.638213872909546
1761401786440460000,4.9484599609375,0.4835539162158966,-9.04566764831543,-3.626616954803467
1761401786450543900,4.9585439453125,0.47719433903694153,-9.045069694519043,-3.61606764793396
1761401786460634600,4.968634521484375,0.4874444901943207,-9.053000450134277,-3.6058173179626465
1761401786470716700,4.978716552734375,0.48886606097221375,-9.051504135131836,-3.6040966510772705
1761401786480790000,4.9887900390625,0.4783914387226105,-9.064223289489746,-3.6058173179626465
1761401786490878700,4.998878662109375,0.46993690729141235,-9.049858093261719,-3.6047699451446533
1761401786500960000,5.0089599609375,0.46252983808517456,-9.061080932617188,-3.598111152648926
1761401786511041000,5.019041015625,0.450334370136261,-9.051653861999512,-3.5820999145507812
1761401786521122300,5.029122314453125,0.4465186297893524,-9.058761596679688,-3.5951931476593018
1761401786531203300,5.039203369140625,0.45759180188179016,-9.068263053894043,-3.6007297039031982
1761401786541272600,5.0492724609375,0.4627543091773987,-9.058686256408691,-3.598111152648926
1761401786551364000,5.059364013671875,0.4792144298553467,-9.05367374420166,-3.5945944786071777
1761401786561447000,5.069447021484375,0.5015104413032532,-9.072004318237305,-3.5989341735839844
1761401786571528200,5.079528076171875,0.4924573600292206,-9.075072288513184,-3.60260009765625
1761401786581598500,5.089598388671875,0.5033060908317566,-9.069759368896484,-3.589357376098633
1761401786591677700,5.099677734375,0.5095160603523254,-9.064373016357422,-3.584643602371216
1761401786601771800,5.109771728515625,0.5044283866882324,-9.047613143920898,-3.596914052963257
1761401786611844600,5.1198447265625,0.4960486590862274,-9.036090850830078,-3.6214544773101807
1761401786621934600,5.1299345703125,0.4967968463897705,-9.028609275817871,-3.625270366668701
1761401786632000300,5.140000244140625,0.5121347308158875,-9.068861961364746,-3.6112043857574463
1761401786642092800,5.1500927734375,0.5123591423034668,-9.093851089477539,-3.5923500061035156
1761401786652176000,5.16017578125,0.5039046406745911,-9.114352226257324,-3.592125654220581
1761401786662259200,5.17025927734375,0.48654666543006897,-9.080758094787598,-3.593247890472412
1761401786672340000,5.180340087890625,0.47719433903694153,-9.049259185791016,-3.5860652923583984
1761401786682419200,5.190419189453125,0.4837783873081207,-9.036465644836426,-3.60260009765625
1761401786692503000,5.2005029296875,0.47891515493392944,-9.035866737365723,-3.607164144515991
1761401786702579000,5.210578857421875,0.5019593238830566,-9.04439640045166,-3.6110546588897705
1761401786712665300,5.220665283203125,0.5158008337020874,-9.053823471069336,-3.61030650138855
1761401786722733800,5.23073388671875,0.5284451842308044,-9.063549995422363,-3.6147208213806152
1761401786732802300,5.24080224609375,0.5076456069946289,-9.06639289855957,-3.617863178253174
1761401786742897000,5.25089697265625,0.4877437651157379,-9.06983470916748,-3.6237738132476807
1761401786752971800,5.2609716796875,0.49043726921081543,-9.062203407287598,-3.6326024532318115
1761401786763071200,5.2710712890625,0.4843021035194397,-9.058536529541016,-3.6105310916900635
1761401786773149400,5.2811494140625,0.4843021035194397,-9.047762870788574,-3.61262583732605
1761401786783233300,5.2912333984375,0.4850502908229828,-9.044994354248047,-3.6146459579467773
1761401786793314300,5.301314208984375,0.48138418793678284,-9.047987937927246,-3.6239984035491943
1761401786803383600,5.311383544921875,0.5086182355880737,-9.037812232971191,-3.6431519985198975
1761401786813477000,5.32147705078125,0.5345803499221802,-9.041478157043457,-3.6495864391326904
1761401786823545600,5.331545654296875,0.5336825251579285,-9.042824745178223,-3.640982151031494
1761401786833627000,5.341626953125,0.4958990216255188,-9.042450904846191,-3.6239984035491943
1761401786843720700,5.351720703125,0.47996261715888977,-9.066019058227539,-3.606565475463867
1761401786853801700,5.3618017578125,0.4775684177875519,-9.076493263244629,-3.596839189529419
1761401786863867400,5.371867431640625,0.4718073606491089,-9.108141899108887,-3.57985520362854
1761401786873959400,5.38195947265625,0.468889445066452,-9.091157913208008,-3.5809028148651123
1761401786884045300,5.39204541015625,0.4738274812698364,-9.080010414123535,-3.570502996444702
1761401786894127000,5.402127197265625,0.4750994145870209,-9.071331024169922,-3.566537618637085
1761401786904219100,5.41221923828125,0.46484923362731934,-9.079187393188477,-3.580528736114502
1761401786914289400,5.422289306640625,0.47083473205566406,-9.085322380065918,-3.578059673309326
1761401786924370400,5.432370361328125,0.4744260311126709,-9.086295127868652,-3.561375141143799
1761401786934437400,5.442437255859375,0.46671968698501587,-9.09497356414795,-3.5416977405548096
1761401786944530700,5.45253076171875,0.46649524569511414,-9.091681480407715,-3.5411739349365234
1761401786954612500,5.462612548828125,0.47494974732398987,-9.067290306091309,-3.554267168045044
1761401786964685600,5.472685546875,0.468889445066452,-9.03279972076416,-3.5782840251922607
1761401786974776000,5.482776123046875,0.47240591049194336,-9.032200813293457,-3.58756160736084
1761401786984845600,5.492845458984375,0.4704606235027313,-9.050755500793457,-3.597288131713867
1761401786994925000,5.502925048828125,0.4661959707736969,-9.061903953552246,-3.606191396713257
1761401787005017900,5.513017822265625,0.4627543091773987,-9.067665100097656,-3.589207649230957
1761401787015083300,5.523083251953125,0.4837035536766052,-9.074173927307129,-3.585017681121826
1761401787025182500,5.533182373046875,0.48460137844085693,-9.07911205291748,-3.586963176727295
1761401787035251200,5.543251220703125,0.47966334223747253,-9.068038940429688,-3.599607467651367
1761401787045329400,5.553329345703125,0.49402856826782227,-9.052925109863281,-3.620107889175415
1761401787055404800,5.56340478515625,0.49470192193984985,-9.04903507232666,-3.6290860176086426
1761401787065505000,5.573505126953125,0.5014356374740601,-9.060257911682129,-3.6307320594787598
1761401787075588000,5.583588134765625,0.5006874203681946,-9.074249267578125,-3.6326773166656494
1761401787085669000,5.593669189453125,0.4874444901943207,-9.0906343460083,-3.6222026348114014
1761401787095740400,5.603740478515625,0.4639514088630676,-9.071255683898926,-3.611428737640381
1761401787105828600,5.61382861328125,0.46260467171669006,-9.06182861328125,-3.609558343887329
1761401787115887600,5.6238876953125,0.4644751250743866,-9.045892715454102,-3.603273630142212
1761401787125985300,5.6339853515625,0.464325487613678,-9.029731750488281,-3.6138978004455566
1761401787136075300,5.6440751953125,0.47412675619125366,-9.03743839263916,-3.6245968341827393
1761401787146144800,5.654144775390625,0.4859481155872345,-9.047688484191895,-3.620556592941284
1761401787156238300,5.66423828125,0.49305590987205505,-9.061678886413574,-3.621828556060791
1761401787166319000,5.674319091796875,0.48729485273361206,-9.067290306091309,-3.610830307006836
1761401787176387800,5.684387939453125,0.49238255620002747,-9.064672470092773,-3.6064159870147705
1761401787186479600,5.694479736328125,0.497395396232605,-9.047613143920898,-3.617713689804077
1761401787196563000,5.70456298828125,0.47240591049194336,-9.034445762634277,-3.632228374481201
1761401787206644000,5.71464404296875,0.47143328189849854,-9.028834342956543,-3.6361191272735596
1761401787216724700,5.724724853515625,0.46260467171669006,-9.021800994873047,-3.6261680126190186
1761401787226806300,5.73480615234375,0.4602852761745453,-9.024943351745605,-3.6321535110473633
1761401787236876500,5.74487646484375,0.47906479239463806,-9.038934707641602,-3.63342547416687
1761401787246968000,5.754968017578125,0.4983680546283722,-9.05142879486084,-3.6209309101104736
1761401787257049900,5.7650498046875,0.4990414083003998,-9.051578521728516,-3.6192848682403564
1761401787267131000,5.775130859375,0.4983680546283722,-9.046566009521484,-3.623100519180298
1761401787277212400,5.78521240234375,0.50510174036026,-9.053823471069336,-3.629534959793091
1761401787287295200,5.795295166015625,0.489165335893631,-9.060033798217773,-3.6225767135620117
1761401787297375000,5.805375,0.4935048222541809,-9.061530113220215,-3.627664566040039
1761401787307456000,5.8154560546875,0.4877437651157379,-9.081131935119629,-3.6251955032348633
1761401787317528600,5.825528564453125,0.5035305619239807,-9.089362144470215,-3.6222774982452393
1761401787327618600,5.83561865234375,0.5187187790870667,-9.082404136657715,-3.611952543258667
1761401787337699600,5.845699462890625,0.5195417404174805,-9.066019058227539,-3.6052188873291016
1761401787347794200,5.855794189453125,0.5110872387886047,-9.045892715454102,-3.6028995513916016
1761401787357862000,5.86586181640625,0.5019593238830566,-9.056890487670898,-3.6204819679260254
1761401787367942700,5.875942626953125,0.48983868956565857,-9.038784980773926,-3.648164749145508
1761401787378017500,5.886017578125,0.4885667860507965,-9.027861595153809,-3.6628293991088867
1761401787388105500,5.89610546875,0.5019593238830566,-9.010578155517578,-3.6505589485168457
1761401787398165800,5.906165771484375,0.5068225860595703,-9.017012596130371,-3.6495864391326904
1761401787408268000,5.91626806640625,0.49155953526496887,-9.023746490478516,-3.6424038410186768
1761401787418349000,5.92634912109375,0.46971243619918823,-9.040580749511719,-3.6296098232269287
1761401787428430000,5.93643017578125,0.45489832758903503,-9.044546127319336,-3.598485231399536
1761401787438515000,5.946514892578125,0.44838908314704895,-9.054571151733398,-3.6006548404693604
1761401787448592400,5.95659228515625,0.4586392641067505,-9.058387756347656,-3.6028246879577637
1761401787458674000,5.966673828125,0.4738274812698364,-9.064223289489746,-3.6039469242095947
1761401787468755000,5.9767548828125,0.474500834941864,-9.063250541687012,-3.6100821495056152
1761401787478825700,5.98682568359375,0.4869955778121948,-9.06414794921875,-3.606565475463867
1761401787488910300,5.996910400390625,0.5029320120811462,-9.076493263244629,-3.6070892810821533
1761401787498986000,6.006986083984375,0.502632737159729,-9.07454776763916,-3.5809028148651123
1761401787509067300,6.0170673828125,0.4900631606578827,-9.084274291992188,-3.5718495845794678
1761401787519149800,6.02714990234375,0.4859481155872345,-9.085620880126953,-3.5755157470703125
1761401787529243000,6.037242919921875,0.4903624355792999,-9.079710960388184,-3.5896565914154053
1761401787539311600,6.0473115234375,0.4775684177875519,-9.065644264221191,-3.6074633598327637
1761401787549405000,6.057405029296875,0.4825064539909363,-9.043647766113281,-3.6162919998168945
1761401787559485700,6.067485595703125,0.48572367429733276,-9.039608001708984,-3.6215293407440186
1761401787569563000,6.07756298828125,0.4927566349506378,-9.048735618591309,-3.602151393890381
1761401787579646200,6.087646240234375,0.5258265733718872,-9.06983470916748,-3.5969886779785156
1761401787589729000,6.09772900390625,0.5500678420066833,-9.073949813842773,-3.60372257232666
1761401787599810600,6.107810546875,0.559869110584259,-9.05950927734375,-3.6035728454589844
1761401787609891600,6.1178916015625,0.5454290509223938,-9.053000450134277,-3.61030650138855
1761401787619973400,6.127973388671875,0.5136311054229736,-9.044171333312988,-3.6076130867004395
1761401787630029600,6.138029541015625,0.4885667860507965,-9.05711555480957,-3.620556592941284
1761401787647671600,6.155671630859375,0.4694879949092865,-9.055170059204102,-3.6109797954559326
1761401787657788400,6.165788330078125,0.47906479239463806,-9.057564735412598,-3.6062662601470947
1761401787667859200,6.175859130859375,0.4803367257118225,-9.049184799194336,-3.599083662033081
1761401787677941000,6.18594091796875,0.48983868956565857,-9.037213325500488,-3.6074633598327637
1761401787688021500,6.196021484375,0.48983868956565857,-9.038411140441895,-3.6170401573181152
1761401787698077700,6.20607763671875,0.4958242177963257,-9.062277793884277,-3.599158525466919
1761401787708183800,6.216183837890625,0.511386513710022,-9.074173927307129,-3.599233388900757
1761401787718265600,6.226265625,0.5149030089378357,-9.070508003234863,-3.6112043857574463
1761401787728346400,6.236346435546875,0.5150526165962219,-9.060931205749512,-3.614870548248291
1761401787738393000,6.24639306640625,0.5305401086807251,-9.063250541687012,-3.617339611053467
1761401787748508700,6.2565087890625,0.5042787194252014,-9.063324928283691,-3.615992784500122
1761401787758586400,6.26658642578125,0.4911854565143585,-9.074173927307129,-3.6064159870147705
1761401787768672000,6.276672119140625,0.4828057289123535,-9.076642990112305,-3.594370126724243
1761401787778752300,6.286752197265625,0.49238255620002747,-9.062203407287598,-3.593247890472412
1761401787788833500,6.29683349609375,0.4935796558856964,-9.056217193603516,-3.600430488586426
1761401787798914600,6.30691455078125,0.5055506229400635,-9.055020332336426,-3.6016275882720947
1761401787808996400,6.316996337890625,0.5147533416748047,-9.04910945892334,-3.6111295223236084
1761401787819077600,6.32707763671875,0.5183446407318115,-9.063400268554688,-3.6111295223236084
1761401787829124900,6.337124755859375,0.5195417404174805,-9.068188667297363,-3.6111295223236084
1761401787839239700,6.34723974609375,0.496871680021286,-9.06946086883545,-3.596689462661743
1761401787849321500,6.357321533203125,0.4742015600204468,-9.056442260742188,-3.599008798599243
1761401787859402000,6.367402099609375,0.47891515493392944,-9.057564735412598,-3.6133739948272705
1761401787869483800,6.37748388671875,0.4753238558769226,-9.04447078704834,-3.6132993698120117
1761401787879564300,6.387564208984375,0.47652095556259155,-9.057564735412598,-3.6169652938842773
1761401787889614800,6.39761474609375,0.4934300184249878,-9.065869331359863,-3.599158525466919
1761401787899721700,6.4077216796875,0.499340683221817,-9.064597129821777,-3.6135237216949463
1761401787909807900,6.417807861328125,0.5125088095664978,-9.068113327026367,-3.613598585128784
1761401787919889000,6.427888916015625,0.5125088095664978,-9.057415008544922,-3.6254947185516357
1761401787929971200,6.43797119140625,0.5076456069946289,-9.046640396118164,-3.638662815093994
1761401787940051700,6.4480517578125,0.4932803809642792,-9.029955863952637,-3.6433017253875732
1761401787950133200,6.45813330078125,0.49215808510780334,-9.027562141418457,-3.6421046257019043
1761401787960210700,6.468210693359375,0.4825812876224518,-9.031228065490723,-3.6397104263305664
1761401787970269400,6.47826953125,0.48632222414016724,-9.050307273864746,-3.6326024532318115
1761401787980376800,6.488376953125,0.4695627987384796,-9.058686256408691,-3.626616954803467
1761401787990457900,6.498457763671875,0.4612579345703125,-9.073126792907715,-3.622950792312622
1761401788000513000,6.508512939453125,0.4803367257118225,-9.057489395141602,-3.624222755432129
1761401788010620000,6.518619873046875,0.48983868956565857,-9.044246673583984,-3.64577054977417
1761401788020696800,6.52869677734375,0.49702131748199463,-9.040655136108398,-3.644648313522339
1761401788030782500,6.538782470703125,0.5113117098808289,-9.044171333312988,-3.6518309116363525
1761401788040855000,6.54885498046875,0.5184943079948425,-9.044171333312988,-3.6531028747558594
1761401788050944500,6.558944580078125,0.49462711811065674,-9.069311141967773,-3.645845413208008
1761401788061026300,6.5690263671875,0.4767454266548157,-9.062277793884277,-3.6326024532318115
1761401788071082000,6.57908203125,0.4696376323699951,-9.055170059204102,-3.6122517585754395
1761401788081163500,6.58916357421875,0.4695627987384796,-9.050381660461426,-3.6337249279022217
1761401788091243800,6.599243896484375,0.48385319113731384,-9.037138938903809,-3.6564698219299316
1761401788101325600,6.60932568359375,0.4825812876224518,-9.041927337646484,-3.6648495197296143
1761401788111407400,6.619407470703125,0.4861725866794586,-9.031153678894043,-3.6636524200439453
1761401788121477000,6.62947705078125,0.5029320120811462,-9.01671314239502,-3.669712543487549
1761401788131578000,6.639578125,0.5211129784584045,-9.006986618041992,-3.6782419681549072
1761401788141659400,6.649659423828125,0.530614972114563,-8.993818283081055,-3.6866965293884277
1761401788151741200,6.6597412109375,0.5223100781440735,-9.006986618041992,-3.6747255325317383
1761401788161837600,6.669837646484375,0.514005184173584,-9.024943351745605,-3.657966136932373
1761401788171919400,6.67991943359375,0.5163993835449219,-9.05599308013916,-3.6495864391326904
1761401788182000000,6.690000244140625,0.5104138851165771,-9.067964553833008,-3.6436009407043457
1761401788192081700,6.70008154296875,0.5080944895744324,-9.07754135131836,-3.6257193088531494
1761401788202162400,6.710162353515625,0.5081692934036255,-9.068038940429688,-3.6053683757781982
1761401788212240000,6.720239990234375,0.5090671181678772,-9.059734344482422,-3.619584083557129
1761401788222325500,6.730325439453125,0.4875193238258362,-9.055020332336426,-3.6254947185516357
1761401788232406500,6.740406494140625,0.472031831741333,-9.04679012298584,-3.6158430576324463
1761401788242487600,6.750487548828125,0.4744260311126709,-9.057489395141602,-3.6098575592041016
1761401788252568800,6.76056884765625,0.45646950602531433,-9.059958457946777,-3.6181623935699463
1761401788262634000,6.770634033203125,0.491110622882843,-9.055020332336426,-3.623100519180298
1761401788272731600,6.780731689453125,0.4826560914516449,-9.04551887512207,-3.642179250717163
1761401788282808000,6.79080810546875,0.4982184171676636,-9.037063598632812,-3.6493618488311768
1761401788292892000,6.800891845703125,0.5004629492759705,-9.027562141418457,-3.6600611209869385
1761401788302974500,6.810974365234375,0.4944774806499481,-9.01087760925293,-3.6588640213012695
1761401788313056000,6.821055908203125,0.4932803809642792,-9.020379066467285,-3.6612582206726074
1761401788323111700,6.831111572265625,0.5052513480186462,-9.026365280151367,-3.6541502475738525
1761401788333218000,6.841218017578125,0.5148282051086426,-9.038261413574219,-3.6482396125793457
1761401788343297000,6.851297119140625,0.5196166038513184,-9.044171333312988,-3.644648313522339
1761401788353380400,6.86138037109375,0.5172972083091736,-9.025093078613281,-3.6290860176086426
1761401788363462000,6.8714619140625,0.5232079029083252,-9.022698402404785,-3.6302831172943115
1761401788373543000,6.88154296875,0.5117605924606323,-9.004592895507812,-3.6436009407043457
1761401788383624400,6.89162451171875,0.5033808946609497,-8.998682022094727,-3.6483893394470215
1761401788393705200,6.901705322265625,0.5284451842308044,-8.989029884338379,-3.658041000366211
1761401788403794400,6.91179443359375,0.5499930381774902,-9.016413688659668,-3.648613691329956
1761401788413867800,6.92186767578125,0.5787234306335449,-9.042600631713867,-3.6308069229125977
1761401788423949000,6.931948974609375,0.6013935208320618,-9.061604499816895,-3.634547710418701
1761401788434011100,6.94201123046875,0.5870283246040344,-9.058088302612305,-3.644049882888794
1761401788444111600,6.952111572265625,0.5833622217178345,-9.03175163269043,-3.6798131465911865
1761401788454192400,6.9621923828125,0.5688473582267761,-9.016339302062988,-3.700014352798462
1761401788464273700,6.972273681640625,0.5376479029655457,-9.028385162353516,-3.724928855895996
1761401788474329900,6.982329833984375,0.5424363017082214,-9.046266555786133,-3.7333834171295166
1761401788484436000,6.99243603515625,0.5663783550262451,-9.073650360107422,-3.716773748397827
1761401788494517200,7.002517333984375,0.5736357569694519,-9.058088302612305,-3.6833295822143555
1761401788504599000,7.01259912109375,0.5689221620559692,-9.044994354248047,-3.6665701866149902
1761401788514679600,7.022679443359375,0.5665279626846313,-9.041478157043457,-3.668964385986328
1761401788524760800,7.0327607421875,0.5437830686569214,-9.052251815795898,-3.678391695022583
1761401788534842400,7.04284228515625,0.511536180973053,-9.032125473022461,-3.680636167526245
1761401788544898600,7.052898681640625,0.4911854565143585,-9.042974472045898,-3.682955503463745
1761401788555004400,7.06300439453125,0.472031831741333,-9.032275199890137,-3.686472177505493
1761401788565085400,7.07308544921875,0.4744260311126709,-9.026289939880371,-3.6900634765625
1761401788575141600,7.0831416015625,0.48647186160087585,-9.022698402404785,-3.6733787059783936
1761401788585248000,7.093248046875,0.5199906826019287,-9.02015495300293,-3.6483893394470215
1761401788595329000,7.1033291015625,0.5260509848594666,-9.024943351745605,-3.632901906967163
1761401788605411000,7.1134111328125,0.5331587791442871,-9.027262687683105,-3.63649320602417
1761401788615491600,7.12349169921875,0.5197662115097046,-9.036989212036133,-3.6315550804138184
1761401788625572600,7.133572509765625,0.5149778127670288,-9.027486801147461,-3.6267666816711426
1761401788635629000,7.143629150390625,0.5185691118240356,-9.033397674560547,-3.639934778213501
1761401788645709600,7.15370947265625,0.5185691118240356,-9.044171333312988,-3.64113187789917
1761401788655817200,7.163817138671875,0.5268740057945251,-9.05487060546875,-3.641206741333008
1761401788665898000,7.17389794921875,0.5233575105667114,-9.033397674560547,-3.636343479156494
1761401788675978800,7.183978759765625,0.5353285074234009,-9.042900085449219,-3.632827043533325
1761401788686055200,7.19405517578125,0.5353285074234009,-9.036913871765137,-3.636418342590332
1761401788696141300,7.204141357421875,0.5642085671424866,-9.039084434509277,-3.648613691329956
1761401788706222800,7.214222900390625,0.573710560798645,-9.052177429199219,-3.6534769535064697
1761401788716288800,7.224288818359375,0.6011691093444824,-9.037736892700195,-3.670311212539673
1761401788726385700,7.2343857421875,0.6046855449676514,-9.013794898986816,-3.688192844390869
1761401788736465400,7.24446533203125,0.5592705607414246,-8.998457908630371,-3.7119104862213135
1761401788746548000,7.2545478515625,0.5281459093093872,-9.006912231445312,-3.724928855895996
1761401788756628200,7.264628173828125,0.5293430089950562,-9.02486801147461,-3.706972360610962
1761401788766709500,7.27470947265625,0.530614972114563,-9.045144081115723,-3.6926820278167725
1761401788776791300,7.284791259765625,0.5568763613700867,-9.049782752990723,-3.699939489364624
1761401788786871800,7.294871826171875,0.5843348503112793,-9.03175163269043,-3.7012860774993896
1761401788796953600,7.30495361328125,0.5711667537689209,-9.022250175476074,-3.7071969509124756
1761401788807031800,7.31503173828125,0.5627870559692383,-9.016339302062988,-3.7131075859069824
1761401788817111800,7.32511181640625,0.5639841556549072,-8.988805770874023,-3.721487283706665
1761401788827195100,7.335195068359375,0.5640589594841003,-8.986486434936523,-3.7083191871643066
1761401788837278500,7.345278564453125,0.5784241557121277,-8.9935941696167,-3.698817253112793
1761401788847356000,7.35535595703125,0.5975029468536377,-9.019781112670898,-3.7060744762420654
1761401788857440800,7.365440673828125,0.6011691093444824,-9.026888847351074,-3.710937738418579
1761401788867521300,7.375521240234375,0.6061071157455444,-9.030479431152344,-3.669188976287842
1761401788877602000,7.38560205078125,0.6037129163742065,-9.029282569885254,-3.6739025115966797
1761401788887683800,7.395683837890625,0.5856816172599792,-9.013794898986816,-3.694178342819214
1761401788897764900,7.405764892578125,0.5713163614273071,-8.999505043029785,-3.7107882499694824
1761401788907846100,7.41584619140625,0.5653308629989624,-8.998382568359375,-3.7143795490264893
1761401788917923300,7.42592333984375,0.5629366636276245,-9.011475563049316,-3.7036056518554688
1761401788928008700,7.4360087890625,0.553509533405304,-9.018733024597168,-3.673678159713745
1761401788938089700,7.44608984375,0.5409399271011353,-9.023820877075195,-3.6506338119506836
1761401788948171000,7.4561708984375,0.54460608959198,-9.008333206176758,-3.64345121383667
1761401788958252000,7.466251953125,0.5493196249008179,-9.004667282104492,-3.662604808807373
1761401788968333600,7.47633349609375,0.5528361201286316,-9.017760276794434,-3.684152603149414
1761401788978410500,7.486410400390625,0.5468506217002869,-9.011850357055664,-3.6757729053497314
1761401788988496000,7.496495849609375,0.5552303194999695,-9.007061958312988,-3.6685903072357178
1761401788998575000,7.5065751953125,0.5409399271011353,-9.008258819580078,-3.669712543487549
1761401789008658200,7.516658203125,0.5349544286727905,-9.010727882385254,-3.663727045059204
1761401789018739200,7.5267392578125,0.5543324947357178,-9.015291213989258,-3.662754535675049
1761401789028820700,7.53682080078125,0.5758803486824036,-9.02599048614502,-3.6593127250671387
1761401789038897400,7.5468974609375,0.5698948502540588,-9.046341896057129,-3.654524326324463
1761401789048983000,7.556983154296875,0.5698948502540588,-9.053449630737305,-3.6593127250671387
1761401789059042800,7.567042724609375,0.5829881429672241,-9.058162689208984,-3.673678159713745
1761401789069145300,7.577145263671875,0.5793219804763794,-9.058162689208984,-3.6951510906219482
1761401789079226600,7.5872265625,0.5984756350517273,-9.036615371704102,-3.6928317546844482
1761401789089307600,7.5973076171875,0.6164321303367615,-9.02935791015625,-3.667842149734497
1761401789099388700,7.607388671875,0.6228665113449097,-9.023222923278809,-3.6513073444366455
1761401789109466400,7.61746630859375,0.6085013151168823,-9.018508911132812,-3.663203477859497
1761401789119551200,7.62755126953125,0.5869535207748413,-8.99351978302002,-3.6786160469055176
1761401789129611500,7.637611572265625,0.5677999258041382,-8.975637435913086,-3.7036056518554688
1761401789139712300,7.647712158203125,0.5605424642562866,-8.981623649597168,-3.7131075859069824
1761401789149795000,7.657795166015625,0.5641337633132935,-9.000701904296875,-3.722759246826172
1761401789159875800,7.667875732421875,0.5844845175743103,-9.003021240234375,-3.7024831771850586
1761401789169953300,7.677953369140625,0.5881506204605103,-8.998308181762695,-3.688192844390869
1761401789180038400,7.688038330078125,0.6096984148025513,-9.017236709594727,-3.6955251693725586
1761401789190119400,7.698119384765625,0.6108955144882202,-9.020828247070312,-3.6979193687438965
1761401789200200700,7.70820068359375,0.5978022217750549,-9.01132583618164,-3.7002387046813965
1761401789210282000,7.718281982421875,0.577526330947876,-9.000627517700195,-3.691784143447876
1761401789220338200,7.728338134765625,0.5774515271186829,-9.019781112670898,-3.6989667415618896
1761401789230444300,7.7384443359375,0.5798457264900208,-9.029282569885254,-3.6977696418762207
1761401789240521700,7.748521728515625,0.5894225239753723,-9.03167724609375,-3.689464807510376
1761401789250606800,7.75860693359375,0.6013935208320618,-9.03279972076416,-3.684751272201538
1761401789260688000,7.76868798828125,0.6060323119163513,-9.022174835205078,-3.6595373153686523
1761401789270753500,7.77875341796875,0.6059575080871582,-9.016189575195312,-3.664325714111328
1761401789280850200,7.78885009765625,0.609548807144165,-9.017386436462402,-3.6810851097106934
1761401789290931200,7.79893115234375,0.6022913455963135,-9.029282569885254,-3.7013609409332275
1761401789301008600,7.809008544921875,0.5891232490539551,-8.998308181762695,-3.7072715759277344
1761401789311094000,7.819093994140625,0.593986451625824,-8.997110366821289,-3.691709280014038
1761401789321175000,7.829175048828125,0.5868038535118103,-8.99351978302002,-3.6857237815856934
1761401789331231200,7.839231201171875,0.5617395639419556,-8.987683296203613,-3.673678159713745
1761401789341337300,7.84933740234375,0.5603179931640625,-9.026065826416016,-3.6616322994232178
1761401789351418600,7.859418701171875,0.569819986820221,-9.052251815795898,-3.6676177978515625
1761401789361496000,7.86949609375,0.5566518902778625,-9.071480751037598,-3.6664206981658936
1761401789371564800,7.879564697265625,0.5447556972503662,-9.047613143920898,-3.654374837875366
1761401789381639000,7.889638916015625,0.5411643981933594,-9.035717010498047,-3.662754535675049
1761401789391743500,7.899743408203125,0.5388450026512146,-9.038111686706543,-3.6519806385040283
1761401789401803300,7.90980322265625,0.5353285074234009,-9.01663875579834,-3.6280386447906494
1761401789411905800,7.91990576171875,0.5473743677139282,-9.023746490478516,-3.5934722423553467
1761401789421987000,7.929987060546875,0.5643582344055176,-9.029582023620605,-3.5948190689086914
1761401789432064300,7.940064208984375,0.5654805302619934,-9.040281295776367,-3.6139726638793945
1761401789442149600,7.950149658203125,0.5594950318336487,-9.042750358581543,-3.6199581623077393
1761401789452230400,7.96023046875,0.571391224861145,-9.040281295776367,-3.6343233585357666
1761401789462311700,7.970311767578125,0.5773767232894897,-9.06055736541748,-3.642703056335449
1761401789472393000,7.98039306640625,0.5785738229751587,-9.071331024169922,-3.6320040225982666
1761401789482474200,7.99047412109375,0.5810428261756897,-9.059359550476074,-3.6176388263702393
1761401789492551400,8.000551513671875,0.5798457264900208,-9.047389030456543,-3.621230125427246
1761401789502636500,8.010636474609376,0.5766285061836243,-9.060855865478516,-3.619658946990967
1761401789512673500,8.020673583984374,0.5563526153564453,-9.076493263244629,-3.6124014854431152
1761401789522773800,8.030773681640625,0.5336077213287354,-9.070582389831543,-3.6147208213806152
1761401789532880100,8.040880126953125,0.544456422328949,-9.046640396118164,-3.602749824523926
1761401789542941200,8.050941162109375,0.5706430077552795,-9.040580749511719,-3.620781183242798
1761401789553042400,8.06104248046875,0.5944353938102722,-9.036839485168457,-3.6507835388183594
1761401789563119900,8.071119873046875,0.602889895439148,-9.039234161376953,-3.637690305709839
1761401789573205000,8.081205078125,0.6040121912956238,-9.044022560119629,-3.6424787044525146
1761401789583286000,8.0912861328125,0.6072294116020203,-9.024569511413574,-3.6523547172546387
1761401789593367000,8.101366943359375,0.590470016002655,-9.019855499267578,-3.6558711528778076
1761401789603411200,8.1114111328125,0.5593453645706177,-9.036689758300781,-3.6652984619140625
1761401789613529600,8.121529541015626,0.5545569658279419,-9.053449630737305,-3.6712839603424072
1761401789623611100,8.131611083984374,0.5473743677139282,-9.054646492004395,-3.6712839603424072
1761401789633693000,8.14169287109375,0.5450549721717834,-9.045144081115723,-3.6581156253814697
1761401789643774000,8.15177392578125,0.5402665734291077,-9.048735618591309,-3.652130126953125
1761401789653832400,8.16183251953125,0.5486462712287903,-9.031976699829102,-3.6437504291534424
1761401789663935500,8.171935546875,0.5423614978790283,-9.030928611755371,-3.657966136932373
1761401789674016500,8.1820166015625,0.549544095993042,-9.032051086425781,-3.654374837875366
1761401789684078600,8.19207861328125,0.5627121925354004,-9.042750358581543,-3.653252601623535
1761401789694179000,8.202178955078125,0.5746832489967346,-9.071405410766602,-3.6354455947875977
1761401789704260400,8.21226025390625,0.5723638534545898,-9.065420150756836,-3.6186861991882324
1761401789714341400,8.22234130859375,0.5425111651420593,-9.063176155090332,-3.6233251094818115
1761401789724422700,8.232422607421874,0.532934308052063,-9.070432662963867,-3.6221280097961426
1761401789734504000,8.24250390625,0.5281459093093872,-9.064447402954102,-3.6292357444763184
1761401789744562000,8.25256201171875,0.5354033708572388,-9.034445762634277,-3.6448729038238525
1761401789754666500,8.26266650390625,0.5366004705429077,-9.046416282653809,-3.6472671031951904
1761401789764747500,8.27274755859375,0.5581482648849487,-9.052327156066895,-3.627065896987915
1761401789774828500,8.28282861328125,0.5891980528831482,-9.053374290466309,-3.623624324798584
1761401789784910000,8.29291015625,0.6010942459106445,-9.050905227661133,-3.645172119140625
1761401789794991000,8.3029912109375,0.5746832489967346,-9.033098220825195,-3.680860757827759
1761401789805072100,8.313072021484375,0.5568015575408936,-9.006836891174316,-3.6926820278167725
1761401789815154000,8.32315380859375,0.5315876007080078,-9.016489028930664,-3.709291696548462
1761401789825234400,8.333234375,0.5246294736862183,-9.02127742767334,-3.6973955631256104
1761401789835316000,8.34331591796875,0.5163993835449219,-9.006986618041992,-3.660360336303711
1761401789845397500,8.3533974609375,0.5284451842308044,-8.990302085876465,-3.630507707595825
1761401789855478300,8.363478271484375,0.5487210750579834,-8.992547035217285,-3.6461446285247803
1761401789865559300,8.373559326171875,0.5701192617416382,-9.023521423339844,-3.6665701866149902
1761401789875640300,8.383640380859376,0.5652560591697693,-9.034220695495605,-3.7024085521698
1761401789885722400,8.393722412109375,0.5615899562835693,-9.039009094238281,-3.7107133865356445
1761401789895803100,8.40380322265625,0.548496663570404,-9.031901359558105,-3.6939539909362793
1761401789905877500,8.41387744140625,0.5351040959358215,-9.01895809173584,-3.686546802520752
1761401789915965400,8.42396533203125,0.5386953949928284,-9.02135181427002,-3.684227466583252
1761401789926046500,8.43404638671875,0.5422866940498352,-9.032051086425781,-3.6973955631256104
1761401789936128000,8.4441279296875,0.5601683855056763,-9.037961959838867,-3.703455924987793
1761401789946209000,8.454208984375,0.5578489899635315,-9.031976699829102,-3.6866965293884277
1761401789956290300,8.464290283203125,0.5530605912208557,-9.030854225158691,-3.681908130645752
1761401789966371300,8.474371337890625,0.5315876007080078,-9.02135181427002,-3.6782419681549072
1761401789976452400,8.484452392578126,0.5303156971931458,-9.017760276794434,-3.706897497177124
1761401789986533600,8.49453369140625,0.5309890508651733,-9.008333206176758,-3.7306151390075684
1761401789996617200,8.5046171875,0.5454290509223938,-9.007061958312988,-3.717521905899048
1761401790006696400,8.514696533203125,0.5514145493507385,-9.013047218322754,-3.6960489749908447
1761401790016777200,8.524777099609375,0.5502923130989075,-9.028609275817871,-3.6756980419158936
1761401790026858500,8.5348583984375,0.5550059080123901,-9.015440940856934,-3.7008373737335205
1761401790036917200,8.544917236328125,0.5441571474075317,-9.023820877075195,-3.7211132049560547
1761401790047017500,8.555017578125,0.5382464528083801,-9.01903247833252,-3.721038341522217
1761401790057098800,8.5650986328125,0.5239560604095459,-9.006013870239258,-3.7006876468658447
1761401790067158000,8.575157958984375,0.5397428274154663,-8.998682022094727,-3.694851875305176
1761401790077263600,8.585263671875,0.545728325843811,-8.99389362335205,-3.6985177993774414
1761401790087345700,8.595345703125,0.5516390204429626,-8.987833023071289,-3.7271735668182373
1761401790097427200,8.60542724609375,0.5527613162994385,-9.004517555236816,-3.73555326461792
1761401790107507700,8.6155078125,0.5504419207572937,-8.992621421813965,-3.7211880683898926
1761401790117589200,8.62558935546875,0.5576245188713074,-8.999804496765137,-3.705700397491455
1761401790127667000,8.6356669921875,0.5541080832481384,-9.005789756774902,-3.6890158653259277
1761401790137751600,8.64575146484375,0.5422118902206421,-9.023746490478516,-3.6698622703552246
1761401790147833000,8.6558330078125,0.5374234914779663,-9.033323287963867,-3.6685903072357178
1761401790157891800,8.665891845703126,0.5218611359596252,-9.05015754699707,-3.686472177505493
1761401790167995100,8.6759951171875,0.5122095346450806,-9.040580749511719,-3.710339307785034
1761401790178050800,8.68605078125,0.525377631187439,-9.028609275817871,-3.711611270904541
1761401790188158000,8.696157958984376,0.5433341264724731,-9.02135181427002,-3.6937294006347656
1761401790198235100,8.706235107421875,0.5553051829338074,-9.010578155517578,-3.68662166595459
1761401790208319700,8.71631982421875,0.564807116985321,-9.020079612731934,-3.6997897624969482
1761401790218401800,8.72640185546875,0.5683984756469727,-9.02359676361084,-3.704578161239624
1761401790228482000,8.73648193359375,0.5529109835624695,-9.014094352722168,-3.727248430252075
1761401790238563000,8.74656298828125,0.5565022826194763,-9.005714416503906,-3.729717254638672
1761401790248645400,8.756645263671874,0.5755810737609863,-9.007959365844727,-3.748870849609375
1761401790258722300,8.766722412109376,0.5995230674743652,-9.012673377990723,-3.7334582805633545
1761401790268807200,8.77680712890625,0.5924900770187378,-8.99239730834961,-3.703530788421631
1761401790278888000,8.786887939453125,0.5793219804763794,-8.986486434936523,-3.701061725616455
1761401790288969200,8.79696923828125,0.5637596845626831,-8.990152359008789,-3.7201404571533203
1761401790299050500,8.807050537109374,0.5481973886489868,-9.009305953979492,-3.7200655937194824
1761401790309131800,8.8171318359375,0.5374982953071594,-9.020005226135254,-3.7416136264801025
1761401790319209000,8.827208984375,0.5398924946784973,-9.008109092712402,-3.732036828994751
1761401790329269000,8.83726904296875,0.5506663918495178,-9.00085163116455,-3.724928855895996
1761401790339356700,8.847356689453125,0.5591208934783936,-9.003246307373047,-3.7082443237304688
1761401790349456600,8.85745654296875,0.5758803486824036,-9.021127700805664,-3.695225954055786
1761401790359537700,8.86753759765625,0.5950339436531067,-9.040131568908691,-3.6833295822143555
1761401790369618700,8.87761865234375,0.5879261493682861,-9.040205955505371,-3.6665701866149902
1761401790379700000,8.887699951171875,0.5675754547119141,-9.035492897033691,-3.6617069244384766
1761401790389777400,8.89777734375,0.549693763256073,-9.035567283630371,-3.6652235984802246
1761401790399862300,8.9078623046875,0.5400421023368835,-9.039234161376953,-3.681908130645752
1761401790409943800,8.91794384765625,0.548346996307373,-9.02359676361084,-3.7129578590393066
1761401790419999700,8.927999755859375,0.5615150928497314,-9.02591609954834,-3.7106385231018066
1761401790430106000,8.938106201171875,0.5710919499397278,-9.019930839538574,-3.699939489364624
1761401790440187100,8.948187255859375,0.5615899562835693,-9.005640029907227,-3.6867713928222656
1761401790450243600,8.95824365234375,0.550815999507904,-8.99853229522705,-3.6866965293884277
1761401790460349700,8.968349609375,0.5675754547119141,-9.00204849243164,-3.6891655921936035
1761401790470430700,8.9784306640625,0.5664531588554382,-9.013944625854492,-3.698817253112793
1761401790480512300,8.98851220703125,0.5700444579124451,-9.015142440795898,-3.700014352798462
1761401790490593000,8.998593017578125,0.5723638534545898,-9.015067100524902,-3.7131824493408203
1761401790500674300,9.00867431640625,0.5556044578552246,-9.02471923828125,-3.7095162868499756
1761401790510755300,9.01875537109375,0.553359866142273,-9.051054954528809,-3.676072359085083
1761401790520832800,9.028832763671875,0.5402665734291077,-9.045144081115723,-3.656918525695801
1761401790530918100,9.038918212890625,0.5366752743721008,-9.029657363891602,-3.6676177978515625
1761401790540999000,9.0489990234375,0.5581482648849487,-9.018808364868164,-3.676072359085083
1761401790551071000,9.059071044921875,0.5629366636276245,-9.034296035766602,-3.673678159713745
1761401790561161500,9.069161376953126,0.5593453645706177,-9.037886619567871,-3.673678159713745
1761401790571242500,9.079242431640624,0.5713163614273071,-9.02830982208252,-3.673752784729004
1761401790581319400,9.0893193359375,0.5653308629989624,-9.039084434509277,-3.6629788875579834
1761401790591404800,9.09940478515625,0.5510404706001282,-9.05943489074707,-3.6593127250671387
1761401790601486300,9.109486328125,0.5377975702285767,-9.049932479858398,-3.678391695022583
1761401790611567400,9.1195673828125,0.5497685670852661,-9.014019966125488,-3.674800395965576
1761401790621649400,9.1296494140625,0.571241557598114,-8.994791030883789,-3.6916346549987793
1761401790631729700,9.139729736328125,0.5864297747612,-8.999654769897461,-3.6878936290740967
1761401790641806000,9.14980615234375,0.5888239741325378,-9.014019966125488,-3.6843771934509277
1761401790651856600,9.159856689453125,0.5576993823051453,-9.02486801147461,-3.6961984634399414
1761401790661973500,9.169973388671876,0.5361515283584595,-9.035717010498047,-3.7009119987487793
1761401790672046300,9.18004638671875,0.5289689302444458,-9.025017738342285,-3.7068228721618652
1761401790682135800,9.1901357421875,0.5217863321304321,-9.003544807434082,-3.7043538093566895
1761401790692216800,9.200216796875,0.5290437340736389,-9.013047218322754,-3.6745758056640625
1761401790702298000,9.210298095703125,0.5315876007080078,-9.011924743652344,-3.6470425128936768
1761401790712395300,9.220395263671875,0.540790319442749,-9.012673377990723,-3.666645050048828
1761401790722442200,9.230442138671876,0.5443068146705627,-9.007884979248047,-3.688192844390869
1761401790732541400,9.24054150390625,0.5443068146705627,-9.023371696472168,-3.692981243133545
1761401790742629600,9.250629638671874,0.5490952134132385,-9.03175163269043,-3.6834044456481934
1761401790752704000,9.2607041015625,0.5694459080696106,-9.037662506103516,-3.662006378173828
1761401790762785000,9.270784912109375,0.5730372071266174,-9.040056228637695,-3.665597677230835
1761401790772862500,9.280862548828125,0.5730372071266174,-9.03167724609375,-3.664400577545166
1761401790782947600,9.290947509765624,0.5634604096412659,-9.03167724609375,-3.662006378173828
1761401790793003500,9.30100341796875,0.5739350318908691,-9.025766372680664,-3.6846015453338623
1761401790803110000,9.31110986328125,0.5714660286903381,-9.026963233947754,-3.694178342819214
1761401790813191200,9.321191162109375,0.5691466331481934,-9.036540031433105,-3.688192844390869
1761401790823272200,9.331272216796876,0.5523872375488281,-9.042600631713867,-3.674949884414673
1761401790833353500,9.341353515625,0.5477484464645386,-9.030704498291016,-3.652279853820801
1761401790843431000,9.351430908203126,0.5488707423210144,-9.022324562072754,-3.6617817878723145
1761401790853515800,9.361515869140625,0.5464017391204834,-9.03062915802002,-3.6833295822143555
1761401790863597000,9.37159716796875,0.5296422839164734,-9.034296035766602,-3.6939539909362793
1761401790873678000,9.381677978515626,0.5207388401031494,-9.034520149230957,-3.6925323009490967
1761401790883743700,9.39174365234375,0.5435585975646973,-9.02135181427002,-3.6758477687835693
1761401790893841200,9.401841064453125,0.5555295944213867,-9.026065826416016,-3.654449701309204
1761401790903922200,9.411922119140625,0.5663034915924072,-9.029582023620605,-3.6616322994232178
1761401790924084700,9.432084716796876,0.5303905010223389,-9.050082206726074,-3.661482572555542
1761401790934155300,9.4421552734375,0.5328595042228699,-9.044096946716309,-3.657891273498535
1761401790944247000,9.4522470703125,0.5316624045372009,-9.01783561706543,-3.662679672241211
1761401790954327800,9.462327880859375,0.5413140654563904,-9.010502815246582,-3.6711342334747314
1761401790964376600,9.47237646484375,0.5341314077377319,-9.008183479309082,-3.6651487350463867
1761401790974490000,9.482489990234376,0.5341314077377319,-9.009381294250488,-3.6711342334747314
1761401790984546300,9.49254638671875,0.5424363017082214,-9.017685890197754,-3.6878936290740967
1761401790994652700,9.502652587890625,0.5389198660850525,-9.038036346435547,-3.6687400341033936
1761401791004733400,9.5127333984375,0.5354033708572388,-9.035642623901367,-3.6531777381896973
1761401791014795300,9.522795166015625,0.5604676604270935,-9.034370422363281,-3.652130126953125
1761401791024896300,9.532896240234376,0.569969654083252,-9.045069694519043,-3.673678159713745
1761401791045082600,9.55308251953125,0.5761796236038208,-9.017461776733398,-3.6762218475341797
1761401791055120000,9.563119873046874,0.5511152744293213,-9.005640029907227,-3.676072359085083
1761401791065220900,9.573220947265625,0.5260509848594666,-9.015291213989258,-3.6724061965942383
1761401791075302100,9.58330224609375,0.515277087688446,-9.039234161376953,-3.6747255325317383
1761401791085383200,9.593383056640626,0.5307645797729492,-9.063026428222656,-3.6700868606567383
1761401791095477800,9.603477783203125,0.5331587791442871,-9.053449630737305,-3.673678159713745
1761401791105520600,9.613520751953125,0.5570259690284729,-9.02471923828125,-3.6928317546844482
1761401791115627300,9.623627197265625,0.5480477213859558,-9.030854225158691,-3.709291696548462
1761401791125707800,9.633707763671875,0.5396680235862732,-9.016563415527344,-3.714005470275879
1761401791135789000,9.6437890625,0.5338321328163147,-8.978405952453613,-3.6828808784484863
1761401791145870800,9.653870849609374,0.5398924946784973,-8.985589027404785,-3.6542251110076904
1761401791155951400,9.663951416015625,0.5400421023368835,-8.990377426147461,-3.6231753826141357
1761401791166033200,9.674033203125,0.5268740057945251,-8.992846488952637,-3.6290860176086426
1761401791176113700,9.68411376953125,0.5327847003936768,-9.001151084899902,-3.641057014465332
1761401791186195000,9.69419482421875,0.5303156971931458,-9.026215553283691,-3.6566193103790283
1761401791196276200,9.704276123046874,0.5199158787727356,-9.05479621887207,-3.66155743598938
1761401791206357200,9.714357177734374,0.5127332806587219,-9.066766738891602,-3.6639516353607178
1761401791216438800,9.724438720703125,0.5211129784584045,-9.075072288513184,-3.653252601623535
1761401791226494200,9.734494140625,0.5497685670852661,-9.066617012023926,-3.6664955615997314
1761401791236600800,9.744600830078125,0.5832125544548035,-9.077241897583008,-3.673827648162842
1761401791246657000,9.754656982421874,0.5856067538261414,-9.080758094787598,-3.6750247478485107
1761401791256763400,9.764763427734374,0.5856067538261414,-9.079561233520508,-3.672630548477173
1761401791266844400,9.774844482421875,0.554631769657135,-9.06063175201416,-3.653402090072632
1761401791276925700,9.78492578125,0.552312433719635,-9.02711296081543,-3.673678159713745
1761401791287004400,9.79500439453125,0.5247790813446045,-9.011700630187988,-3.6866965293884277
1761401791297084000,9.805083984375,0.5282955765724182,-9.02239990234375,-3.701061725616455
1761401791307167000,9.8151669921875,0.5152022838592529,-9.006912231445312,-3.6938042640686035
1761401791317225200,9.82522509765625,0.49971479177474976,-9.007061958312988,-3.6770448684692383
1761401791327320600,9.835320556640625,0.4985176920890808,-9.005864143371582,-3.6734535694122314
1761401791337388000,9.845387939453126,0.49140989780426025,-9.027412414550781,-3.6662709712982178
1761401791347468300,9.85546826171875,0.46507367491722107,-9.009531021118164,-3.6792895793914795
1761401791357575400,9.865575439453124,0.474500834941864,-9.011924743652344,-3.6792895793914795
1761401791367635700,9.8756357421875,0.46971243619918823,-9.01439380645752,-3.667318344116211
1761401791377737700,9.88573779296875,0.4853495657444,-9.027486801147461,-3.644648313522339
1761401791387818800,9.89581884765625,0.515277087688446,-9.046490669250488,-3.6293106079101562
1761401791397874700,9.905874755859376,0.5368249416351318,-9.050007820129395,-3.6186113357543945
1761401791407977200,9.915977294921875,0.534355878829956,-9.045219421386719,-3.631779432296753
1761401791418062300,9.926062255859375,0.5235819816589355,-9.040431022644043,-3.6484642028808594
1761401791428143400,9.936143310546875,0.5199158787727356,-9.028534889221191,-3.6687400341033936
1761401791438224600,9.946224609375,0.49462711811065674,-9.01200008392334,-3.662529945373535
1761401791448306400,9.956306396484376,0.49455228447914124,-9.022773742675781,-3.661332845687866
1761401791458387000,9.966386962890626,0.5088427066802979,-9.062128067016602,-3.6685903072357178
1761401791468468200,9.97646826171875,0.527996301651001,-9.075146675109863,-3.662679672241211
1761401791478532600,9.98653271484375,0.530465304851532,-9.044096946716309,-3.656694173812866
1761401791488649200,9.996649169921875,0.5435585975646973,-9.003395080566406,-3.6710593700408936
1761401791498712000,10.006712158203126,0.5471498966217041,-9.001001358032227,-3.6770448684692383
1761401791508767200,10.016767333984374,0.5482721924781799,-9.02247428894043,-3.68662166595459
1761401791518874600,10.02687451171875,0.5462520718574524,-9.047463417053223,-3.696423053741455
1761401791528955100,10.036955078125,0.5270984768867493,-9.051054954528809,-3.696348190307617
1761401791539032800,10.04703271484375,0.5092167854309082,-9.015366554260254,-3.6914100646972656
1761401791549118200,10.0571181640625,0.5043535232543945,-9.010578155517578,-3.7152771949768066
1761401791559198700,10.06719873046875,0.5150526165962219,-9.017685890197754,-3.727323055267334
1761401791569280800,10.07728076171875,0.510339081287384,-9.012897491455078,-3.7105636596679688
1761401791579361300,10.087361328125,0.515277087688446,-9.015291213989258,-3.6711342334747314
1761401791589442800,10.09744287109375,0.5212625861167908,-9.018882751464844,-3.656843900680542
1761401791599519500,10.10751953125,0.50644850730896,-9.013121604919434,-3.6828808784484863
1761401791609605600,10.117605712890626,0.524330198764801,-9.015440940856934,-3.6949265003204346
1761401791629767200,10.13776708984375,0.5590460896492004,-9.02479362487793,-3.6878936290740967
1761401791639849000,10.147848876953125,0.568622887134552,-9.052251815795898,-3.6724061965942383
1761401791649929500,10.157929443359375,0.5758054852485657,-9.055843353271484,-3.67966365814209
1761401791660010800,10.1680107421875,0.5768529772758484,-9.056965827941895,-3.7047278881073
1761401791670053400,10.178053466796875,0.5744587779045105,-9.048661231994629,-3.7107133865356445
1761401791680147700,10.188147705078125,0.5612906813621521,-9.020005226135254,-3.7213375568389893
1761401791690254800,10.1982548828125,0.5732616782188416,-9.02471923828125,-3.720215320587158
1761401791700335400,10.20833544921875,0.5734112858772278,-9.017611503601074,-3.6855742931365967
1761401791710417200,10.218417236328126,0.5948842763900757,-9.007959365844727,-3.67966365814209
1761401791720497700,10.22849755859375,0.607977569103241,-9.03055477142334,-3.695300579071045
1761401791730575000,10.2385751953125,0.6102969646453857,-9.025766372680664,-3.7299418449401855
1761401791740660200,10.24866015625,0.582763671875,-9.009156227111816,-3.7369747161865234
1761401791750741200,10.2587412109375,0.5553799867630005,-9.004517555236816,-3.7201404571533203
1761401791760822800,10.26882275390625,0.5616647601127625,-9.007959365844727,-3.7071220874786377
1761401791770903600,10.278903564453126,0.5472995638847351,-9.028385162353516,-3.701136589050293
1761401791780985300,10.2889853515625,0.5342062711715698,-9.05950927734375,-3.6902878284454346
1761401791791066400,10.29906640625,0.530614972114563,-9.046341896057129,-3.680711030960083
1761401791801168100,10.309168212890626,0.5211129784584045,-9.029657363891602,-3.6675429344177246
1761401791811228400,10.319228515625,0.5092167854309082,-9.051279067993164,-3.654374837875366
1761401791821309400,10.329309326171876,0.5057002902030945,-9.066842079162598,-3.6245222091674805
1761401791831390700,10.339390625,0.5045779943466187,-9.05015754699707,-3.5993828773498535
1761401791841472000,10.349471923828125,0.49148473143577576,-9.032275199890137,-3.589731454849243
1761401791851553500,10.359553466796875,0.5165489912033081,-9.045293807983398,-3.5982606410980225
1761401791861631000,10.369630859375,0.5140799880027771,-9.084723472595215,-3.606640338897705
1761401791871711500,10.37971142578125,0.5021837949752808,-9.05015754699707,-3.608959674835205
1761401791881771500,10.389771484375,0.49380409717559814,-8.999954223632812,-3.619584083557129
1761401791891894800,10.399894775390624,0.49140989780426025,-8.997559547424316,-3.6315550804138184
1761401791901959400,10.40995947265625,0.48063600063323975,-9.027486801147461,-3.6338744163513184
1761401791912040200,10.420040283203125,0.4734533727169037,-9.052626609802246,-3.624297618865967
1761401791922117400,10.430117431640625,0.4660463333129883,-9.047987937927246,-3.6181623935699463
1761401791932196000,10.440196044921874,0.4792144298553467,-9.050307273864746,-3.6087353229522705
1761401791942283800,10.45028369140625,0.48639702796936035,-9.037138938903809,-3.6147208213806152
1761401791952365300,10.460365234375,0.5113117098808289,-9.023896217346191,-3.6518309116363525
1761401791962446300,10.4704462890625,0.5112369060516357,-9.015440940856934,-3.685275077819824
1761401791972527600,10.480527587890625,0.52552729845047,-9.015366554260254,-3.6997148990631104
1761401791982608600,10.490608642578126,0.5220108032226562,-9.023820877075195,-3.68894100189209
1761401791992685600,10.500685546875,0.527996301651001,-9.030928611755371,-3.6674680709838867
1761401792002771200,10.510771240234375,0.5245546102523804,-9.042824745178223,-3.6722564697265625
1761401792012852200,10.520852294921875,0.5316624045372009,-9.039234161376953,-3.6914100646972656
1761401792022933500,10.53093359375,0.5327847003936768,-9.030854225158691,-3.705775260925293
1761401792033014300,10.54101416015625,0.5422866940498352,-9.016413688659668,-3.728520154953003
1761401792043071000,10.551071044921875,0.5374982953071594,-8.978256225585938,-3.73323392868042
1761401792053173200,10.56117333984375,0.5722141861915588,-8.954164505004883,-3.7297921180725098
1761401792063241000,10.571240966796875,0.5912929773330688,-8.950498580932617,-3.745354413986206
1761401792073339400,10.58133935546875,0.6090998649597168,-8.986262321472168,-3.766977071762085
1761401792083420400,10.59142041015625,0.6117185354232788,-9.021950721740723,-3.785083293914795
1761401792093501700,10.601501708984374,0.5961562395095825,-9.03399658203125,-3.783811330795288
1761401792103584000,10.611583984375,0.5544073581695557,-9.053299903869629,-3.766977071762085
1761401792113664000,10.6216640625,0.5401169657707214,-9.031901359558105,-3.744157314300537
1761401792123741000,10.631740966796874,0.5366004705429077,-9.015216827392578,-3.728595018386841
1761401792133826300,10.641826416015626,0.5414636731147766,-9.003246307373047,-3.7083191871643066
1761401792143908000,10.651908203125,0.5511152744293213,-9.005640029907227,-3.673678159713745
1761401792153988600,10.661988525390624,0.5595698356628418,-9.02711296081543,-3.6379146575927734
1761401792164070000,10.67206982421875,0.5556792616844177,-9.047613143920898,-3.6186113357543945
1761401792174151200,10.682151123046875,0.5532850623130798,-9.051204681396484,-3.6210055351257324
1761401792184232200,10.692232177734375,0.5497685670852661,-9.041702270507812,-3.5922751426696777
1761401792194313500,10.7023134765625,0.5581482648849487,-8.99509048461914,-3.5946693420410156
1761401792204394800,10.712394775390624,0.5688473582267761,-8.99860668182373,-3.605443239212036
1761401792214475800,10.722475830078125,0.568772554397583,-9.012897491455078,-3.6353707313537598
1761401792224557000,10.73255712890625,0.5794716477394104,-9.028385162353516,-3.6581156253814697
1761401792234638300,10.742638427734375,0.5901707410812378,-9.019930839538574,-3.6712839603424072
1761401792244691000,10.75269091796875,0.5975029468536377,-9.02943229675293,-3.665447950363159
1761401792254800400,10.76280029296875,0.5915922522544861,-9.034220695495605,-3.6355204582214355
1761401792264881700,10.772881591796875,0.5856067538261414,-9.019930839538574,-3.6355204582214355
1761401792274963000,10.782962890625,0.5963806509971619,-8.995988845825195,-3.646294355392456
1761401792285044000,10.7930439453125,0.5987749099731445,-8.985214233398438,-3.652279853820801
1761401792295125200,10.803125244140626,0.6213701367378235,-8.981548309326172,-3.672630548477173
1761401792305180200,10.81318017578125,0.665513277053833,-9.006388664245605,-3.687220335006714
1761401792315288000,10.8232880859375,0.6833949685096741,-9.012298583984375,-3.704054594039917
1761401792325362400,10.833362548828125,0.6860135793685913,-8.996662139892578,-3.7304654121398926
1761401792335449900,10.843449951171875,0.6691045761108398,-9.003844261169434,-3.7817163467407227
1761401792345513000,10.853512939453125,0.6259341239929199,-9.030255317687988,-3.8114194869995117
1761401792355612400,10.8636123046875,0.5829132795333862,-9.055543899536133,-3.8208465576171875
1761401792365693400,10.873693359375,0.5555295944213867,-9.046116828918457,-3.7752819061279297
1761401792375774700,10.883774658203125,0.5580734610557556,-9.054496765136719,-3.722759246826172
1761401792385856000,10.89385595703125,0.553509533405304,-9.056965827941895,-3.6605846881866455
1761401792395937000,10.90393701171875,0.5536591410636902,-9.072527885437012,-3.621155261993408
1761401792406018300,10.914018310546876,0.5285948514938354,-9.09534740447998,-3.5960161685943604
1761401792416099300,10.924099365234374,0.5048024654388428,-9.08951187133789,-3.5719993114471436
1761401792426180900,10.934180908203125,0.4833294749259949,-9.034669876098633,-3.5598785877227783
1761401792436261600,10.94426171875,0.5036801695823669,-9.015440940856934,-3.5731215476989746
1761401792446343000,10.954343017578125,0.5059995651245117,-9.031003952026367,-3.588683843612671
1761401792456424200,10.964424072265626,0.5083189606666565,-9.05367374420166,-3.5970635414123535
1761401792466505200,10.974505126953124,0.5070470571517944,-9.048885345458984,-3.630507707595825
1761401792476586500,10.98458642578125,0.4853495657444,-9.035792350769043,-3.6734535694122314
1761401792486667800,10.994667724609375,0.48160862922668457,-9.015440940856934,-3.731961965560913
1761401792496749000,11.0047490234375,0.4899135231971741,-8.995016098022461,-3.7642087936401367
1761401792506830000,11.014830078125,0.5173720121383667,-9.00204849243164,-3.7703440189361572
1761401792516911000,11.0249111328125,0.5258265733718872,-9.012823104858398,-3.7380969524383545
1761401792526992400,11.034992431640624,0.5629366636276245,-9.021052360534668,-3.719167947769165
1761401792537069600,11.045069580078126,0.5773018598556519,-9.018583297729492,-3.7012860774993896
1761401792547151600,11.055151611328125,0.5975777506828308,-9.006612777709961,-3.712134838104248
1761401792557232000,11.065232177734375,0.6190508008003235,-9.004069328308105,-3.739668130874634
1761401792567289300,11.075289306640625,0.598026692867279,-9.025840759277344,-3.7811927795410156
1761401792577398300,11.085398193359374,0.5680243372917175,-9.010354042053223,-3.8132898807525635
1761401792587479800,11.095479736328125,0.5226093530654907,-8.972345352172852,-3.8274307250976562
1761401792597561000,11.10556103515625,0.5118354558944702,-8.953267097473145,-3.83693265914917
1761401792607641900,11.115641845703125,0.5309890508651733,-8.979453086853027,-3.8250365257263184
1761401792617723400,11.125723388671876,0.5442319512367249,-8.978256225585938,-3.801244020462036
1761401792627800300,11.13580029296875,0.5633856058120728,-8.973393440246582,-3.798924684524536
1761401792637885400,11.145885498046875,0.5777508020401001,-8.973318099975586,-3.782240152359009
1761401792647967500,11.155967529296875,0.5657798051834106,-8.96501350402832,-3.797727584838867
1761401792658048000,11.166048095703125,0.5370493531227112,-8.938826560974121,-3.805957794189453
1761401792668129000,11.17612890625,0.5071966648101807,-8.917503356933594,-3.795034170150757
1761401792678185700,11.186185791015625,0.5274725556373596,-8.937705039978027,-3.8034887313842773
1761401792688287500,11.19628759765625,0.5455039143562317,-8.9627685546875,-3.7678000926971436
1761401792698372600,11.20637255859375,0.5526865124702454,-8.9866361618042,-3.76061749458313
1761401792708453600,11.21645361328125,0.5755062103271484,-9.003246307373047,-3.726125955581665
1761401792718535000,11.226534912109376,0.5755810737609863,-9.005640029907227,-3.708169460296631
1761401792728616200,11.2366162109375,0.5792471766471863,-9.009156227111816,-3.7130327224731445
1761401792738697200,11.246697265625,0.5792471766471863,-8.999654769897461,-3.721412420272827
1761401792748779000,11.256779052734375,0.587701678276062,-8.98888111114502,-3.7059249877929688
1761401792758846000,11.266845947265624,0.6031891703605652,-8.966060638427734,-3.720290184020996
1761401792768941000,11.276941162109376,0.5972036719322205,-8.979228973388672,-3.725078582763672
1761401792779022000,11.28702197265625,0.5972036719322205,-9.003096580505371,-3.719093084335327
1761401792789079000,11.2970791015625,0.60550856590271,-9.020977973937988,-3.723956346511841
1761401792799184400,11.307184326171875,0.6138882637023926,-9.060407638549805,-3.7228341102600098
1761401792809265400,11.317265380859375,0.6141875386238098,-9.028085708618164,-3.7061493396759033
1761401792819342800,11.3273427734375,0.6200982332229614,-8.99935531616211,-3.7420623302459717
1761401792829428000,11.337427978515626,0.623539924621582,-8.986112594604492,-3.7909939289093018
1761401792839509000,11.347509033203124,0.6197989583015442,-9.00167465209961,-3.8221185207366943
1761401792849583900,11.357583984375,0.6007201671600342,-9.018434524536133,-3.8040871620178223
1761401792859671800,11.367671875,0.6105214357376099,-8.99815845489502,-3.7491703033447266
1761401792869752800,11.3777529296875,0.6010942459106445,-8.989928245544434,-3.7024831771850586
1761401792879791000,11.387791015625,0.5975777506828308,-8.986336708068848,-3.6845266819000244
1761401792889915000,11.397914794921874,0.5920411944389343,-8.984167098999023,-3.7176713943481445
1761401792899954700,11.40795458984375,0.5823147296905518,-8.984167098999023,-3.757101058959961
1761401792910077400,11.418077392578125,0.5404162406921387,-8.965237617492676,-3.7807438373565674
1761401792920158500,11.428158447265625,0.5499181747436523,-8.947206497192383,-3.814262628555298
1761401792930239700,11.43823974609375,0.5547066330909729,-8.942418098449707,-3.7987003326416016
1761401792940321000,11.448321044921874,0.5798457264900208,-8.941145896911621,-3.7940614223480225
1761401792950376700,11.458376708984375,0.5906944274902344,-8.96621036529541,-3.7678749561309814
1761401792960483000,11.468483154296875,0.5715408325195312,-8.960299491882324,-3.7773020267486572
1761401792970564900,11.47856494140625,0.5926397442817688,-8.971821784973145,-3.811269760131836
1761401792980646000,11.48864599609375,0.5759551525115967,-8.958728790283203,-3.8052093982696533
1761401792990727200,11.49872705078125,0.5807435512542725,-8.94077205657959,-3.8004958629608154
1761401793010884900,11.518884765625,0.6226420998573303,-8.958579063415527,-3.7719900608062744
1761401793020970800,11.528970703125,0.6250362992286682,-9.068488121032715,-3.7458033561706543
1761401793031052000,11.539052001953126,0.6180033087730408,-9.076942443847656,-3.7159507274627686
1761401793041133800,11.5491337890625,0.6013935208320618,-9.079411506652832,-3.6716580390930176
1761401793051213800,11.5592138671875,0.5736357569694519,-9.033023834228516,-3.6869208812713623
1761401793061295600,11.569295654296875,0.5472247004508972,-9.018733024597168,-3.7297921180725098
1761401793071376400,11.57937646484375,0.5221604108810425,-9.02247428894043,-3.7117607593536377
1761401793081454300,11.589454345703125,0.4935796558856964,-8.997559547424316,-3.685275077819824
1761401793091539500,11.59953955078125,0.5199158787727356,-9.02015495300293,-3.6675429344177246
1761401793101620000,11.609619873046874,0.49971479177474976,-9.028609275817871,-3.6447231769561768
1761401793111655000,11.619655029296876,0.49717095494270325,-8.99396800994873,-3.6805613040924072
1761401793121782300,11.6297822265625,0.5006126165390015,-9.006986618041992,-3.737947463989258
1761401793131863600,11.639863525390625,0.4893149733543396,-9.036989212036133,-3.8022916316986084
1761401793141940700,11.649940673828125,0.45355159044265747,-9.021576881408691,-3.79376220703125
1761401793152000500,11.66000048828125,0.42018240690231323,-8.944138526916504,-3.7636849880218506
1761401793162081800,11.670081787109375,0.4346972405910492,-8.921394348144531,-3.735029458999634
1761401793172163000,11.6801630859375,0.4490624666213989,-8.94645881652832,-3.7088429927825928
1761401793182244000,11.690244140625,0.46574705839157104,-8.982147216796875,-3.724479913711548
1761401793192350500,11.7003505859375,0.5013607740402222,-9.01783561706543,-3.7748329639434814
1761401793202412500,11.71041259765625,0.49402856826782227,-9.035717010498047,-3.8262336254119873
1761401793212512800,11.7205126953125,0.503829836845398,-9.033173561096191,-3.8443398475646973
1761401793222594000,11.730593994140625,0.504952073097229,-8.985363960266113,-3.8657379150390625
1761401793232675000,11.740675048828125,0.5169231295585632,-8.957830429077148,-3.878906011581421
1761401793242731300,11.750731201171876,0.5265747308731079,-8.917203903198242,-3.851447582244873
1761401793252837600,11.760837646484376,0.5433341264724731,-8.899248123168945,-3.8395514488220215
1761401793262918700,11.770918701171874,0.5481973886489868,-8.899248123168945,-3.8168811798095703
1761401793272999400,11.78099951171875,0.5673509836196899,-8.886004447937012,-3.799074411392212
1761401793283081200,11.791081298828125,0.6007949709892273,-8.891840934753418,-3.814711570739746
1761401793293162200,11.801162353515625,0.6422445774078369,-8.939499855041504,-3.8423197269439697
1761401793303243500,11.811243408203126,0.6611737608909607,-9.000328063964844,-3.877110481262207
1761401793313324500,11.821324462890624,0.6634931564331055,-9.030180931091309,-3.898658275604248
1761401793323400700,11.831400634765625,0.6360346674919128,-9.051803588867188,-3.8914008140563965
1761401793333487600,11.841487548828125,0.6098480820655823,-9.03519344329834,-3.856610059738159
1761401793343568600,11.851568603515625,0.5777508020401001,-8.99120044708252,-3.816956043243408
1761401793353649400,11.8616494140625,0.5456535220146179,-8.956708908081055,-3.7749826908111572
1761401793363730400,11.87173046875,0.581566572189331,-8.960149765014648,-3.7428853511810303
1761401793373786600,11.88178662109375,0.5760299563407898,-8.986412048339844,-3.6904375553131104
1761401793383893000,11.89189306640625,0.572588324546814,-8.996063232421875,-3.6581904888153076
1761401793393974000,11.90197412109375,0.5618143677711487,-9.006836891174316,-3.647416591644287
1761401793404055800,11.912055908203126,0.554631769657135,-9.052251815795898,-3.6581156253814697
1761401793414139400,11.922139404296875,0.5199158787727356,-9.046416282653809,-3.6723313331604004
1761401793424217600,11.932217529296874,0.5078700184822083,-9.05359935760498,-3.6938042640686035
1761401793434299000,11.942298828125,0.5328595042228699,-9.069011688232422,-3.7154269218444824
1761401793444380400,11.95238037109375,0.4886415898799896,-9.062053680419922,-3.7223851680755615
1761401793454449200,11.96244921875,0.4910358190536499,-9.034520149230957,-3.731961965560913
1761401793464542200,11.972542236328126,0.5114613175392151,-9.02254867553711,-3.6997148990631104
1761401793474623500,11.98262353515625,0.5223848819732666,-9.011775016784668,-3.660360336303711
1761401793484704800,11.992704833984375,0.4984428584575653,-9.014244079589844,-3.6697874069213867
1761401793494785800,12.002785888671875,0.48879122734069824,-9.001151084899902,-3.6984431743621826
1761401793504867000,12.0128671875,0.5018097162246704,-8.973543167114258,-3.7271735668182373
1761401793514948400,12.0229482421875,0.5053262114524841,-8.940024375915527,-3.7665281295776367
1761401793525030000,12.03302978515625,0.4969464838504791,-8.919748306274414,-3.7736358642578125
1761401793535110700,12.043110595703125,0.5148282051086426,-8.935235977172852,-3.784484624862671
1761401793545166600,12.05316650390625,0.5195417404174805,-8.931644439697266,-3.7940614223480225
1761401793555272700,12.063272705078125,0.5160253047943115,-8.942418098449707,-3.784559488296509
1761401793565330000,12.073329833984374,0.5028571486473083,-8.938826560974121,-3.7892730236053467
1761401793575435300,12.083435302734374,0.5195417404174805,-8.960299491882324,-3.7929391860961914
1761401793585517300,12.093517333984375,0.5314379334449768,-8.98888111114502,-3.802590847015381
1761401793595597800,12.103597900390625,0.5326350331306458,-8.998457908630371,-3.8133647441864014
1761401793605678800,12.113678955078125,0.5338321328163147,-9.00204849243164,-3.8145618438720703
1761401793615760000,12.123759765625,0.5548562407493591,-8.981772422790527,-3.826383113861084
1761401793625841200,12.133841064453126,0.5800701975822449,-8.96852970123291,-3.8061821460723877
1761401793635922400,12.14392236328125,0.5943605899810791,-8.982820510864258,-3.8038628101348877
1761401793646004200,12.154004150390625,0.5825392007827759,-9.010354042053223,-3.7631614208221436
1761401793656085200,12.164085205078125,0.5562778115272522,-9.06182861328125,-3.753584623336792
1761401793666165800,12.174165771484375,0.5478981137275696,-9.078662872314453,-3.7416136264801025
1761401793676247300,12.184247314453126,0.5300164222717285,-9.075146675109863,-3.734356164932251
1761401793686335500,12.19433544921875,0.5157260298728943,-9.046490669250488,-3.741389036178589
1761401793696409600,12.20440966796875,0.531737208366394,-9.005640029907227,-3.750067949295044
1761401793706491000,12.214490966796875,0.548496663570404,-8.96733283996582,-3.7644331455230713
1761401793716572000,12.224572021484375,0.5436334013938904,-8.970924377441406,-3.7823150157928467
1761401793726627800,12.2346279296875,0.5328595042228699,-8.985289573669434,-3.7883005142211914
1761401793736713000,12.244712890625,0.5065233111381531,-8.98775863647461,-3.7857565879821777
1761401793746816300,12.254816162109375,0.4827309250831604,-8.987908363342285,-3.7701194286346436
1761401793756882000,12.2648818359375,0.4695627987384796,-8.98080062866211,-3.7700445652008057
1761401793766981000,12.274981201171874,0.4718821942806244,-8.947281837463379,-3.789198398590088
1761401793777055000,12.285054931640625,0.4654477834701538,-8.933140754699707,-3.817629337310791
1761401793787136300,12.29513623046875,0.45347675681114197,-8.939126014709473,-3.8175547122955322
1761401793797230000,12.30522998046875,0.42601826786994934,-8.965537071228027,-3.8198740482330322
1761401793807302700,12.315302734375,0.42856210470199585,-8.976310729980469,-3.7673511505126953
1761401793817403600,12.325403564453126,0.45848962664604187,-8.98693561553955,-3.7399675846099854
1761401793827464700,12.335464599609375,0.4704606235027313,-8.995314598083496,-3.7364509105682373
1761401793837542100,12.345542236328125,0.5098153352737427,-8.998682022094727,-3.764133930206299
1761401793847620600,12.35562060546875,0.49313074350357056,-8.976086616516113,-3.7520880699157715
1761401793857708800,12.365708740234375,0.5040542483329773,-8.96044921875,-3.735478401184082
1761401793867789600,12.37578955078125,0.49223291873931885,-8.964116096496582,-3.7031567096710205
1761401793877870600,12.38587060546875,0.5137059092521667,-9.014244079589844,-3.6973206996917725
1761401793887952000,12.395951904296876,0.5029320120811462,-9.047688484191895,-3.708019971847534
1761401793898033200,12.406033203125,0.47652095556259155,-9.040580749511719,-3.7508909702301025
1761401793908110300,12.4161103515625,0.4811597168445587,-9.032200813293457,-3.7796213626861572
1761401793918195500,12.426195556640625,0.46320322155952454,-9.031078338623047,-3.78912353515625
1761401793928251600,12.436251708984376,0.4644751250743866,-9.009531021118164,-3.7831380367279053
1761401793938358000,12.44635791015625,0.47891515493392944,-9.010652542114258,-3.7939867973327637
1761401793948414000,12.4564140625,0.469413161277771,-9.013047218322754,-3.7676503658294678
1761401793958520300,12.466520263671875,0.44442370533943176,-8.994117736816406,-3.7316625118255615
1761401793968577000,12.476576904296875,0.4289361834526062,-8.978630065917969,-3.726799488067627
1761401793978682600,12.4866826171875,0.4192845821380615,-8.989404678344727,-3.754257917404175
1761401793988763600,12.496763671875,0.4406827390193939,-9.009605407714844,-3.7782747745513916
1761401793998845000,12.506844970703124,0.4382137358188629,-9.016788482666016,-3.8093245029449463
1761401794008926500,12.516926513671875,0.4477905333042145,-8.99164867401123,-3.8058080673217773
1761401794019007000,12.527007080078125,0.44928690791130066,-8.9819974899292,-3.7951090335845947
1761401794029088300,12.537088134765625,0.4457704424858093,-8.98080062866211,-3.7772271633148193
1761401794039165700,12.547165771484375,0.44584524631500244,-8.977283477783203,-3.7520880699157715
1761401794049250800,12.557250732421876,0.44584524631500244,-8.971298217773438,-3.7496938705444336
1761401794059331800,12.567331787109374,0.4422539472579956,-8.977283477783203,-3.7461025714874268
1761401794069388000,12.577387939453125,0.4470423460006714,-9.007136344909668,-3.742586135864258
1761401794079495000,12.587494873046875,0.45654433965682983,-9.021427154541016,-3.7701194286346436
1761401794089552100,12.59755224609375,0.4373907148838043,-9.025017738342285,-3.783212661743164
1761401794099652900,12.60765283203125,0.4215291440486908,-9.022848129272461,-3.788973808288574
1761401794109741300,12.6177412109375,0.4216787815093994,-9.008482933044434,-3.7555298805236816
1761401794119794000,12.6277939453125,0.4289361834526062,-8.98701000213623,-3.7315878868103027
1761401794129900300,12.637900390625,0.4182371199131012,-8.991873741149902,-3.7196168899536133
1761401794139957800,12.647957763671876,0.43013331294059753,-9.014469146728516,-3.724479913711548
1761401794150061600,12.6580615234375,0.4313304126262665,-9.034819602966309,-3.723282814025879
1761401794160139800,12.668139892578125,0.4181622862815857,-9.030031204223633,-3.724405288696289
1761401794170225200,12.67822509765625,0.4158429205417633,-9.025317192077637,-3.7113118171691895
1761401794180300500,12.688300537109376,0.4014776945114136,-9.060033798217773,-3.705251693725586
1761401794190387200,12.69838720703125,0.39549219608306885,-9.063624382019043,-3.7148284912109375
1761401794200468200,12.70846826171875,0.3966892957687378,-9.037363052368164,-3.702857494354248
1761401794210549800,12.7185498046875,0.4290110170841217,-9.01095199584961,-3.692233085632324
1761401794220605700,12.728605712890625,0.43028295040130615,-9.006163597106934,-3.6850504875183105
1761401794230708000,12.7387080078125,0.4159177243709564,-9.050456047058105,-3.6838533878326416
1761401794240793600,12.748793701171875,0.41359832882881165,-9.068412780761719,-3.653925895690918
1761401794250874000,12.7588740234375,0.4100818634033203,-9.052850723266602,-3.6431519985198975
1761401794260956200,12.7689560546875,0.3959411084651947,-9.037288665771484,-3.6611084938049316
1761401794271037200,12.779037109375,0.39474400877952576,-9.04207706451416,-3.6587142944335938
1761401794281118500,12.789118408203125,0.3792565166950226,-9.061305046081543,-3.6419548988342285
1761401794291195400,12.7991953125,0.3875614106655121,-9.057639122009277,-3.6611084938049316
1761401794301280500,12.809280517578125,0.3898807764053345,-9.01940631866455,-3.6885669231414795
1761401794311336400,12.81933642578125,0.4113537669181824,-9.022848129272461,-3.6874446868896484
1761401794321442600,12.829442626953124,0.40776246786117554,-9.003769874572754,-3.694627285003662
1761401794331523600,12.839523681640625,0.40529346466064453,-9.016862869262695,-3.719691514968872
1761401794341580500,12.84958056640625,0.3895066976547241,-9.015815734863281,-3.7254526615142822
1761401794351686400,12.859686279296875,0.4098573923110962,-9.016937255859375,-3.7172226905822754
1761401794361763000,12.86976318359375,0.4206313192844391,-8.998981475830078,-3.7172226905822754
1761401794371848400,12.879848388671874,0.41464582085609436,-8.969202995300293,-3.7112371921539307
1761401794381929700,12.8899296875,0.4241477847099304,-8.964340209960938,-3.726799488067627
1761401794392010800,12.9000107421875,0.4265419840812683,-9.003769874572754,-3.7315878868103027
1761401794402091800,12.910091796875,0.4325275123119354,-9.040730476379395,-3.717372179031372
1761401794412173000,12.920173095703126,0.42429742217063904,-9.071929931640625,-3.67195725440979
1761401794422250500,12.93025048828125,0.4423287510871887,-9.093402862548828,-3.6349966526031494
