time,seconds_elapsed,z,y,x
1761399421111000800,0.094000732421875,-0.053042687475681305,-0.035006508231163025,-0.04153483733534813
1761399421121095700,0.104095703125,-0.054291728883981705,-0.0601205974817276,-0.07349368184804916
1761399421131168000,0.11416796875,-0.05715620145201683,-0.09034743160009384,-0.11248047649860382
1761399421141274600,0.124274658203125,-0.059354517608881,-0.11792629957199097,-0.141408309340477
1761399421151348500,0.134348388671875,-0.06045367568731308,-0.1315658539533615,-0.15789566934108734
1761399421161435600,0.144435546875,-0.06123640760779381,-0.13354766368865967,-0.16207580268383026
1761399421171510500,0.154510498046875,-0.06015390530228615,-0.13249847292900085,-0.15719620883464813
1761399421181597000,0.164596923828125,-0.058721669018268585,-0.13133269548416138,-0.1505013406276703
1761399421191678000,0.174677978515625,-0.05760585516691208,-0.13957637548446655,-0.14590485394001007
1761399421201735000,0.18473486328125,-0.05815543606877327,-0.16635584831237793,-0.14575497806072235
1761399421211839000,0.1948388671875,-0.0626852959394455,-0.19455091655254364,-0.15045137703418732
1761399421221903600,0.204903564453125,-0.06811447441577911,-0.2197149693965912,-0.15496458113193512
1761399421231989800,0.21498974609375,-0.07377679646015167,-0.24139834940433502,-0.1548813134431839
1761399421242077200,0.2250771484375,-0.07750727236270905,-0.25806891918182373,-0.1471872180700302
1761399421252136700,0.23513671875,-0.08366921544075012,-0.26669561862945557,-0.13990946114063263
1761399421262242300,0.2452421875,-0.08966462314128876,-0.2615329325199127,-0.13637882471084595
1761399421272306200,0.25530615234375,-0.09484399110078812,-0.2504247725009918,-0.13424712419509888
1761399421282403600,0.265403564453125,-0.09694238007068634,-0.23362097144126892,-0.1307831108570099
1761399421292484400,0.275484375,-0.093378446996212,-0.20845693349838257,-0.12980052828788757
1761399421302552600,0.285552490234375,-0.08583422750234604,-0.17962901294231415,-0.1298838108778
1761399421312638500,0.295638427734375,-0.07624157518148422,-0.15889491140842438,-0.12230627983808517
1761399421322714000,0.305714111328125,-0.06598277390003204,-0.1496686488389969,-0.10860010981559753
1761399421332807000,0.315806884765625,-0.05735604837536812,-0.1462046355009079,-0.088515505194664
1761399421342888200,0.32588818359375,-0.04892917349934578,-0.13945980370044708,-0.06200248748064041
1761399421352956000,0.335955810546875,-0.041851263493299484,-0.13997606933116913,-0.04086868092417717
1761399421363025700,0.346025634765625,-0.037221476435661316,-0.14340677857398987,-0.02864471636712551
1761399421373118000,0.356117919921875,-0.033874042332172394,-0.14855283498764038,-0.01916864514350891
1761399421383191000,0.36619091796875,-0.03267496079206467,-0.1514173001050949,-0.009076378308236599
1761399421393291300,0.376291259765625,-0.036755166947841644,-0.14555512368679047,-0.0020317763555794954
1761399421403377000,0.386376953125,-0.0424174964427948,-0.13008365035057068,-0.0002664624771568924
1761399421413452500,0.39645263671875,-0.04834628477692604,-0.11619429290294647,-0.0054624807089567184
1761399421423523300,0.4065234375,-0.049745213240385056,-0.1050361767411232,-0.01811944879591465
1761399421433599200,0.41659912109375,-0.04807982221245766,-0.10601875931024551,-0.03189222887158394
1761399421443694600,0.426694580078125,-0.04656431823968887,-0.11884226649999619,-0.04346669092774391
1761399421453775400,0.436775390625,-0.04696401208639145,-0.15483134984970093,-0.0501948706805706
1761399421463855900,0.44685595703125,-0.05161045119166374,-0.2041102647781372,-0.054508231580257416
1761399421473923800,0.456923828125,-0.05605704337358475,-0.2715252637863159,-0.06205245107412338
1761399421484004900,0.4670048828125,-0.06173602491617203,-0.3544616997241974,-0.06996305286884308
1761399421494086000,0.4770859375,-0.07231125235557556,-0.43836408853530884,-0.07845654338598251
1761399421504152000,0.487152099609375,-0.08606737852096558,-0.49332195520401,-0.0951770693063736
1761399421514247000,0.497246826171875,-0.09839127212762833,-0.5176699757575989,-0.12285585701465607
1761399421524340200,0.50734033203125,-0.10896649956703186,-0.5009161233901978,-0.15469811856746674
1761399421534421000,0.5174208984375,-0.1156613677740097,-0.48654383420944214,-0.18620730936527252
1761399421544480800,0.527480712890625,-0.11837595701217651,-0.48154765367507935,-0.21350306272506714
1761399421554559000,0.53755908203125,-0.11427909135818481,-0.4895082116127014,-0.2354196012020111
1761399421564652500,0.547652587890625,-0.11366289854049683,-0.5066617727279663,-0.25260642170906067
1761399421574743600,0.55774365234375,-0.12202315777540207,-0.5262300968170166,-0.26934361457824707
1761399421584824300,0.56782421875,-0.13469678163528442,-0.5449324250221252,-0.2894781827926636
1761399421594899200,0.577899169921875,-0.15456488728523254,-0.5768412947654724,-0.3085135817527771
1761399421604985000,0.587985107421875,-0.17323391139507294,-0.6042536497116089,-0.3227526843547821
1761399421615053600,0.598053466796875,-0.18247683346271515,-0.629917323589325,-0.33028024435043335
1761399421625132000,0.608132080078125,-0.18437537550926208,-0.6525166630744934,-0.3311295807361603
1761399421635228000,0.618227783203125,-0.18339279294013977,-0.6679048538208008,-0.32804861664772034
1761399421645305000,0.62830517578125,-0.18685680627822876,-0.681361198425293,-0.3185059428215027
1761399421655378700,0.638378662109375,-0.1893215924501419,-0.6916366815567017,-0.30175209045410156
1761399421665444600,0.648444580078125,-0.19303540885448456,-0.6851749420166016,-0.2833994925022125
1761399421675548400,0.65854833984375,-0.19904747605323792,-0.6631751656532288,-0.27097567915916443
1761399421685627000,0.668626953125,-0.2088899314403534,-0.6363790035247803,-0.2637312412261963
1761399421695711700,0.678711669921875,-0.22019793093204498,-0.6078841686248779,-0.2604004442691803
1761399421705779500,0.688779541015625,-0.23148927092552185,-0.5804718732833862,-0.255204439163208
1761399421715860700,0.69886083984375,-0.2411818504333496,-0.5523600578308105,-0.2441629022359848
1761399421725953500,0.70895361328125,-0.2452787160873413,-0.5309597849845886,-0.22599348425865173
1761399421736013800,0.719013916015625,-0.2422810047864914,-0.5181529521942139,-0.1979150027036667
1761399421746110000,0.72910986328125,-0.23588590323925018,-0.5105254650115967,-0.15461485087871552
1761399421756200200,0.7392001953125,-0.2272258847951889,-0.5077775716781616,-0.10270462930202484
1761399421766276400,0.7492763671875,-0.22232963144779205,-0.49750208854675293,-0.04716385900974274
1761399421776357000,0.759357177734375,-0.2174333781003952,-0.47573545575141907,-0.00816041324287653
1761399421786434800,0.769434814453125,-0.22960738837718964,-0.4542185962200165,0.010375382378697395
1761399421796518100,0.77951806640625,-0.25280627608299255,-0.4270893931388855,0.0054624807089567184
1761399421806584300,0.789584228515625,-0.27708765864372253,-0.41068530082702637,-0.020401032641530037
1761399421816678000,0.799677978515625,-0.3065151274204254,-0.40858688950538635,-0.05455819144845009
1761399421826760400,0.809760498046875,-0.3263499140739441,-0.4065551161766052,-0.09139662981033325
1761399421836828400,0.819828369140625,-0.3468508720397949,-0.40652182698249817,-0.12438801676034927
1761399421846921700,0.829921630859375,-0.37248122692108154,-0.41406604647636414,-0.13854382932186127
1761399421856984600,0.839984619140625,-0.39268243312835693,-0.42101070284843445,-0.11744333803653717
1761399421867090200,0.850090087890625,-0.3880859315395355,-0.44384321570396423,-0.05490792542695999
1761399421877145300,0.860145263671875,-0.342670738697052,-0.486493855714798,0.046697549521923065
1761399421887242800,0.87024267578125,-0.24661102890968323,-0.540036141872406,0.16076014935970306
1761399421897312500,0.8803125,-0.1324651539325714,-0.6302170753479004,0.2568531632423401
1761399421907405600,0.890405517578125,-0.038137443363666534,-0.730556845664978,0.30626532435417175
1761399421917487000,0.900487060546875,0.01886887475848198,-0.7860809564590454,0.30778080224990845
1761399421927573500,0.910573486328125,0.05327584221959114,-0.8340775370597839,0.27384015917778015
1761399421937634000,0.920634033203125,0.07214471697807312,-0.8734973073005676,0.23973296582698822
1761399421947731500,0.9307314453125,0.08528464287519455,-0.8469676375389099,0.25488802790641785
1761399421957809200,0.94080908203125,0.15636351704597473,-0.810195803642273,0.34666767716407776
1761399421967890200,0.95089013671875,0.27349042892456055,-0.8326786160469055,0.5204678177833557
1761399421977970400,0.960970458984375,0.3523299992084503,-0.8936318755149841,0.7875798344612122
1761399421988038700,0.97103857421875,0.3878028392791748,-0.9262069463729858,1.0791563987731934
1761399421998114000,0.981114013671875,0.43553292751312256,-0.8770446181297302,1.2763885259628296
1761399422008211700,0.991211669921875,0.567548394203186,-0.869200587272644,1.400793194770813
1761399422018280700,1.00128076171875,0.7609835267066956,-0.900276780128479,1.539237141609192
1761399422028361500,1.011361572265625,0.9738703966140747,-0.8515307903289795,1.725311279296875
1761399422038442200,1.021442138671875,1.1815612316131592,-0.7655966877937317,1.8431875705718994
1761399422048543200,1.031543212890625,1.300570011138916,-0.6366121768951416,1.8314299583435059
1761399422058605600,1.04160546875,1.3336447477340698,-0.46927371621131897,1.778387188911438
1761399422068682000,1.051681884765625,1.288895606994629,-0.31001242995262146,1.7678287029266357
1761399422078777600,1.061777587890625,1.1753159761428833,-0.2720748484134674,1.7978390455245972
1761399422088845300,1.07184521484375,1.0261636972427368,-0.4045400023460388,1.8142597675323486
1761399422098939100,1.081939208984375,0.9121177196502686,-0.6246047019958496,1.7475608587265015
1761399422109019400,1.092019287109375,0.8798924088478088,-0.7792028784751892,1.5663996934890747
1761399422119087400,1.10208740234375,0.9297541975975037,-0.8016523718833923,1.30646550655365
1761399422129178000,1.11217822265625,1.0098761320114136,-0.6829100251197815,1.0267964601516724
1761399422139241200,1.1222412109375,1.1177434921264648,-0.5229159593582153,0.7955403923988342
1761399422149342000,1.132342041015625,1.2156184911727905,-0.3869701325893402,0.6544485092163086
1761399422159422700,1.142422607421875,1.2267266511917114,-0.2791360914707184,0.5928956866264343
1761399422169491500,1.152491455078125,1.1920864582061768,-0.31154459714889526,0.5883657932281494
1761399422179576000,1.162576171875,1.166239619255066,-0.43170252442359924,0.637528121471405
1761399422189654300,1.172654296875,1.1378281116485596,-0.5500118732452393,0.7030779123306274
1761399422199736000,1.182736083984375,1.0812547206878662,-0.6941014528274536,0.7052595615386963
1761399422209814000,1.19281396484375,1.006345510482788,-0.8558774590492249,0.607284665107727
1761399422219907300,1.2029072265625,0.9146491289138794,-0.9265899658203125,0.4508878290653229
1761399422229987300,1.2129873046875,0.8350767493247986,-0.8807917237281799,0.31347644329071045
1761399422240056800,1.223056884765625,0.7775708436965942,-0.7927758097648621,0.24198123812675476
1761399422250136600,1.233136474609375,0.7441630959510803,-0.7555210590362549,0.2378510683774948
1761399422260199400,1.243199462890625,0.7174002528190613,-0.7261269092559814,0.2690271735191345
1761399422270304500,1.253304443359375,0.6845754384994507,-0.6812613010406494,0.30388379096984863
1761399422280391200,1.26339111328125,0.671218991279602,-0.558571994304657,0.29424118995666504
1761399422290472000,1.273471923828125,0.6780803799629211,-0.4452921152114868,0.2306232750415802
1761399422300538400,1.283538330078125,0.7517073154449463,-0.3824569284915924,0.11502852290868759
1761399422310631200,1.293631103515625,0.8035675883293152,-0.30648180842399597,-0.0440162718296051
1761399422320710100,1.303710205078125,0.7997538447380066,-0.2841988801956177,-0.21110489964485168
1761399422330793000,1.31379296875,0.7280088067054749,-0.29923737049102783,-0.35477814078330994
1761399422340879600,1.323879638671875,0.6170604825019836,-0.34561848640441895,-0.4785166382789612
1761399422350943000,1.33394287109375,0.45356908440589905,-0.4135497510433197,-0.570712685585022
1761399422361036500,1.34403662109375,0.32368528842926025,-0.459231436252594,-0.6248711347579956
1761399422371117300,1.354117431640625,0.21788303554058075,-0.4766014516353607,-0.6524999737739563
1761399422381183000,1.364182861328125,0.10820041596889496,-0.46967342495918274,-0.6626754999160767
1761399422391274500,1.3742744140625,-0.012057427316904068,-0.42692285776138306,-0.6710191369056702
1761399422401347300,1.384347412109375,-0.14119181036949158,-0.340305894613266,-0.6914534568786621
1761399422411439900,1.39443994140625,-0.2682444453239441,-0.23278827965259552,-0.6947675943374634
1761399422421498000,1.404498046875,-0.36713534593582153,-0.12164012342691422,-0.6692538261413574
1761399422431588400,1.41458837890625,-0.4315859377384186,-0.04125172272324562,-0.6319823861122131
1761399422441682000,1.424681884765625,-0.4708058834075928,0.015321592800319195,-0.618809163570404
1761399422451757300,1.43475732421875,-0.4982515275478363,0.04812978580594063,-0.6082505583763123
1761399422461831400,1.44483154296875,-0.48347949981689453,-0.0007827335502952337,-0.48356276750564575
1761399422471916300,1.454916259765625,-0.4135664105415344,-0.09549348801374435,-0.29745540022850037
1761399422482004500,1.46500439453125,-0.3158579468727112,-0.19401799142360687,-0.22088074684143066
1761399422492072400,1.475072509765625,-0.20587557554244995,-0.29555684328079224,-0.22934092581272125
1761399422502166000,1.485166015625,-0.08215371519327164,-0.3927823305130005,-0.2061253786087036
1761399422512247000,1.4952470703125,0.03590581938624382,-0.4384140372276306,-0.15336580574512482
1761399422522313000,1.50531298828125,0.10798391699790955,-0.4077208936214447,-0.0773407369852066
1761399422532408000,1.515407958984375,0.12825171649456024,-0.32839834690093994,-0.036505360156297684
1761399422542489000,1.525489013671875,0.14255742728710175,-0.21267037093639374,-0.05740600824356079
1761399422552569300,1.5355693359375,0.17191825807094574,-0.06851416081190109,-0.13271497189998627
1761399422562638000,1.54563818359375,0.21325324475765228,0.05818874388933182,-0.23017361760139465
1761399422572731100,1.555731201171875,0.2334710955619812,0.09714222699403763,-0.2669287919998169
1761399422582809900,1.565809814453125,0.13651205599308014,0.09128005057573318,-0.19072051346302032
1761399422592879400,1.57587939453125,-0.21030551195144653,0.1768977791070938,-0.3134431540966034
1761399422602973000,1.585972900390625,-0.646304726600647,0.32118719816207886,-0.6763483881950378
1761399422613040400,1.596040283203125,-0.9629620909690857,0.637661337852478,-0.9112683534622192
1761399422623134200,1.60613427734375,-1.0470476150512695,0.7234456539154053,-0.8723815083503723
1761399422633197600,1.616197509765625,-0.7333047389984131,0.5025981664657593,-0.47760069370269775
1761399422643283000,1.626282958984375,-0.1522499918937683,0.41961178183555603,0.04469908028841019
1761399422653364200,1.6363642578125,0.3123273253440857,0.3359259068965912,0.3409886956214905
1761399422663451100,1.646451171875,0.35764262080192566,0.3532126545906067,0.26751166582107544
1761399422673538000,1.6565380859375,0.0819871723651886,0.35561081767082214,-0.0621357187628746
1761399422683618300,1.666618408203125,-0.29550689458847046,0.24546189606189728,-0.48439547419548035
1761399422693687000,1.67668701171875,-0.6068849563598633,-0.023232197389006615,-0.8664027452468872
1761399422703771000,1.68677099609375,-0.8204545974731445,-0.37727755308151245,-1.1245383024215698
1761399422713839600,1.696839599609375,-0.8973290324211121,-0.7062587738037109,-1.2718586921691895
1761399422723940900,1.70694091796875,-0.7850151062011719,-0.9267231822013855,-1.306115746498108
1761399422734022000,1.71702197265625,-0.48960813879966736,-1.0425177812576294,-1.268078327178955
1761399422744087300,1.72708740234375,-0.16548985242843628,-0.8835895657539368,-1.1622593402862549
1761399422754165800,1.737165771484375,-0.011874234303832054,-0.5420013070106506,-0.9977520704269409
1761399422764250600,1.747250732421875,-0.04748028144240379,-0.339206725358963,-0.8685178160667419
1761399422774333700,1.757333740234375,-0.18317629396915436,-0.1779969334602356,-0.894314706325531
1761399422784425200,1.76742529296875,-0.32250288128852844,-0.019185299053788185,-1.0591384172439575
1761399422794495200,1.7774951171875,-0.4187457859516144,0.08015524595975876,-1.2321557998657227
1761399422804586500,1.78758642578125,-0.43967974185943604,0.12700267136096954,-1.3086305856704712
1761399422814679000,1.797678955078125,-0.42197662591934204,0.13168242573738098,-1.2655302286148071
1761399422824747500,1.80774755859375,-0.3977452218532562,0.10765083879232407,-1.1164112091064453
1761399422834812400,1.8178125,-0.37970903515815735,0.07967227697372437,-0.9276058673858643
1761399422844906200,1.82790625,-0.3761950433254242,0.06191921979188919,-0.7753225564956665
1761399422854977300,1.837977294921875,-0.3882191777229309,0.07434303313493729,-0.6882725954055786
1761399422865051100,1.848051025390625,-0.41588130593299866,0.12428808957338333,-0.6411420106887817
1761399422875139000,1.85813916015625,-0.44399309158325195,0.16748832166194916,-0.6051695942878723
1761399422885241900,1.868241943359375,-0.4517205059528351,0.13519640266895294,-0.5796391367912292
1761399422895312600,1.878312744140625,-0.438680499792099,0.010008996352553368,-0.5625189542770386
1761399422905370400,1.888370361328125,-0.3957134187221527,-0.14702066779136658,-0.5575061440467834
1761399422915472600,1.89847265625,-0.3566433787345886,-0.26987653970718384,-0.5625022649765015
1761399422925552400,1.908552490234375,-0.35039815306663513,-0.3511309325695038,-0.5657498240470886
1761399422935621000,1.91862109375,-0.38805264234542847,-0.35098105669021606,-0.5648505091667175
1761399422945703200,1.928703125,-0.44559186697006226,-0.3114946484565735,-0.5577725768089294
1761399422955792000,1.9387919921875,-0.460980087518692,-0.2579023838043213,-0.5551245808601379
1761399422965875500,1.94887548828125,-0.48031526803970337,-0.2010459452867508,-0.5931121706962585
1761399422975958000,1.9589580078125,-0.5122408270835876,-0.22294582426548004,-0.6596278548240662
1761399422986026000,1.96902587890625,-0.5566234588623047,-0.3538455069065094,-0.7236121892929077
1761399422996107300,1.979107177734375,-0.5711789727210999,-0.5251309275627136,-0.7598177790641785
1761399423006198800,1.98919873046875,-0.5792727470397949,-0.6599942445755005,-0.7866971492767334
1761399423016270600,1.9992705078125,-0.5688307881355286,-0.7139029502868652,-0.812061071395874
1761399423026359600,2.009359619140625,-0.56728196144104,-0.711338222026825,-0.8388238549232483
1761399423036428000,2.019427978515625,-0.5763750076293945,-0.6680380702018738,-0.864470899105072
1761399423046523000,2.02952294921875,-0.5989243984222412,-0.5739935040473938,-0.8795759677886963
1761399423056603600,2.039603759765625,-0.6220566630363464,-0.46642592549324036,-0.8756956458091736
1761399423066676700,2.0496767578125,-0.6153451204299927,-0.36054039001464844,-0.8484331965446472
1761399423076765000,2.059764892578125,-0.613246738910675,-0.27030953764915466,-0.8202047944068909
1761399423086843400,2.069843505859375,-0.6253374814987183,-0.2996370494365692,-0.7551546692848206
1761399423096922600,2.079922607421875,-0.6023883819580078,-0.38853558897972107,-0.6213738322257996
1761399423107006700,2.0900068359375,-0.5046799182891846,-0.4862940311431885,-0.4487561285495758
1761399423117074700,2.10007470703125,-0.3498319387435913,-0.5225661993026733,-0.2767879068851471
1761399423127157800,2.11015771484375,-0.205775648355484,-0.5562071204185486,-0.13584589958190918
1761399423137249000,2.1202490234375,-0.1378110647201538,-0.555008053779602,-0.0075109112076461315
1761399423147314400,2.130314453125,-0.12252277880907059,-0.49542036652565,0.15747933089733124
1761399423157413600,2.14041357421875,-0.07299406826496124,-0.37554556131362915,0.3301137089729309
1761399423167480300,2.150480224609375,0.016504019498825073,-0.263131707906723,0.4792327582836151
1761399423177571600,2.160571533203125,0.12542055547237396,-0.27355703711509705,0.6129802465438843
1761399423187652000,2.170652099609375,0.20822377502918243,-0.38257351517677307,0.7295076251029968
1761399423197722000,2.18072216796875,0.25129076838493347,-0.5257471203804016,0.8371918201446533
1761399423207813400,2.1908134765625,0.32070425152778625,-0.7661129236221313,0.9613133668899536
1761399423217879800,2.2008798828125,0.46494370698928833,-1.1334648132324219,1.0959768295288086
1761399423227975400,2.210975341796875,0.6383607983589172,-1.4700901508331299,1.1581292152404785
1761399423238056000,2.221055908203125,0.7622325420379639,-1.662459373474121,1.1608937978744507
1761399423248124200,2.231124267578125,0.8101791739463806,-1.7983386516571045,1.2044436931610107
1761399423258217200,2.24121728515625,0.8171072006225586,-1.8755627870559692,1.4165312051773071
1761399423268297500,2.25129736328125,0.8226862549781799,-1.8335117101669312,1.7914272546768188
1761399423278365700,2.26136572265625,0.8690007328987122,-1.6904712915420532,2.1938188076019287
1761399423288455700,2.27145556640625,0.9109019637107849,-1.4785670042037964,2.6014564037323
1761399423298528800,2.28152880859375,0.9885924458503723,-1.2050765752792358,2.9434444904327393
1761399423308620300,2.291620361328125,1.1937519311904907,-0.9044902324676514,3.0464155673980713
1761399423318700500,2.301700439453125,1.4693074226379395,-0.547313928604126,2.812211751937866
1761399423328762000,2.31176220703125,1.6686712503433228,-0.27030953764915466,2.2838830947875977
1761399423338834400,2.32183447265625,1.7470612525939941,-0.31625765562057495,1.6247049570083618
1761399423348930600,2.3319306640625,1.7873636484146118,-0.4832630157470703,1.0676652193069458
1761399423359023900,2.34202392578125,1.8582760095596313,-0.44099539518356323,0.7842323780059814
1761399423369091300,2.35209130859375,1.9751530885696411,-0.2095893919467926,0.7594846487045288
1761399423379185400,2.362185302734375,2.0814716815948486,-0.06889720261096954,0.8149255514144897
1761399423389277400,2.37227734375,2.1366961002349854,-0.20272798836231232,0.7317392826080322
1761399423399341300,2.38234130859375,2.1181769371032715,-0.4713055193424225,0.49626970291137695
1761399423409414700,2.39241455078125,2.04902982711792,-0.8532628417015076,0.1568298190832138
1761399423419508500,2.402508544921875,1.8968963623046875,-1.2567369937896729,-0.18079479038715363
1761399423429588700,2.412588623046875,1.6900049448013306,-1.5911140441894531,-0.4284217059612274
1761399423439669200,2.422669189453125,1.483280062675476,-1.8816248178482056,-0.5964429378509521
1761399423449750000,2.43275,1.4051399230957031,-2.101473093032837,-0.6858910918235779
1761399423459818200,2.442818359375,1.462612509727478,-2.304983615875244,-0.7001801133155823
1761399423469906700,2.45290673828125,1.5463982820510864,-2.3689846992492676,-0.6271694302558899
1761399423479991600,2.462991455078125,1.5988914966583252,-2.1637752056121826,-0.4690738916397095
1761399423490072800,2.47307275390625,1.6284188032150269,-1.8577930927276611,-0.27743738889694214
1761399423500145000,2.483144775390625,1.6740838289260864,-1.5311100482940674,-0.12044104188680649
1761399423510234000,2.493234130859375,1.695983648300171,-1.2449792623519897,-0.04394965618848801
1761399423520315000,2.50331494140625,1.6389107704162598,-1.1777474880218506,-0.06466711312532425
1761399423530383000,2.513383056640625,1.5421515703201294,-1.2689776420593262,-0.12242285162210464
1761399423540451800,2.523451904296875,1.4208112955093384,-1.3775110244750977,-0.1425241231918335
1761399423550544400,2.53354443359375,1.29837167263031,-1.4183298349380493,-0.0951104536652565
1761399423560635400,2.543635498046875,1.2281088829040527,-1.303934097290039,-0.008460183627903461
1761399423570717000,2.553717041015625,1.151700735092163,-1.09312903881073,0.05056125670671463
1761399423580795100,2.563795166015625,1.0109752416610718,-0.8585087656974792,0.051077526062726974
1761399423590878200,2.573878173828125,0.8533127903938293,-0.6346136927604675,0.04138495400547981
1761399423600945200,2.583945068359375,0.7004632353782654,-0.48725995421409607,0.06371784210205078
1761399423611041000,2.594041015625,0.5701963901519775,-0.431236207485199,0.0939280241727829
1761399423621121800,2.604121826171875,0.45981431007385254,-0.43594926595687866,0.09764184057712555
1761399423631191300,2.61419140625,0.3847551643848419,-0.4515373110771179,0.08133766800165176
1761399423641282800,2.62428271484375,0.3446192443370819,-0.4926891326904297,0.03895348310470581
1761399423651351600,2.6343515625,0.31174445152282715,-0.5243648290634155,-0.04053560271859169
1761399423661433000,2.64443310546875,0.2324218899011612,-0.46003082394599915,-0.15486465394496918
1761399423671528000,2.65452783203125,0.0679645836353302,-0.3614063858985901,-0.2762882709503174
1761399423681605600,2.664605712890625,-0.14084208011627197,-0.2463778704404831,-0.3792760372161865
1761399423691668000,2.67466796875,-0.32230302691459656,-0.1410752236843109,-0.4779004454612732
1761399423701767400,2.684767333984375,-0.4279387295246124,-0.07117878645658493,-0.6206743717193604
1761399423711835400,2.69483544921875,-0.46807464957237244,-0.06025382876396179,-0.8244348764419556
1761399423721930800,2.7049306640625,-0.4896247982978821,-0.12796860933303833,-1.0410189628601074
1761399423731996400,2.714996337890625,-0.5140560865402222,-0.23462021350860596,-1.2471942901611328
1761399423742076700,2.72507666015625,-0.5496954321861267,-0.30388379096984863,-1.437165379524231
1761399423752170800,2.735170654296875,-0.6105154752731323,-0.3280985653400421,-1.5775744915008545
1761399423762251300,2.745251220703125,-0.704759955406189,-0.3618893623352051,-1.6044704914093018
1761399423772321300,2.7553212890625,-0.8118112683296204,-0.4974188208580017,-1.435666561126709
1761399423782404000,2.765404052734375,-0.9013260006904602,-0.7747563123703003,-1.0831032991409302
1761399423792481300,2.775481201171875,-0.9574163556098938,-1.0320258140563965,-0.7090399861335754
1761399423802572500,2.785572509765625,-0.9641445279121399,-1.1522337198257446,-0.45085451006889343
1761399423812654600,2.795654541015625,-0.9337011575698853,-1.1608937978744507,-0.35860854387283325
1761399423822742300,2.8057421875,-0.9193121790885925,-1.132981777191162,-0.40080952644348145
1761399423832815900,2.81581591796875,-0.9410455226898193,-1.0729278326034546,-0.44933900237083435
1761399423842884000,2.825884033203125,-0.962096095085144,-0.9454754590988159,-0.438064306974411
1761399423852978700,2.835978759765625,-0.9495556950569153,-0.7489427328109741,-0.38074156641960144
1761399423863044900,2.846044921875,-0.8816077709197998,-0.43191900849342346,-0.27995213866233826
1761399423873138700,2.856138671875,-0.7536224722862244,-0.042567379772663116,-0.11789299547672272
1761399423883203800,2.866203857421875,-0.6743499040603638,0.2585185766220093,0.17997874319553375
1761399423893300200,2.87630029296875,-0.8075811266899109,0.5534758567810059,0.22657637298107147
1761399423903380700,2.886380615234375,-0.9833131432533264,0.7996538877487183,0.04275057464838028
1761399423913439000,2.89643896484375,-1.0264967679977417,1.2526568174362183,0.03497320041060448
1761399423923541800,2.906541748046875,-0.7862974405288696,1.7841495275497437,0.16145960986614227
1761399423933606400,2.9166064453125,-0.03139261156320572,1.9631456136703491,0.2763215899467468
1761399423943703000,2.926703125,0.8947476744651794,2.048147201538086,0.2849150002002716
1761399423953784000,2.9367841796875,1.3214040994644165,2.0417187213897705,0.1633581519126892
1761399423963861500,2.946861572265625,1.1629421710968018,1.7061924934387207,0.039186637848615646
1761399423973933600,2.95693359375,0.638760507106781,0.9480568170547485,0.011224731802940369
1761399423984026000,2.967026123046875,-0.0002664624771568924,-0.011208077892661095,-0.08340275287628174
1761399423994105300,2.977105224609375,-0.5399362444877625,-0.740699052810669,-0.39504727721214294
1761399424004187600,2.987187744140625,-0.8385241031646729,-1.2129205465316772,-0.7408989071846008
1761399424014258200,2.997258056640625,-0.8754125237464905,-1.4154486656188965,-0.9345505237579346
1761399424024336100,3.007336181640625,-0.7718752026557922,-1.4208778142929077,-1.000516653060913
1761399424034429700,3.0174296875,-0.6185426712036133,-1.1343474388122559,-1.0591716766357422
1761399424044503800,3.02750390625,-0.46301186084747314,-0.5089932680130005,-1.168804407119751
1761399424054589200,3.037589111328125,-0.31194430589675903,0.07937251031398773,-1.2947911024093628
1761399424064659200,3.0476591796875,-0.21748334169387817,0.40517285466194153,-1.3879530429840088
1761399424074739500,3.057739501953125,-0.2253439873456955,0.5738269686698914,-1.4007099866867065
1761399424084823300,3.0678232421875,-0.3076975345611572,0.5757754445075989,-1.3567769527435303
1761399424094900700,3.077900634765625,-0.42887136340141296,0.5283951163291931,-1.291110634803772
1761399424104982000,3.08798193359375,-0.5572896003723145,0.5651169419288635,-1.1950842142105103
1761399424115074600,3.098074462890625,-0.6729509830474854,0.6377279758453369,-1.0860843658447266
1761399424125140700,3.108140625,-0.7653301954269409,0.6842256784439087,-0.9892585873603821
1761399424135236000,3.118236083984375,-0.8144925236701965,0.6527331471443176,-0.9393801689147949
1761399424145317400,3.1283173828125,-0.8040505051612854,0.5723447203636169,-0.9217436909675598
1761399424155398000,3.13839794921875,-0.7187159061431885,0.48099806904792786,-0.9208443760871887
1761399424165479000,3.14847900390625,-0.6130135655403137,0.38420557975769043,-0.9138830304145813
1761399424175539700,3.158539794921875,-0.5364722609519958,0.27320730686187744,-0.8653035759925842
1761399424185634800,3.168634765625,-0.48842573165893555,0.14525535702705383,-0.7886956334114075
1761399424195718000,3.1787177734375,-0.46945691108703613,0.005295941606163979,-0.7225130200386047
1761399424205814000,3.18881396484375,-0.4666424095630646,-0.1374613344669342,-0.6924527287483215
1761399424215869200,3.198869140625,-0.4674917757511139,-0.29682254791259766,-0.6978818774223328
1761399424225962800,3.208962646484375,-0.4968526065349579,-0.46211254596710205,-0.7520403861999512
1761399424236050000,3.2190498046875,-0.5624690055847168,-0.6098660230636597,-0.8281320929527283
1761399424246121700,3.229121826171875,-0.6473539471626282,-0.6934852600097656,-0.8983116149902344
1761399424256205000,3.239205078125,-0.7030279636383057,-0.7392168641090393,-0.9392469525337219
1761399424266273000,3.24927294921875,-0.6995306015014648,-0.7473439574241638,-0.9670922756195068
1761399424276366300,3.259366455078125,-0.6950340867042542,-0.6683211922645569,-0.9951041340827942
1761399424286446600,3.269446533203125,-0.7226462364196777,-0.5657331347465515,-1.0264800786972046
1761399424296514800,3.279514892578125,-0.7815011143684387,-0.5658663511276245,-1.0602208375930786
1761399424306605800,3.289605712890625,-0.831396222114563,-0.6082172393798828,-1.1006898880004883
1761399424316686800,3.299686767578125,-0.8760120272636414,-0.6428573727607727,-1.1230727434158325
1761399424326756900,3.3097568359375,-0.8693671226501465,-0.6450890302658081,-1.1087336540222168
1761399424336824800,3.319824951171875,-0.8165409564971924,-0.564400851726532,-1.079456090927124
1761399424346905300,3.3299052734375,-0.7674785256385803,-0.42059436440467834,-1.0372384786605835
1761399424356986000,3.339986083984375,-0.7349201440811157,-0.30833038687705994,-0.9544186592102051
1761399424367058200,3.35005810546875,-0.7223798036575317,-0.3079639971256256,-0.800803005695343
1761399424377149700,3.360149658203125,-0.6827934384346008,-0.3871033489704132,-0.5599042773246765
1761399424387224000,3.37022412109375,-0.6045867204666138,-0.4606136977672577,-0.3238518238067627
1761399424397297400,3.38029736328125,-0.5202679634094238,-0.44842302799224854,-0.16324158012866974
1761399424407389000,3.390388916015625,-0.4797323942184448,-0.42151033878326416,-0.09794161468744278
1761399424417479200,3.400479248046875,-0.4271060526371002,-0.42822185158729553,-0.08711657673120499
1761399424427568400,3.410568359375,-0.3612231910228729,-0.40274137258529663,-0.09098028391599655
1761399424437654800,3.42065478515625,-0.2979716658592224,-0.3492656946182251,-0.07364356517791748
1761399424447737900,3.43073779296875,-0.24572835862636566,-0.31001242995262146,-0.021650075912475586
1761399424457830100,3.440830078125,-0.19328521192073822,-0.2849816083908081,0.058505166321992874
1761399424467898600,3.450898681640625,-0.15498124063014984,-0.24572835862636566,0.14005933701992035
1761399424477979400,3.4609794921875,-0.12303905189037323,-0.2163841873407364,0.21501857042312622
1761399424488060000,3.471059814453125,-0.10993242263793945,-0.19095367193222046,0.2688606381416321
1761399424498139100,3.48113916015625,-0.11915869265794754,-0.19440102577209473,0.2765214443206787
1761399424508209000,3.491208984375,-0.11952507495880127,-0.2925258278846741,0.22552718222141266
1761399424518302500,3.501302490234375,-0.055091116577386856,-0.5495622158050537,0.15844525396823883
1761399424528370200,3.5113701171875,0.027728751301765442,-0.835243284702301,0.10596879571676254
1761399424538440000,3.52143994140625,0.0547746941447258,-1.0435503721237183,0.08375249058008194
1761399424548531500,3.531531494140625,0.07752392441034317,-1.333511471748352,0.10190524160861969
1761399424558623000,3.541623046875,0.11334647983312607,-1.620658040046692,0.12560375034809113
1761399424568693500,3.551693603515625,0.2474270612001419,-1.7984718084335327,0.1784965544939041
1761399424578787000,3.561787109375,0.4820805788040161,-1.9539693593978882,0.3494155704975128
1761399424588867000,3.5718671875,0.7084571123123169,-2.0878167152404785,0.6001567840576172
1761399424598947600,3.581947509765625,0.8113116025924683,-2.116145133972168,0.8448692560195923
1761399424609028000,3.592028076171875,0.8609069585800171,-2.0159718990325928,1.0717453956604004
1761399424619109400,3.602109375,0.8960133790969849,-1.783949613571167,1.297755479812622
1761399424629175600,3.612175537109375,0.9166975617408752,-1.4982019662857056,1.5712625980377197
1761399424639270700,3.622270751953125,0.989458441734314,-1.3311465978622437,1.8222036361694336
1761399424649351000,3.632350830078125,1.141708493232727,-1.2174503803253174,1.9446930885314941
1761399424659410400,3.642410400390625,1.351414442062378,-0.9951374530792236,1.9028584957122803
1761399424669512700,3.6525126953125,1.5479304790496826,-0.6848918199539185,1.737435221672058
1761399424679593500,3.662593505859375,1.6343309879302979,-0.4793493449687958,1.5508116483688354
1761399424689672200,3.672672119140625,1.5887991189956665,-0.3763449490070343,1.4458420276641846
1761399424699741400,3.682741455078125,1.482846975326538,-0.2837159335613251,1.4464915990829468
1761399424709823000,3.692822998046875,1.4304372072219849,-0.2648636996746063,1.530260682106018
1761399424719916000,3.702916015625,1.449172854423523,-0.3460181951522827,1.620758056640625
1761399424729984000,3.71298388671875,1.452886700630188,-0.48601090908050537,1.628102421760559
1761399424740077600,3.72307763671875,1.4032413959503174,-0.5805051326751709,1.488126277923584
1761399424750157600,3.733157470703125,1.3293479681015015,-0.557472825050354,1.221280813217163
1761399424760237000,3.743237060546875,1.258718729019165,-0.5024982690811157,0.9074879288673401
1761399424770319400,3.7533193359375,1.205009937286377,-0.42817190289497375,0.6683211922645569
1761399424780400000,3.763400146484375,1.2313064336776733,-0.4658430218696594,0.5583721399307251
1761399424790480400,3.77348046875,1.2776542901992798,-0.706541895866394,0.529960572719574
1761399424800550700,3.783550537109375,1.2911772727966309,-0.931486189365387,0.5268962383270264
1761399424810640100,3.79364013671875,1.24721097946167,-1.1654236316680908,0.47858327627182007
1761399424820708400,3.803708251953125,1.187090277671814,-1.4732877016067505,0.3746129274368286
1761399424830803700,3.8138037109375,1.0823872089385986,-1.6292182207107544,0.22947415709495544
1761399424840871400,3.823871337890625,0.9616464376449585,-1.5890989303588867,0.06023717299103737
1761399424850965000,3.833965087890625,0.9143993258476257,-1.409536600112915,-0.07765715569257736
1761399424861045200,3.844045166015625,0.93485027551651,-1.181344747543335,-0.1687706708908081
1761399424871126500,3.85412646484375,1.0017822980880737,-0.9859111905097961,-0.21821612119674683
1761399424881203000,3.864202880859375,1.0483133792877197,-0.8784268498420715,-0.2993372976779938
1761399424891290600,3.87429052734375,1.0151054859161377,-0.8408889770507812,-0.41226741671562195
1761399424901368300,3.884368408203125,0.8845555186271667,-0.8080474734306335,-0.5358060598373413
1761399424911448800,3.89444873046875,0.7574862241744995,-0.7827835083007812,-0.6789963245391846
1761399424921522400,3.9045224609375,0.6738336682319641,-0.7065752148628235,-0.798954427242279
1761399424931603000,3.91460302734375,0.6011559963226318,-0.6156282424926758,-0.88628751039505
1761399424941691000,3.92469091796875,0.4965028762817383,-0.4820139706134796,-0.9265899658203125
1761399424951767800,3.934767822265625,0.3351098597049713,-0.26626262068748474,-0.9139662981033325
1761399424961852700,3.944852783203125,0.13144926726818085,0.003447358263656497,-0.8680514693260193
1761399424971933400,3.954933349609375,-0.0840022936463356,0.2467276006937027,-0.8241518139839172
1761399424982014000,3.965013916015625,-0.28336620330810547,0.3766780197620392,-0.8207044005393982
1761399424992074200,3.97507421875,-0.4946209788322449,0.42489108443260193,-0.8501651883125305
1761399425002175000,3.985175048828125,-0.7497088313102722,0.40407368540763855,-0.8600909113883972
1761399425012241400,3.995241455078125,-0.9947876930236816,0.2632316052913666,-0.7941581010818481
1761399425022325000,4.005324951171875,-1.137012004852295,0.046531010419130325,-0.6601108312606812
1761399425032405500,4.015405517578125,-1.095177412033081,-0.1666223108768463,-0.5528097152709961
1761399425042497800,4.025497802734375,-0.8308799862861633,-0.4086868166923523,-0.49550363421440125
1761399425052578600,4.03557861328125,-0.38755300641059875,-0.6473039984703064,-0.41611447930336
1761399425062645000,4.04564501953125,0.12698602676391602,-0.6896381974220276,-0.2509077191352844
1761399425072738300,4.05573828125,0.5577226281166077,-0.46189606189727783,-0.00472970912232995
1761399425082818800,4.06581884765625,0.8637547492980957,-0.16367457807064056,0.17991213500499725
1761399425092901400,4.0759013671875,1.0634350776672363,0.15060126781463623,0.16587288677692413
1761399425102981600,4.085981689453125,1.1389771699905396,0.3823736608028412,0.038637060672044754
1761399425113063200,4.096063232421875,1.1064687967300415,0.4728543162345886,-0.08984781801700592
1761399425123143200,4.10614306640625,1.0281621217727661,0.4296041429042816,-0.19301876425743103
1761399425133190000,4.11618994140625,0.9039073586463928,0.3446692228317261,-0.14520539343357086
1761399425143293400,4.12629345703125,0.503347635269165,0.27237460017204285,-0.00874330010265112
1761399425153374700,4.136374755859375,-0.2470773309469223,0.09236255288124084,-0.18219371140003204
1761399425163466500,4.146466552734375,-1.0643011331558228,-0.30583229660987854,-0.6424244046211243
1761399425173552400,4.156552490234375,-1.6813949346542358,-0.2153516411781311,-1.1376948356628418
1761399425183618300,4.166618408203125,-1.8434540033340454,0.19423449039459229,-1.5034478902816772
1761399425193707800,4.176707763671875,-1.504730224609375,0.6933353543281555,-1.7213642597198486
1761399425203774200,4.186774169921875,-0.7908439636230469,0.4076376259326935,-1.426323652267456
1761399425213856800,4.196856689453125,0.1682877093553543,-0.5808882117271423,-0.49808499217033386
1761399425223949600,4.206949462890625,0.9801322817802429,-0.59884113073349,0.14408957958221436
1761399425234031000,4.217031005859375,1.1293179988861084,-0.13281488418579102,0.18127775192260742
1761399425244077000,4.2270771484375,0.560836911201477,0.05250976234674454,-0.0014155819080770016
1761399425254192400,4.2371923828125,-0.48382923007011414,0.12490428984165192,-0.3569764494895935
1761399425264282400,4.247282470703125,-1.4745867252349854,0.2578357458114624,-0.7396332025527954
1761399425274351900,4.257351806640625,-2.0179038047790527,0.17231795191764832,-1.0458985567092896
1761399425284421400,4.26742138671875,-1.9958372116088867,-0.38297319412231445,-1.3753293752670288
1761399425294514700,4.2775146484375,-1.641675353050232,-0.8318958282470703,-1.564417839050293
1761399425304596000,4.287595947265625,-1.031243085861206,-0.62943434715271,-1.384189248085022
1761399425314665200,4.297665283203125,-0.23004038631916046,-0.12671956419944763,-1.010642170906067
1761399425324756700,4.3077568359375,0.21098831295967102,0.20274463295936584,-0.7207643389701843
1761399425334835500,4.31783544921875,0.07019621133804321,0.4045233428478241,-0.6571131348609924
1761399425344897000,4.32789697265625,-0.32605016231536865,0.5917631983757019,-0.877843976020813
1761399425354999000,4.3379990234375,-0.6022385358810425,0.7167341113090515,-1.183393120765686
1761399425365079600,4.34807958984375,-0.6833763122558594,0.7660130262374878,-1.3202216625213623
1761399425375147300,4.358147216796875,-0.6625589728355408,0.8134766221046448,-1.2701433897018433
1761399425385240800,4.36824072265625,-0.5757254958152771,0.7975388765335083,-1.1212741136550903
1761399425395309600,4.3783095703125,-0.49487078189849854,0.6436567902565002,-0.9434270262718201
1761399425405400600,4.388400634765625,-0.4854613244533539,0.5018487572669983,-0.7618495225906372
1761399425415469300,4.39846923828125,-0.5145723223686218,0.4322187900543213,-0.6182262301445007
1761399425425562000,4.40856201171875,-0.5279121398925781,0.4303702116012573,-0.5354230403900146
1761399425435643400,4.418643310546875,-0.5304934978485107,0.4573661983013153,-0.5074944496154785
1761399425445700000,4.4287001953125,-0.5462480783462524,0.502315104007721,-0.5167873501777649
1761399425455780400,4.4387802734375,-0.5822204947471619,0.5597876906394958,-0.5518937706947327
1761399425465884400,4.448884521484375,-0.6503849625587463,0.6055693030357361,-0.6265698671340942
1761399425475967000,4.458967041015625,-0.7362191677093506,0.6590449810028076,-0.7325553297996521
1761399425486033000,4.469032958984375,-0.8159247636795044,0.666888952255249,-0.8493491411209106
1761399425496128300,4.479128173828125,-0.8747796416282654,0.6026215553283691,-0.9435436129570007
1761399425506209000,4.489208984375,-0.926906406879425,0.5135231614112854,-0.9930057525634766
1761399425516277800,4.49927783203125,-0.9468744397163391,0.4154149889945984,-1.0000836849212646
1761399425526368800,4.50936865234375,-0.9589651226997375,0.3736303448677063,-0.9765516519546509
1761399425536438300,4.519438232421875,-0.9632618427276611,0.36185604333877563,-0.9289381504058838
1761399425546532400,4.529532470703125,-0.9638780355453491,0.33632561564445496,-0.8536791801452637
1761399425556614700,4.53961474609375,-0.9862942099571228,0.30751433968544006,-0.7619161605834961
1761399425566681600,4.549681640625,-1.0025317668914795,0.2813011109828949,-0.6688207983970642
1761399425576774100,4.559774169921875,-1.0298441648483276,0.3133765161037445,-0.6078841686248779
1761399425586828800,4.569828857421875,-1.0360894203186035,0.31630760431289673,-0.582853376865387
1761399425596934100,4.57993408203125,-0.9955371022224426,0.3239850699901581,-0.5421178936958313
1761399425607003100,4.590003173828125,-0.8773110508918762,0.3562603294849396,-0.4477235674858093
1761399425617096700,4.6000966796875,-0.6990143656730652,0.362738698720932,-0.3096793591976166
1761399425627186000,4.61018603515625,-0.5200681686401367,0.2601173520088196,-0.18309302628040314
1761399425637246000,4.620245849609375,-0.38165754079818726,0.08956470340490341,-0.10918299853801727
1761399425647336700,4.630336669921875,-0.2835993468761444,-0.06070348247885704,-0.08913169801235199
1761399425657415000,4.640414794921875,-0.15608039498329163,-0.24258077144622803,-0.0728941410779953
1761399425667500000,4.6505,-0.04038571938872337,-0.3962130546569824,-0.025363897904753685
1761399425677580300,4.660580322265625,0.08916500955820084,-0.40975266695022583,0.057888973504304886
1761399425687661300,4.670661376953125,0.09033077955245972,-0.19609972834587097,0.1262032836675644
1761399425697734100,4.680734130859375,0.028461523354053497,-0.039136677980422974,0.1975819319486618
1761399425707822800,4.69082275390625,0.029544027522206306,0.03732139989733696,0.279485821723938
1761399425717889000,4.700888916015625,0.0837191790342331,0.02579689770936966,0.3462846577167511
1761399425727969000,4.710968994140625,0.19430111348628998,-0.18394237756729126,0.38796937465667725
1761399425738052600,4.721052490234375,0.33825746178627014,-0.5469808578491211,0.4234755039215088
1761399425748145400,4.7311455078125,0.4734039008617401,-0.8828234672546387,0.490823894739151
1761399425758226400,4.741226318359375,0.5859343409538269,-0.937181830406189,0.5835361480712891
1761399425768294100,4.751294189453125,0.6742833256721497,-0.9385974407196045,0.5789563655853271
1761399425778385400,4.761385498046875,0.7977054119110107,-1.0197685956954956,0.6427074670791626
1761399425788455400,4.771455322265625,0.9546351432800293,-1.0692472457885742,0.8138096928596497
1761399425798549000,4.781549072265625,1.0690973997116089,-1.1081008911132812,1.0784069299697876
1761399425808630000,4.791630126953125,1.1606606245040894,-1.127219557762146,1.45746648311615
1761399425818697700,4.80169775390625,1.261899709701538,-1.0174869298934937,1.9380648136138916
1761399425828791300,4.811791259765625,1.3706163167953491,-0.7244448661804199,2.434584379196167
1761399425838870000,4.8218701171875,1.448206901550293,-0.39922741055488586,2.753889799118042
1761399425848952300,4.831952392578125,1.4807486534118652,-0.07092898339033127,2.8297481536865234
1761399425859032600,4.842032470703125,1.5191692113876343,0.3092130422592163,2.695767641067505
1761399425869113600,4.852113525390625,1.5624194145202637,0.6074512004852295,2.400327205657959
1761399425879195000,4.86219482421875,1.587550163269043,0.6078675389289856,2.09462833404541
1761399425889263900,4.872263916015625,1.5669159889221191,0.444992333650589,1.9584492444992065
1761399425899355600,4.882355712890625,1.54226815700531,0.2824169099330902,2.0175704956054688
1761399425909434400,4.892434326171875,1.6117149591445923,0.28496497869491577,2.1801960468292236
1761399425919505400,4.90250537109375,1.7454124689102173,0.3225528299808502,2.2319729328155518
1761399425929598000,4.912597900390625,1.7581859827041626,0.2275589555501938,2.044466733932495
1761399425939678700,4.9226787109375,1.5882495641708374,0.04246745631098747,1.6939352750778198
1761399425949756700,4.932756591796875,1.3366923332214355,-0.2688772976398468,1.340989112854004
1761399425959840000,4.942840087890625,1.1701033115386963,-0.6441397070884705,1.0806385278701782
1761399425969918000,4.95291796875,1.1301172971725464,-0.9092366099357605,0.9230426549911499
1761399425980001000,4.9630009765625,1.1279855966567993,-0.9903411269187927,0.8451523780822754
1761399425990068700,4.97306884765625,1.152816653251648,-1.0369887351989746,0.7726579308509827
1761399426000162600,4.98316259765625,1.0938950777053833,-1.1184428930282593,0.6277523040771484
1761399426010243000,4.9932431640625,0.9549848437309265,-1.2542388439178467,0.45043817162513733
1761399426020324000,5.003323974609375,0.8002367615699768,-1.291027307510376,0.3208041787147522
1761399426030404600,5.013404541015625,0.6477369666099548,-1.1547651290893555,0.2542385160923004
1761399426040463400,5.02346337890625,0.5320423245429993,-1.0775575637817383,0.15298277139663696
1761399426050564400,5.033564453125,0.48426225781440735,-0.9351500868797302,0.05665658414363861
1761399426060632600,5.043632568359375,0.5416516065597534,-0.7773209810256958,-0.051327332854270935
1761399426070714400,5.05371435546875,0.5924293398857117,-0.6248711347579956,-0.16603943705558777
1761399426080808000,5.063807861328125,0.5911136865615845,-0.5351565480232239,-0.29673928022384644
1761399426090888400,5.073888427734375,0.4833962321281433,-0.4836793541908264,-0.4472406208515167
1761399426100965400,5.08396533203125,0.3761450946331024,-0.4825635552406311,-0.6080507040023804
1761399426111037400,5.094037353515625,0.29112690687179565,-0.4032076895236969,-0.7487096190452576
1761399426121130800,5.104130859375,0.1878560483455658,-0.24414624273777008,-0.8777273893356323
1761399426131211300,5.114211181640625,0.04668089374899864,-0.01911868341267109,-0.9855114817619324
1761399426141280000,5.124280029296875,-0.152932807803154,0.25475478172302246,-1.0625524520874023
1761399426151378000,5.1343779296875,-0.39977699518203735,0.5229659080505371,-1.1199084520339966
1761399426161428000,5.144427978515625,-0.6662394404411316,0.727059543132782,-1.1691040992736816
1761399426171534000,5.1545341796875,-0.9358661770820618,0.838057816028595,-1.2022453546524048
1761399426181614300,5.1646142578125,-1.1882227659225464,0.8085470795631409,-1.1679050922393799
1761399426191695600,5.174695556640625,-1.3812415599822998,0.5656998157501221,-1.010042667388916
1761399426201776400,5.1847763671875,-1.4284220933914185,0.2148020714521408,-0.6420912742614746
1761399426211857000,5.19485693359375,-1.2211642265319824,0.093161940574646,-0.36062365770339966
1761399426221912000,5.204912109375,-0.6415417194366455,-0.09016424417495728,-0.2781868278980255
1761399426232005000,5.215005126953125,0.1289844959974289,-0.39191633462905884,-0.1527329683303833
1761399426242099200,5.22509912109375,0.759301483631134,-0.5023816823959351,0.14951875805854797
1761399426252179500,5.235179443359375,1.1744667291641235,-0.5091098546981812,0.38478848338127136
1761399426262260500,5.245260498046875,1.347001075744629,-0.15802890062332153,0.4883757531642914
1761399426272341000,5.255341064453125,1.3619396686553955,0.46516022086143494,0.41643089056015015
1761399426282422000,5.265422119140625,1.2250945568084717,0.9566003084182739,0.23820079863071442
1761399426292489700,5.27548974609375,0.9247913360595703,1.0738438367843628,0.17503254115581512
1761399426302560000,5.28556005859375,0.3604904115200043,1.0570566654205322,0.26662901043891907
1761399426312664000,5.2956640625,-0.41797971725463867,0.9111517667770386,0.2576359212398529
1761399426322733300,5.3057333984375,-1.0738604068756104,0.5168206095695496,0.1521667242050171
1761399426332810000,5.31581005859375,-1.2964731454849243,0.2648636996746063,0.015687977895140648
1761399426342905600,5.325905517578125,-1.037671446800232,0.1583453267812729,-0.20560911297798157
1761399426352976400,5.335976318359375,-0.44760701060295105,0.5436334013938904,-0.7372350692749023
1761399426363065600,5.346065673828125,0.25134071707725525,0.5622857809066772,-1.1068018674850464
1761399426373148000,5.35614794921875,0.7349035143852234,0.17093567550182343,-0.9670090079307556
1761399426383225300,5.366225341796875,0.762249231338501,0.09624291956424713,-0.5477802157402039
1761399426393309000,5.376308837890625,0.4351498782634735,0.3100624084472656,-0.2706925570964813
1761399426403390200,5.38639013671875,-0.10596879571676254,0.41240063309669495,-0.25830206274986267
1761399426413471000,5.396470947265625,-0.7467610836029053,0.35707637667655945,-0.4444594085216522
1761399426423546400,5.40654638671875,-1.3647209405899048,0.3521801233291626,-0.6669056415557861
1761399426433637000,5.41663720703125,-1.7458621263504028,0.3664691746234894,-0.8702831268310547
1761399426443711500,5.42671142578125,-1.7565540075302124,0.21963170170783997,-1.0373717546463013
1761399426453781800,5.43678173828125,-1.4481236934661865,0.011208077892661095,-1.1428909301757812
1761399426463861800,5.44686181640625,-0.9471408724784851,0.02601339854300022,-1.0770080089569092
1761399426473954800,5.456954833984375,-0.32353541254997253,0.34053903818130493,-0.9280555248260498
1761399426484034000,5.467033935546875,-0.009592649526894093,0.5164375901222229,-0.7867637872695923
1761399426494117600,5.47711767578125,-0.06684877723455429,0.6403093338012695,-0.7780038118362427
1761399426504197000,5.487197021484375,-0.2694934904575348,0.8314794898033142,-0.9543020725250244
1761399426514277400,5.49727734375,-0.4343671500682831,1.0682480335235596,-1.1820775270462036
1761399426524351000,5.50735107421875,-0.5084103941917419,1.3575431108474731,-1.2605340480804443
1761399426534426000,5.517426025390625,-0.5857011675834656,1.5301440954208374,-1.1529831886291504
1761399426544512800,5.5275126953125,-0.627236008644104,1.5632853507995605,-0.9548683166503906
1761399426554598700,5.5375986328125,-0.623738706111908,1.4709560871124268,-0.7342373728752136
1761399426564667600,5.547667724609375,-0.5736936926841736,1.2910939455032349,-0.5409854650497437
1761399426574739200,5.5577392578125,-0.5301604270935059,1.1191257238388062,-0.40267476439476013
1761399426584841700,5.567841796875,-0.5236154198646545,1.0200849771499634,-0.3428039848804474
1761399426594898200,5.577898193359375,-0.5372382998466492,0.9815811514854431,-0.36360469460487366
1761399426604991000,5.587990966796875,-0.5617695450782776,0.9633784294128418,-0.43420061469078064
1761399426615082200,5.598082275390625,-0.6118144989013672,0.9612134099006653,-0.49447110295295715
1761399426625157000,5.6081572265625,-0.6684044599533081,0.9687909483909607,-0.5064951777458191
1761399426635245800,5.618245849609375,-0.7491092681884766,0.9975855350494385,-0.5009827613830566
1761399426645313800,5.628313720703125,-0.8105455636978149,0.9897415637969971,-0.5326085090637207
1761399426655404300,5.638404296875,-0.8137431144714355,0.9232758283615112,-0.581887423992157
1761399426665486800,5.64848681640625,-0.76587975025177,0.8260170221328735,-0.6140128374099731
1761399426675566000,5.658566162109375,-0.7263100743293762,0.7445127964019775,-0.6153950691223145
1761399426685636000,5.668635986328125,-0.7280421257019043,0.6836094856262207,-0.6022218465805054
1761399426695729400,5.6787294921875,-0.7461448907852173,0.6401094794273376,-0.5834362506866455
1761399426705810400,5.688810546875,-0.7914102077484131,0.6273359656333923,-0.5662660598754883
1761399426715878400,5.69887841796875,-0.8428041338920593,0.606035590171814,-0.5440664291381836
1761399426725959400,5.70895947265625,-0.8763784170150757,0.5548415184020996,-0.5072113275527954
1761399426736033300,5.719033203125,-0.9096029996871948,0.5246479511260986,-0.46779152750968933
1761399426746131200,5.729131103515625,-0.9456087350845337,0.5294276475906372,-0.4361324608325958
1761399426756201200,5.739201171875,-0.9497888684272766,0.5672486424446106,-0.3936483561992645
1761399426766304800,5.7493046875,-0.9314695596694946,0.6342806220054626,-0.3320455551147461
1761399426776375000,5.759375,-0.8919165134429932,0.622639536857605,-0.2717084586620331
1761399426786455800,5.769455810546875,-0.8114281892776489,0.46039721369743347,-0.2497752606868744
1761399426796534500,5.779534423828125,-0.7012792825698853,0.13424712419509888,-0.25378885865211487
1761399426806602500,5.7896025390625,-0.5511943101882935,0.0683143138885498,-0.17907944321632385
1761399426816697900,5.79969775390625,-0.5035974383354187,0.3419712781906128,-0.14472243189811707
1761399426826765600,5.809765625,-0.4110516905784607,0.4169471561908722,-0.20219506323337555
1761399426836859600,5.819859619140625,-0.28689682483673096,0.3308797776699066,-0.23073984682559967
1761399426846939600,5.829939697265625,-0.18229363858699799,0.26847758889198303,-0.13751129806041718
1761399426857020400,5.8400205078125,-0.09242916852235794,0.2993372976779938,0.040768757462501526
1761399426867099400,5.850099365234375,-0.037804365158081055,0.41829612851142883,0.21921534836292267
1761399426877182000,5.860181884765625,0.0022149693686515093,0.5404691696166992,0.3768112361431122
1761399426887263000,5.870262939453125,0.07667458057403564,0.6201913952827454,0.5013325214385986
1761399426897343200,5.88034326171875,0.2655298709869385,0.5839192271232605,0.5801221132278442
1761399426907424500,5.890424560546875,0.48286330699920654,0.47718432545661926,0.6482199430465698
1761399426917504300,5.900504150390625,0.650018572807312,0.37263113260269165,0.7142693400382996
1761399426927575000,5.910574951171875,0.8410888314247131,0.049428790807724,0.7564703226089478
1761399426937666000,5.920666015625,1.105602741241455,-0.38983461260795593,0.8768613934516907
1761399426947744800,5.930744873046875,1.3502153158187866,-0.6282352805137634,1.0844190120697021
1761399426967895000,5.95089501953125,1.4249913692474365,-0.69515061378479,1.8732811212539673
1761399426977988900,5.96098876953125,1.4678418636322021,-0.29327526688575745,2.45528507232666
1761399426988069400,5.9710693359375,1.5593050718307495,0.2801186740398407,3.114013671875
1761399426998148400,5.9811484375,1.638161301612854,0.8805252313613892,3.7476282119750977
1761399427008231400,5.9912314453125,1.6365958452224731,1.3611236810684204,4.112298965454102
1761399427018323000,6.001322998046875,1.5638682842254639,1.4831467866897583,4.011542797088623
1761399427028392200,6.01139208984375,1.4715057611465454,1.1870737075805664,3.4948220252990723
1761399427038461700,6.021461669921875,1.3111785650253296,0.8338943123817444,2.9226603507995605
1761399427048553700,6.0315537109375,1.2398332357406616,0.5617861747741699,2.619342803955078
1761399427058634200,6.04163427734375,1.305599570274353,0.47918280959129333,2.5606377124786377
1761399427068702700,6.05170263671875,1.4300707578659058,0.45704975724220276,2.59511137008667
1761399427078783200,6.061783203125,1.5556412935256958,0.26737844944000244,2.5982422828674316
1761399427088856300,6.071856201171875,1.562219500541687,0.015604709275066853,2.498718500137329
1761399427098956800,6.081956787109375,1.4880430698394775,-0.4896581172943115,2.300170660018921
1761399427109037800,6.092037841796875,1.3496158123016357,-0.8006531000137329,2.137728452682495
1761399427119105000,6.10210498046875,1.2482267618179321,-0.8325952887535095,2.014789342880249
1761399427129199400,6.112199462890625,1.2127540111541748,-0.6277023553848267,1.9049569368362427
1761399427139262500,6.122262451171875,1.1925528049468994,-0.30410030484199524,1.8461519479751587
1761399427149370000,6.1323701171875,1.16693913936615,-0.11694371700286865,1.7995043992996216
1761399427159441000,6.14244091796875,1.1245882511138916,0.0465143546462059,1.7136868238449097
1761399427169522200,6.152522216796875,1.0959268808364868,0.23528636991977692,1.5871504545211792
1761399427179602200,6.162602294921875,1.0890487432479858,0.3829898536205292,1.4386309385299683
1761399427189681400,6.172681396484375,1.0962265729904175,0.4286881685256958,1.3044503927230835
1761399427199747800,6.182747802734375,1.0318260192871094,0.3992606997489929,1.1932189464569092
1761399427209844500,6.192844482421875,0.8928325176239014,0.22842495143413544,1.0806219577789307
1761399427219912200,6.202912109375,0.7323221564292908,-0.014622128568589687,0.9655933976173401
1761399427229994000,6.212993896484375,0.5498952865600586,-0.22199654579162598,0.8232191801071167
1761399427240087000,6.223087158203125,0.36833441257476807,-0.38470521569252014,0.6315993666648865
1761399427250165000,6.2331650390625,0.18918836116790771,-0.4826967716217041,0.3839224576950073
1761399427260239400,6.2432392578125,0.030343415215611458,-0.5315260291099548,0.09875765442848206
1761399427270328600,6.25332861328125,-0.1082337275147438,-0.5289613008499146,-0.1786297857761383
1761399427280409000,6.2634091796875,-0.24206450581550598,-0.44434282183647156,-0.4140327274799347
1761399427290478000,6.27347802734375,-0.37629497051239014,-0.27662137150764465,-0.5996571779251099
1761399427300568600,6.283568603515625,-0.5078441500663757,-0.05537423491477966,-0.7596845030784607
1761399427310649000,6.293649169921875,-0.64432293176651,0.2565200924873352,-0.9234423637390137
1761399427320727800,6.303727783203125,-0.783716082572937,0.6113148927688599,-1.079339623451233
1761399427330812700,6.313812744140625,-0.9215271472930908,0.9744865894317627,-1.219748616218567
1761399427340893400,6.3238935546875,-1.0295277833938599,1.3134934902191162,-1.3553613424301147
1761399427350974500,6.333974365234375,-1.123255968093872,1.584652304649353,-1.4990179538726807
1761399427361044500,6.34404443359375,-1.223662257194519,1.766729474067688,-1.6232894659042358
1761399427371135700,6.3541357421875,-1.3219869136810303,1.8697339296340942,-1.679662823677063
1761399427381212000,6.3642119140625,-1.4176636934280396,1.9461586475372314,-1.6596615314483643
1761399427391297000,6.374297119140625,-1.5183864831924438,2.009843111038208,-1.5825539827346802
1761399427401364500,6.384364501953125,-1.6238056421279907,2.061053991317749,-1.465510368347168
1761399427411458300,6.394458251953125,-1.7124210596084595,2.032425880432129,-1.2481768131256104
1761399427421538800,6.404538818359375,-1.7211977243423462,1.8252679109573364,-0.9350335001945496
1761399427431630300,6.41463037109375,-1.6574798822402954,1.6596782207489014,-0.767328679561615
1761399427441696500,6.424696533203125,-1.4453424215316772,1.4799325466156006,-0.7887622117996216
1761399427451781000,6.434781005859375,-1.0059125423431396,0.9501052498817444,-0.7225463390350342
1761399427461862000,6.44486181640625,-0.43378424644470215,0.2837325632572174,-0.4450589418411255
1761399427471930000,6.45493017578125,-0.0255470909178257,0.03912002220749855,0.0643506869673729
1761399427482023200,6.465023193359375,0.21053867042064667,0.20029650628566742,0.47523581981658936
1761399427492103700,6.475103759765625,0.378210186958313,0.3983447551727295,0.5811213254928589
1761399427502194200,6.485194091796875,0.451687216758728,0.6151452660560608,0.6276190280914307
1761399427512263200,6.49526318359375,0.4472406208515167,1.0750927925109863,0.5631184577941895
1761399427522347000,6.505346923828125,0.3735637366771698,1.7099230289459229,0.2526230812072754
1761399427532413700,6.51541357421875,0.034007273614406586,2.060904026031494,0.20497626066207886
1761399427542507000,6.525507080078125,-0.42545729875564575,1.9294548034667969,0.4808148741722107
1761399427552587300,6.535587158203125,-0.3176232874393463,1.4641114473342896,0.790860652923584
1761399427562668500,6.54566845703125,0.412783682346344,1.316557765007019,0.8298473954200745
1761399427572746800,6.555746826171875,1.1124974489212036,1.8428045511245728,0.37096571922302246
1761399427582828000,6.565828125,1.2123875617980957,1.9878933429718018,-0.21876569092273712
1761399427592897800,6.575897705078125,0.7629320621490479,1.5081442594528198,-0.3174733817577362
1761399427602954500,6.58595458984375,0.20505952835083008,0.9542853832244873,-0.038637060672044754
1761399427613046800,6.596046875,-0.1842421442270279,0.8923828601837158,-0.0173200611025095
1761399427623127300,6.606127197265625,-0.6303502917289734,1.144989252090454,-0.2556207776069641
1761399427633207800,6.616207763671875,-1.215701699256897,1.394448161125183,-0.5441996455192566
1761399427643288600,6.62628857421875,-1.7211143970489502,1.4320858716964722,-0.8010361790657043
1761399427653357800,6.63635791015625,-1.864837646484375,1.0556910037994385,-1.0511778593063354
1761399427663439000,6.646439208984375,-1.4959369897842407,0.7120043635368347,-1.1394435167312622
1761399427673540000,6.6565400390625,-0.917979896068573,0.9091366529464722,-1.0100094079971313
1761399427683620400,6.666620361328125,-0.20407694578170776,1.3920832872390747,-0.6856412887573242
1761399427693700900,6.676700927734375,0.16232560575008392,1.6807453632354736,-0.3618227243423462
1761399427703793700,6.686793701171875,0.09412787109613419,1.7341877222061157,-0.2710922658443451
1761399427713878500,6.69687841796875,-0.1550978124141693,1.6365126371383667,-0.4670920670032501
1761399427723959000,6.706958984375,-0.36268875002861023,1.604953408241272,-0.7036774158477783
1761399427734014700,6.7170146484375,-0.5060122609138489,1.691403865814209,-0.7680614590644836
1761399427744120300,6.727120361328125,-0.5518105030059814,1.8421217203140259,-0.6988644599914551
1761399427754176300,6.73717626953125,-0.4901910424232483,2.0040476322174072,-0.5891318917274475
1761399427764278300,6.7472783203125,-0.34886598587036133,2.104154348373413,-0.477817177772522
1761399427774362600,6.757362548828125,-0.20842361450195312,2.102388858795166,-0.3345603048801422
1761399427784444000,6.76744384765625,-0.18449196219444275,2.0512948036193848,-0.12656967341899872
1761399427794500600,6.77750048828125,-0.2550545632839203,1.8769617080688477,0.05474138632416725
1761399427804604700,6.787604736328125,-0.32901453971862793,1.6261872053146362,0.0983746126294136
1761399427814685700,6.797685791015625,-0.35965773463249207,1.419062614440918,-0.0003330780891701579
1761399427824765400,6.807765380859375,-0.3617061674594879,1.3166743516921997,-0.15729613602161407
1761399427834847200,6.81784716796875,-0.360990047454834,1.232588768005371,-0.30203521251678467
1761399427844928300,6.82792822265625,-0.3748294413089752,1.1144293546676636,-0.38360604643821716
1761399427854982400,6.837982421875,-0.3920329213142395,0.972987711429596,-0.39441442489624023
1761399427865089300,6.84808935546875,-0.41178444027900696,0.9862109422683716,-0.3562103807926178
1761399427875169800,6.858169677734375,-0.4278721213340759,1.1630254983901978,-0.33720827102661133
1761399427885250800,6.868250732421875,-0.4668755531311035,1.346135139465332,-0.3759952187538147
1761399427895331600,6.87833154296875,-0.4864439070224762,1.4090036153793335,-0.41671401262283325
1761399427905411600,6.88841162109375,-0.48259684443473816,1.3982452154159546,-0.4278388023376465
1761399427915493000,6.8984931640625,-0.49245595932006836,1.336675763130188,-0.42512422800064087
1761399427925573600,6.90857373046875,-0.5427840948104858,1.1829102039337158,-0.4393133521080017
1761399427935654000,6.91865380859375,-0.6213072538375854,0.9472241401672363,-0.4295708239078522
1761399427945734100,6.928734130859375,-0.7022285461425781,0.7746896743774414,-0.37359705567359924
1761399427955801600,6.938801513671875,-0.7694104313850403,0.7109052538871765,-0.3037339150905609
1761399427965895700,6.948895751953125,-0.757519543170929,0.6198750138282776,-0.2126370519399643
1761399427975951000,6.958951171875,-0.7000135779380798,0.5840024948120117,-0.13423047959804535
1761399427986048000,6.969048095703125,-0.6273525953292847,0.6108985543251038,-0.11582791060209274
1761399427996137500,6.979137451171875,-0.5259469747543335,0.5824370384216309,-0.1441895067691803
1761399428006218200,6.98921826171875,-0.4504714608192444,0.5486629009246826,-0.17145195603370667
1761399428016299500,6.999299560546875,-0.3246345520019531,0.6549647450447083,-0.1357959359884262
1761399428026380300,7.00938037109375,-0.24104861915111542,0.8261669278144836,-0.1387103796005249
1761399428036461000,7.0194609375,-0.17659801244735718,0.7871134877204895,-0.13511313498020172
1761399428046520300,7.029520263671875,-0.098024882376194,0.6162278056144714,-0.09227928519248962
1761399428056621600,7.03962158203125,-0.027662135660648346,0.4793493449687958,-0.003946975339204073
1761399428066702300,7.049702392578125,0.0004996171337552369,0.44252756237983704,0.10571898519992828
1761399428076758000,7.059758056640625,0.024098200723528862,0.5155216455459595,0.21466884016990662
1761399428086864400,7.069864501953125,0.050627872347831726,0.6794626712799072,0.3272658884525299
1761399428096944400,7.0799443359375,0.0867834985256195,0.8266998529434204,0.4453420639038086
1761399428106996700,7.089996826171875,0.1664058119058609,0.8977786898612976,0.5955103039741516
1761399428117105700,7.100105712890625,0.31875574588775635,0.8603240847587585,0.7800688743591309
1761399428127186400,7.1101865234375,0.5225162506103516,0.7378179430961609,0.9686244130134583
1761399428137267700,7.120267822265625,0.7767714262008667,0.5778072476387024,1.138327717781067
1761399428147347500,7.130347412109375,1.058255672454834,0.2158346027135849,1.2807185649871826
1761399428157428500,7.140428466796875,1.2962234020233154,-0.14851951599121094,1.3813414573669434
1761399428167510000,7.150510009765625,1.4596481323242188,-0.1916864514350891,1.4831467866897583
1761399428177589500,7.160589599609375,1.533141851425171,-0.068447545170784,1.6959171295166016
1761399428187670300,7.170670166015625,1.555491328239441,-0.01458882074803114,2.0889158248901367
1761399428197752000,7.180751953125,1.578890085220337,0.10255474597215652,2.5973095893859863
1761399428207832600,7.19083251953125,1.6224234104156494,0.3377911448478699,3.043334484100342
1761399428217893000,7.20089306640625,1.5975258350372314,0.6637913584709167,3.289362668991089
1761399428227968800,7.21096875,1.447524070739746,1.1654735803604126,3.305650234222412
1761399428238039300,7.221039306640625,1.226227045059204,1.8291317224502563,3.1543827056884766
1761399428248151600,7.231151611328125,1.0498288869857788,2.344719886779785,2.918163776397705
1761399428258242600,7.24124267578125,0.9904576539993286,2.388636350631714,2.6706035137176514
1761399428268315600,7.251315673828125,0.9896416664123535,2.092313289642334,2.5164382457733154
1761399428278393000,7.26139306640625,1.0255640745162964,1.8398734331130981,2.5189363956451416
1761399428288477200,7.271477294921875,1.0737438201904297,1.7774379253387451,2.5337750911712646
1761399428298558500,7.281558349609375,1.1268031597137451,1.6532331705093384,2.432136297225952
1761399428308638700,7.291638671875,1.1103991270065308,1.320271611213684,2.2379350662231445
1761399428318720000,7.301719970703125,1.0172204971313477,0.7976720929145813,1.9955707788467407
1761399428328825900,7.311825927734375,0.8744465708732605,0.30286791920661926,1.7680951356887817
1761399428338877200,7.321877197265625,0.7486263513565063,-0.03190888091921806,1.5418184995651245
1761399428348961800,7.3319619140625,0.6821606159210205,-0.309712678194046,1.3417718410491943
1761399428359041800,7.342041748046875,0.5941946506500244,-0.4278721213340759,1.1942682266235352
1761399428369098000,7.352097900390625,0.4523533582687378,-0.4528529942035675,1.100206971168518
1761399428379203300,7.362203369140625,0.2928922176361084,-0.441395103931427,1.063018798828125
1761399428389284000,7.3722841796875,0.14617131650447845,-0.39513054490089417,1.065416932106018
1761399428399360800,7.38236083984375,0.060470327734947205,-0.30951282382011414,1.0923463106155396
1761399428409445400,7.3924453125,0.03110949508845806,-0.20990581810474396,1.0963598489761353
1761399428419526100,7.402526123046875,0.04153483733534813,-0.1462712436914444,1.0783569812774658
1761399428429607400,7.412607421875,0.09859111905097961,-0.13497990369796753,1.0546084642410278
1761399428439687700,7.422687744140625,0.1613430231809616,-0.12160681188106537,1.0275791883468628
1761399428449768200,7.432768310546875,0.12370520830154419,-0.06506680697202682,0.9502052068710327
1761399428459849700,7.442849609375,0.002914433367550373,0.10611867904663086,0.7825836539268494
1761399428469925400,7.45292529296875,-0.1287013739347458,0.35158059000968933,0.5376046895980835
1761399428479984600,7.462984619140625,-0.24632790684700012,0.5962597727775574,0.28389912843704224
1761399428490091300,7.47309130859375,-0.3563435971736908,0.758951723575592,0.0810878649353981
1761399428500172000,7.483172119140625,-0.48134779930114746,0.882923424243927,-0.05106087401509285
1761399428510246700,7.49324658203125,-0.6099825501441956,0.9751860499382019,-0.16825440526008606
1761399428520333600,7.50333349609375,-0.7280254364013672,1.037155270576477,-0.31700706481933594
1761399428530388500,7.513388427734375,-0.8266165852546692,1.08147132396698,-0.5170204639434814
1761399428540494600,7.52349462890625,-0.9153818488121033,1.1328818798065186,-0.756820023059845
1761399428550575000,7.5335751953125,-1.020617961883545,1.1971160173416138,-0.9892919063568115
1761399428560655400,7.5436552734375,-1.1289682388305664,1.2449626922607422,-1.1800789833068848
1761399428570736400,7.553736328125,-1.1924529075622559,1.2776542901992798,-1.2592017650604248
1761399428580817000,7.56381689453125,-1.142574429512024,1.1935853958129883,-0.9996506571769714
1761399428590897700,7.573897705078125,-0.9055560827255249,0.9153652191162109,-0.3879527151584625
1761399428600953000,7.583953125,-0.4365987777709961,0.4119509756565094,0.2655298709869385
1761399428611060200,7.594060302734375,0.15644678473472595,0.07799023389816284,0.6518837809562683
1761399428621139700,7.6041396484375,0.5624690055847168,0.26128309965133667,0.7100725173950195
1761399428631220200,7.61422021484375,0.7450790405273438,0.43386751413345337,0.6481366753578186
1761399428641269000,7.62426904296875,0.7249444723129272,0.4591481685638428,0.558355450630188
1761399428651381800,7.6343818359375,0.6440398097038269,0.3557940125465393,0.4854946434497833
1761399428661459000,7.644458984375,0.5188524127006531,0.21192093193531036,0.4550679624080658
1761399428671518200,7.654518310546875,0.25953444838523865,0.21498525142669678,0.49105703830718994
1761399428681598700,7.6645986328125,-0.13063323497772217,0.43593260645866394,0.5064619183540344
1761399428691705600,7.67470556640625,-0.5428340435028076,0.5308932065963745,0.5411686301231384
1761399428701785000,7.68478515625,-0.911185085773468,0.7336211800575256,0.596159815788269
1761399428711865900,7.694865966796875,-1.0059458017349243,1.0554245710372925,0.6277023553848267
1761399428721921000,7.704921142578125,-0.5906307101249695,1.314092993736267,0.44247758388519287
1761399428732027100,7.715027099609375,0.1770976185798645,1.809396743774414,-0.027079248800873756
1761399428742082800,7.725082763671875,0.8143426179885864,1.96452796459198,-0.320104718208313
1761399428752189700,7.735189697265625,0.994804322719574,1.7959403991699219,-0.3085968494415283
1761399428762270200,7.745270263671875,0.6854414343833923,1.6646744012832642,-0.1018386259675026
1761399428772350200,7.75535009765625,0.1594611406326294,1.6013728380203247,0.004180130083113909
1761399428782430700,7.7654306640625,-0.4185459315776825,1.4850287437438965,-0.07630819082260132
1761399428792508200,7.775508056640625,-1.0733275413513184,1.1717687845230103,-0.2712254822254181
1761399428802592800,7.7855927734375,-1.6416586637496948,0.8564770221710205,-0.40628865361213684
1761399428812633000,7.795633056640625,-1.8471179008483887,0.7786033749580383,-0.47593528032302856
1761399428822753800,7.80575390625,-1.5381380319595337,0.9102524518966675,-0.5640177726745605
1761399428832834300,7.815834228515625,-0.8807584047317505,1.2359029054641724,-0.636428952217102
1761399428842892800,7.825892822265625,-0.273173987865448,1.5545754432678223,-0.5944111943244934
1761399428852992000,7.835991943359375,-0.0009825803572311997,1.662875771522522,-0.4114680290222168
1761399428863076000,7.846076171875,-0.027495596557855606,1.7462618350982666,-0.1992473155260086
1761399428873157600,7.85615771484375,-0.15859512984752655,1.9576832056045532,-0.1260034441947937
1761399428883237400,7.8662373046875,-0.29077717661857605,2.1637585163116455,-0.2494421899318695
1761399428893318100,7.876318115234375,-0.40788742899894714,2.2907779216766357,-0.4393799602985382
1761399428903399200,7.886399169921875,-0.5170871019363403,2.376312255859375,-0.5324419736862183
1761399428913454600,7.89645458984375,-0.6091665029525757,2.390584707260132,-0.47953253984451294
1761399428923556400,7.906556396484375,-0.6397097706794739,2.359675168991089,-0.3079639971256256
1761399428933617700,7.91661767578125,-0.5900977849960327,2.2781543731689453,-0.10866672545671463
1761399428943722200,7.92672216796875,-0.5146556496620178,2.123039722442627,0.05111083388328552
1761399428953802000,7.936802001953125,-0.4599975049495697,1.9600147008895874,0.17881298065185547
1761399428963883500,7.946883544921875,-0.43538302183151245,1.816957712173462,0.27167513966560364
1761399428973963500,7.956963623046875,-0.4250742793083191,1.6982985734939575,0.33202889561653137
1761399428984019000,7.96701904296875,-0.4245746433734894,1.5822374820709229,0.3448024392127991
1761399428994100000,7.977099853515625,-0.43481680750846863,1.450954794883728,0.30041977763175964
1761399429004205600,7.98720556640625,-0.43470022082328796,1.2957403659820557,0.21476875245571136
1761399429014287000,7.997287109375,-0.4316525459289551,1.1804786920547485,0.11557810008525848
1761399429024358000,8.00735791015625,-0.44302716851234436,1.133248209953308,0.03269161656498909
1761399429034448100,8.0174482421875,-0.4727210998535156,1.114595890045166,-0.01941845379769802
1761399429044529400,8.027529296875,-0.5293110609054565,1.0932456254959106,-0.056473392993211746
1761399429054609000,8.03760888671875,-0.5917465686798096,1.0760087966918945,-0.09354498237371445
1761399429064690200,8.047690185546875,-0.6394766569137573,1.0565736293792725,-0.14373984932899475
1761399429074770200,8.057770263671875,-0.6757321953773499,1.0369220972061157,-0.19117017090320587
1761399429084851500,8.0678515625,-0.7109718322753906,1.0021153688430786,-0.20664164423942566
1761399429094931700,8.077931640625,-0.7494590282440186,0.976568341255188,-0.18858881294727325
1761399429105013000,8.088012939453124,-0.7792695164680481,0.9622126817703247,-0.14577162265777588
1761399429115070500,8.098070556640625,-0.7973889708518982,0.9669756889343262,-0.09056393802165985
1761399429125161200,8.1081611328125,-0.8104456067085266,0.9785667657852173,-0.0544249601662159
1761399429135254500,8.118254638671875,-0.8209042549133301,0.9594314694404602,-0.07312729954719543
1761399429145337600,8.128337646484376,-0.8383076190948486,0.9156816601753235,-0.15378215909004211
1761399429155416000,8.138416015625,-0.8553945422172546,0.8319291472434998,-0.263747900724411
1761399429165483000,8.14848291015625,-0.8493990898132324,0.67588210105896,-0.342054545879364
1761399429175573200,8.1585732421875,-0.7908772826194763,0.48314642906188965,-0.3566267192363739
1761399429185642200,8.168642333984375,-0.6729509830474854,0.31972166895866394,-0.3016521632671356
1761399429195739000,8.17873876953125,-0.5866171717643738,0.2804517447948456,-0.21335317194461823
1761399429205806600,8.188806640625,-0.5507446527481079,0.4160645008087158,-0.12671956419944763
1761399429215900200,8.198900146484375,-0.4970690906047821,0.6373615860939026,-0.10671821981668472
1761399429225980200,8.208980224609375,-0.3678514361381531,0.7301071882247925,-0.12089069187641144
1761399429236038000,8.219037841796874,-0.24795998632907867,0.7170005440711975,-0.08553445339202881
1761399429246126600,8.229126708984374,-0.18677353858947754,0.6057025194168091,0.02254938706755638
1761399429256208100,8.2392080078125,-0.16330818831920624,0.4735870957374573,0.15544754266738892
1761399429266303500,8.249303466796874,-0.1315658539533615,0.4176466166973114,0.2634647786617279
1761399429276376000,8.2593759765625,-0.07687442749738693,0.41241729259490967,0.32250288128852844
1761399429286452200,8.2694521484375,-0.003297473071143031,0.3971623182296753,0.3930155038833618
1761399429296543500,8.27954345703125,0.14958536624908447,0.2861473858356476,0.5286116003990173
1761399429306613200,8.28961328125,0.32804861664772034,-0.002997702918946743,0.6695202589035034
1761399429316694000,8.299694091796875,0.48209723830223083,-0.3365088105201721,0.8052329421043396
1761399429326787600,8.30978759765625,0.668121337890625,-0.5394532680511475,0.9532861709594727
1761399429336855800,8.319855712890625,0.8698834180831909,-0.5728943347930908,1.1309000253677368
1761399429346949000,8.32994921875,1.0056626796722412,-0.5166374444961548,1.2824006080627441
1761399429357027600,8.340027587890624,1.111165165901184,-0.3399561643600464,1.4528533220291138
1761399429367110400,8.3501103515625,1.191770076751709,0.03094295598566532,1.761533498764038
1761399429377179400,8.360179443359375,1.269027590751648,0.4573495388031006,2.1833934783935547
1761399429387271400,8.370271484375,1.3692173957824707,0.9764350652694702,2.644407033920288
1761399429397353000,8.38035302734375,1.4904412031173706,1.48917555809021,2.9444103240966797
1761399429407412000,8.390411865234375,1.5333083868026733,1.8383746147155762,2.9357171058654785
1761399429417513700,8.400513671875,1.4572832584381104,1.8434374332427979,2.6146130561828613
1761399429427592700,8.4105927734375,1.2719086408615112,1.519202470779419,2.166123390197754
1761399429437662700,8.420662841796876,1.0396533012390137,1.11741042137146,1.770693063735962
1761399429447756000,8.430756103515625,0.8705828785896301,0.747160792350769,1.5914970636367798
1761399429457836300,8.440836181640625,0.8038173913955688,0.4822637736797333,1.6325156688690186
1761399429467905800,8.45090576171875,0.7905608415603638,0.3049829602241516,1.741299033164978
1761399429477998000,8.460998046875,0.7799856066703796,0.06175268068909645,1.7414155006408691
1761399429488076500,8.47107666015625,0.7501751184463501,-0.27675458788871765,1.623489260673523
1761399429498159000,8.4811591796875,0.6852248907089233,-0.5624856352806091,1.47673499584198
1761399429508227300,8.491227294921876,0.6339475512504578,-0.6902377605438232,1.336609125137329
1761399429518320000,8.501320068359375,0.6726345419883728,-0.7848485708236694,1.2208811044692993
1761399429528401000,8.51140087890625,0.703527569770813,-0.833461344242096,1.1740503311157227
1761399429538469400,8.521469482421875,0.6795792579650879,-0.778853178024292,1.1441066265106201
1761399429548562700,8.531562744140626,0.6521669030189514,-0.708607017993927,1.0606205463409424
1761399429558630700,8.541630615234375,0.6497687697410583,-0.6453055143356323,0.9218602180480957
1761399429568727000,8.55172705078125,0.664141058921814,-0.5640177726745605,0.7829000949859619
1761399429578804700,8.5618046875,0.6984148025512695,-0.5136896967887878,0.6953837871551514
1761399429588879600,8.571879638671875,0.7637647390365601,-0.4808315336704254,0.664007842540741
1761399429598965800,8.5819658203125,0.8190390467643738,-0.4192620515823364,0.6736171245574951
1761399429609037000,8.592037109375,0.8137930631637573,-0.33889031410217285,0.6789297461509705
1761399429619125500,8.60212548828125,0.7719917297363281,-0.321986585855484,0.6462880969047546
1761399429629205200,8.612205322265625,0.7065585851669312,-0.3697666525840759,0.553009569644928
1761399429639289000,8.6222890625,0.6266697645187378,-0.4638611972332001,0.390350878238678
1761399429649369900,8.632369873046875,0.5317924618721008,-0.5741433501243591,0.1935516744852066
1761399429659437300,8.642437255859376,0.4499385356903076,-0.72459477186203,0.0009659265051595867
1761399429669531000,8.65253076171875,0.3850715756416321,-0.8450691103935242,-0.172384575009346
1761399429679609600,8.662609619140625,0.30280131101608276,-0.9000602960586548,-0.341921329498291
1761399429689692000,8.67269189453125,0.18644046783447266,-0.9405958652496338,-0.5272959470748901
1761399429699772700,8.682772705078126,0.061303023248910904,-1.0025817155838013,-0.7444462180137634
1761399429709853200,8.692853271484376,-0.05309264734387398,-1.0899314880371094,-0.9649938344955444
1761399429719934500,8.7029345703125,-0.1611265242099762,-1.1671056747436523,-1.157329797744751
1761399429730015200,8.71301513671875,-0.2516404986381531,-1.2421481609344482,-1.2795528173446655
1761399429740096000,8.723095947265625,-0.3229525089263916,-1.3288650512695312,-1.2685779333114624
1761399429750162700,8.73316259765625,-0.3774440884590149,-1.4379481077194214,-1.1159615516662598
1761399429760231700,8.743231689453125,-0.42915448546409607,-1.5221335887908936,-0.9297375679016113
1761399429770337800,8.753337890625,-0.5077608823776245,-1.5439834594726562,-0.8385574221611023
1761399429780406500,8.763406494140625,-0.6064352989196777,-1.5559743642807007,-0.9562005996704102
1761399429790500600,8.77350048828125,-0.6487694978713989,-1.8301641941070557,-1.079622745513916
1761399429800567300,8.7835673828125,-0.5848518013954163,-2.1718523502349854,-1.0376548767089844
1761399429810656000,8.793656005859376,-0.50059974193573,-2.3006370067596436,-1.0340576171875
1761399429820727800,8.803727783203126,-0.44649118185043335,-2.405123710632324,-1.139243721961975
1761399429830821600,8.813821533203125,-0.4705394208431244,-2.4201953411102295,-1.1822940111160278
1761399429840902400,8.82390234375,-0.4981016516685486,-2.159045457839966,-1.1026051044464111
1761399429850980400,8.83398046875,-0.42364203929901123,-1.6974492073059082,-0.9141162037849426
1761399429861063700,8.844063720703126,-0.22657637298107147,-0.9978853464126587,-0.6470874547958374
1761399429871144400,8.85414453125,0.15484800934791565,-0.39679592847824097,-0.45615044236183167
1761399429881216500,8.864216552734375,0.5234488844871521,-0.17388342320919037,-0.3748127818107605
1761399429891285200,8.87428515625,0.7529063820838928,-0.15143395960330963,-0.2588683068752289
1761399429901386500,8.884386474609375,0.7879961729049683,-0.3262166976928711,-0.05892151594161987
1761399429911467300,8.89446728515625,0.546564519405365,-0.7220466732978821,0.021983154118061066
1761399429921548000,8.904548095703126,0.32175344228744507,-0.6190422773361206,-0.06806451082229614
1761399429931634700,8.914634765625,0.42915448546409607,-0.0635179951786995,-0.21693375706672668
1761399429941705000,8.924705078125,0.4504048526287079,0.06075344607234001,-0.0038303982000797987
1761399429951789800,8.934789794921874,0.3062320053577423,-0.07735738903284073,0.7283585071563721
1761399429961858800,8.94485888671875,0.391966313123703,-0.24059896171092987,1.120224952697754
1761399429971951000,8.954951171875,0.4487394690513611,-0.24965868890285492,0.7895616292953491
1761399429982032000,8.965031982421875,0.3830564618110657,-0.42672300338745117,0.21773314476013184
1761399429992100400,8.975100341796875,0.19936388731002808,-0.7462448477745056,-0.3809081017971039
1761399430002191000,8.985191162109375,-0.09467744827270508,-1.1630254983901978,-1.0034977197647095
1761399430012262100,8.99526220703125,-0.4185292720794678,-1.569297432899475,-1.6133970022201538
1761399430022336800,9.005336669921874,-0.6563137173652649,-1.8020857572555542,-2.106802225112915
1761399430032435200,9.015435302734375,-0.7035775184631348,-1.8683682680130005,-2.3541793823242188
1761399430042503400,9.02550341796875,-0.5535591244697571,-1.7678619623184204,-2.3183400630950928
1761399430052596700,9.0355966796875,-0.19698238372802734,-1.589048981666565,-2.0632855892181396
1761399430062677200,9.04567724609375,0.24674426019191742,-1.408637285232544,-1.7211977243423462
1761399430072756000,9.055755859375,0.5270294547080994,-1.1800124645233154,-1.3668526411056519
1761399430082818600,9.065818603515625,0.58202064037323,-1.0524102449417114,-1.1179766654968262
1761399430092919000,9.0759189453125,0.4223097264766693,-0.9797825217247009,-1.0743767023086548
1761399430102999800,9.085999755859374,0.1540486216545105,-0.8531129360198975,-1.1802456378936768
1761399430113080800,9.096080810546875,-0.0803883969783783,-0.7861975431442261,-1.2716422080993652
1761399430123161600,9.10616162109375,-0.18569104373455048,-0.8531628847122192,-1.2524069547653198
1761399430133217000,9.116217041015625,-0.17076914012432098,-0.9562339186668396,-1.1557976007461548
1761399430143323000,9.126322998046875,-0.10770080238580704,-1.056557059288025,-1.0455987453460693
1761399430153377800,9.136377685546876,-0.060853369534015656,-1.1646075248718262,-0.9693905115127563
1761399430163472000,9.146471923828125,-0.03733805567026138,-1.2609504461288452,-0.9298707842826843
1761399430173552000,9.15655224609375,-0.027828674763441086,-1.3343441486358643,-0.8920997381210327
1761399430183645200,9.166645263671874,-0.017386676743626595,-1.3999439477920532,-0.8437700867652893
1761399430193726500,9.1767265625,-0.018602412194013596,-1.4831300973892212,-0.8009862303733826
1761399430203811800,9.186811767578124,-0.029927067458629608,-1.5965431928634644,-0.7895449995994568
1761399430213888000,9.196887939453125,-0.03527297079563141,-1.7720754146575928,-0.8310132026672363
1761399430223968300,9.20696826171875,-0.03189222887158394,-1.9714559316635132,-0.941511869430542
1761399430234036200,9.2170361328125,-0.03833729028701782,-2.1254546642303467,-1.0967262983322144
1761399430244129500,9.227129638671874,-0.059887442737817764,-2.235553503036499,-1.2481602430343628
1761399430254210300,9.237210205078124,-0.09001435339450836,-2.317474126815796,-1.3295478820800781
1761399430264276200,9.247276123046875,-0.0985078439116478,-2.3364763259887695,-1.3019189834594727
1761399430274367500,9.257367431640626,-0.08535125851631165,-2.274207353591919,-1.2056760787963867
1761399430284452400,9.267452392578125,-0.056589968502521515,-2.1794300079345703,-1.0837361812591553
1761399430294533000,9.277533203125,-0.010158881545066833,-2.0885329246520996,-0.9845288991928101
1761399430304613600,9.287613525390626,0.026829440146684647,-1.993139386177063,-0.9349502325057983
1761399430314694400,9.2976943359375,0.019568338990211487,-1.8694840669631958,-0.9340509176254272
1761399430324773000,9.307773193359376,-0.03485662117600441,-1.7065589427947998,-0.9665093421936035
1761399430334867200,9.3178671875,-0.11477871239185333,-1.5311100482940674,-1.000866413116455
1761399430344936400,9.3279365234375,-0.2050095647573471,-1.4203449487686157,-1.0180366039276123
1761399430354998300,9.337998291015625,-0.2752057909965515,-1.4359996318817139,-1.015238642692566
1761399430365097700,9.34809765625,-0.28946152329444885,-1.5192691087722778,-1.0125408172607422
1761399430375178500,9.358178466796875,-0.23963303864002228,-1.5670325756072998,-1.0352400541305542
1761399430385259000,9.368259033203126,-0.13681182265281677,-1.5378549098968506,-1.092179775238037
1761399430395337700,9.378337646484376,-0.03887021541595459,-1.4396967887878418,-1.1454721689224243
1761399430405420300,9.388420166015624,-0.0021816615480929613,-1.4415953159332275,-1.1200916767120361
1761399430415499000,9.3984990234375,-0.003713820828124881,-1.5890822410583496,-1.0244816541671753
1761399430425579800,9.408579833984374,-0.056473392993211746,-1.7865976095199585,-0.8563604354858398
1761399430435661000,9.4186611328125,-0.13881029188632965,-1.8412224054336548,-0.6799456477165222
1761399430445740800,9.42874072265625,-0.19818146526813507,-1.6589953899383545,-0.5867170691490173
1761399430455821600,9.438821533203125,-0.2095893919467926,-1.4912573099136353,-0.5387204885482788
1761399430465892600,9.448892578125,-0.2527729570865631,-1.4059059619903564,-0.39859455823898315
1761399430475985000,9.45898486328125,-0.1471039354801178,-1.2066086530685425,-0.1671718955039978
1761399430486065700,9.469065673828124,-0.0025813551619648933,-1.0263302326202393,0.069280244410038
1761399430496146000,9.47914599609375,0.12104058265686035,-1.017720103263855,0.3091464340686798
1761399430506227500,9.4892275390625,0.2523399591445923,-1.1091833114624023,0.5839192271232605
1761399430516284200,9.4992841796875,0.4369485080242157,-1.2801856994628906,0.8562272191047668
1761399430526365400,9.509365478515624,0.6407923102378845,-1.5464816093444824,1.081671118736267
1761399430536457000,9.51945703125,0.7864307165145874,-1.8370423316955566,1.2541056871414185
1761399430546550000,9.529550048828124,0.8059657216072083,-2.0530266761779785,1.3681349754333496
1761399430556618500,9.539618408203125,0.7228127717971802,-2.177048444747925,1.416780948638916
1761399430566711300,9.549711181640625,0.6372783184051514,-2.294674873352051,1.4404128789901733
1761399430576789800,9.559789794921874,0.6178432106971741,-2.476285696029663,1.4963699579238892
1761399430586859800,9.56985986328125,0.6254040598869324,-2.6534500122070312,1.6429743766784668
1761399430596953600,9.57995361328125,0.6614931225776672,-2.7184503078460693,1.8877201080322266
1761399430607034000,9.5900341796875,0.7385174036026001,-2.660078287124634,2.112281322479248
1761399430617115400,9.600115478515624,0.8471008539199829,-2.512624502182007,2.173734188079834
1761399430627195600,9.610195556640624,0.9843956828117371,-2.2963736057281494,2.011059045791626
1761399430637274400,9.6202744140625,1.13957679271698,-2.0775413513183594,1.6520839929580688
1761399430647333000,9.6303330078125,1.293592095375061,-1.9641615152359009,1.2032779455184937
1761399430657437400,9.6404375,1.4420117139816284,-1.9474409818649292,0.8241684436798096
1761399430667518200,9.650518310546875,1.5670990943908691,-1.914649486541748,0.5647672414779663
1761399430677598700,9.6605986328125,1.6448395252227783,-1.8686014413833618,0.36638590693473816
1761399430687679200,9.67067919921875,1.6653238534927368,-1.8163248300552368,0.1850748509168625
1761399430697760000,9.680760009765624,1.6838430166244507,-1.7343376874923706,-0.018086140975356102
1761399430707839000,9.6908388671875,1.735919713973999,-1.6685214042663574,-0.28509819507598877
1761399430717919500,9.70091943359375,1.7922931909561157,-1.6285520792007446,-0.5893816947937012
1761399430728002600,9.71100244140625,1.8217706680297852,-1.638261318206787,-0.8964797258377075
1761399430738083300,9.721083251953125,1.7969563007354736,-1.7049767971038818,-1.1600444316864014
1761399430748163800,9.731163818359375,1.7330219745635986,-1.8759291172027588,-1.3639215230941772
1761399430758219000,9.741218994140626,1.6694207191467285,-2.1391940116882324,-1.5283788442611694
1761399430768322000,9.751322021484375,1.6343642473220825,-2.383556842803955,-1.6530832052230835
1761399430778395400,9.7613955078125,1.5981086492538452,-2.4892592430114746,-1.7217639684677124
1761399430788464000,9.771464111328125,1.5016160011291504,-2.420095443725586,-1.727959156036377
1761399430798567200,9.781567138671875,1.3848720788955688,-2.26979398727417,-1.688406229019165
1761399430808635000,9.791634765625,1.3062989711761475,-2.104820489883423,-1.632682204246521
1761399430818728400,9.801728515625,1.2611169815063477,-1.9886927604675293,-1.588366150856018
1761399430828809000,9.81180908203125,1.2320059537887573,-1.884522557258606,-1.5314431190490723
1761399430838888000,9.821887939453125,1.2324888706207275,-1.8683682680130005,-1.4834798574447632
1761399430848970800,9.831970703125,1.3090968132019043,-2.04353404045105,-1.4739371538162231
1761399430859038000,9.842037841796875,1.477717638015747,-2.3101296424865723,-1.4670591354370117
1761399430869119200,9.852119140625,1.5775244235992432,-2.4472413063049316,-1.4354166984558105
1761399430879212500,9.862212646484375,1.5473976135253906,-2.4182469844818115,-1.382956862449646
1761399430889281800,9.87228173828125,1.4756191968917847,-2.256404161453247,-1.3195388317108154
1761399430899358700,9.882358642578126,1.39724600315094,-2.0484635829925537,-1.2716255187988281
1761399430909454600,9.89245458984375,1.3172073364257812,-1.8521140813827515,-1.2415986061096191
1761399430919535400,9.902535400390626,1.2359029054641724,-1.680895209312439,-1.2155019044876099
1761399430929615600,9.91261572265625,1.1654402017593384,-1.5514944791793823,-1.1852251291275024
1761399430939696400,9.9226962890625,1.0776408910751343,-1.4296211004257202,-1.114046335220337
1761399430949764600,9.9327646484375,0.994054913520813,-1.3847888708114624,-1.0172704458236694
1761399430959855600,9.942855712890625,0.9166808724403381,-1.3546119928359985,-0.9001768827438354
1761399430969938700,9.952938720703125,0.8192222118377686,-1.3576096296310425,-0.8135765790939331
1761399430980019000,9.96301904296875,0.7201148271560669,-1.3941149711608887,-0.7915267944335938
1761399430990100000,9.973099853515626,0.6535658240318298,-1.4133002758026123,-0.7976720929145813
1761399431000159200,9.9831591796875,0.5661661624908447,-1.430653691291809,-0.829680860042572
1761399431010261200,9.99326123046875,0.46287864446640015,-1.4218270778656006,-0.8626223206520081
1761399431020341800,10.003341796875,0.35297951102256775,-1.3660532236099243,-0.8906175494194031
1761399431030408000,10.013407958984375,0.2519402801990509,-1.2422147989273071,-0.905006468296051
1761399431040505600,10.023505615234376,0.16867074370384216,-1.0716787576675415,-0.8955304026603699
1761399431050582000,10.03358203125,0.10668491572141647,-0.8866705298423767,-0.8578925728797913
1761399431060651500,10.043651611328125,0.07067917287349701,-0.7095063328742981,-0.8166741728782654
1761399431070735000,10.053735107421875,0.06115313991904259,-0.5664992332458496,-0.7896448969841003
1761399431080825900,10.063825927734374,0.07019621133804321,-0.49433785676956177,-0.7749894857406616
1761399431090892500,10.073892578125,0.08331948518753052,-0.5063120126724243,-0.7749561667442322
1761399431100987400,10.0839873046875,0.08130436390638351,-0.5659496188163757,-0.7993374466896057
1761399431111055600,10.0940556640625,0.06440065056085587,-0.6208242774009705,-0.8439865708351135
1761399431121148400,10.1041484375,0.037637826055288315,-0.6594613194465637,-0.8970126509666443
1761399431131228700,10.114228759765625,0.004746363032609224,-0.696466326713562,-0.9218935370445251
1761399431141298200,10.124298095703125,-0.04361657798290253,-0.7226961851119995,-0.9268897175788879
1761399431151390700,10.134390625,-0.10275459289550781,-0.7226795554161072,-0.9322356581687927
1761399431161467400,10.14446728515625,-0.1559971272945404,-0.7004299163818359,-0.9321523904800415
1761399431171552000,10.154552001953125,-0.22043108940124512,-0.6655899882316589,-0.9285051822662354
1761399431181639400,10.164639404296874,-0.2839990258216858,-0.6243715286254883,-0.9376814365386963
1761399431191713300,10.17471337890625,-0.3441862463951111,-0.5379544496536255,-0.9990844130516052
1761399431201794000,10.1847939453125,-0.43636560440063477,-0.38420557975769043,-1.1285852193832397
1761399431221950000,10.204949951171875,-0.616677463054657,-0.22031450271606445,-1.279719352722168
1761399431232036400,10.215036376953124,-0.43836408853530884,-0.5242482423782349,-0.9254907965660095
1761399431242116900,10.225116943359374,-0.06551646441221237,-0.7387338876724243,-0.40006008744239807
1761399431252192000,10.23519189453125,0.2679113745689392,-0.9711891412734985,0.010525267571210861
1761399431262278400,10.2452783203125,0.33479344844818115,-1.2010629177093506,0.15105091035366058
1761399431272359000,10.25535888671875,0.15095099806785583,-1.2554212808609009,-0.009159647859632969
1761399431282427400,10.265427490234375,-0.21258708834648132,-1.1931023597717285,-0.3101956248283386
1761399431292520000,10.27552001953125,-0.6649071574211121,-1.1087003946304321,-0.551777184009552
1761399431302601000,10.28560107421875,-1.0630853176116943,-1.143457055091858,-0.6505348086357117
1761399431312663300,10.295663330078124,-1.2996541261672974,-1.3799258470535278,-0.6842589974403381
1761399431322738700,10.30573876953125,-1.230890154838562,-1.837208867073059,-0.7535059452056885
1761399431332830700,10.315830810546874,-0.8730143308639526,-2.425774574279785,-0.8841391801834106
1761399431342923800,10.325923828125,-0.41533172130584717,-2.9284892082214355,-1.028511881828308
1761399431353002800,10.336002685546875,0.03149253502488136,-3.019336223602295,-1.0463981628417969
1761399431363084500,10.34608447265625,0.313926100730896,-2.818390369415283,-0.9558841586112976
1761399431373165600,10.35616552734375,0.28141769766807556,-2.549179792404175,-0.8550114631652832
1761399431383246600,10.36624658203125,0.017553215846419334,-2.119142770767212,-0.8691340088844299
1761399431393318400,10.376318359375,-0.2361024022102356,-1.7548719644546509,-1.043167233467102
1761399431403393800,10.386393798828125,-0.30403369665145874,-1.5920467376708984,-1.2361193895339966
1761399431413484000,10.396484130859376,-0.2564534842967987,-1.592496395111084,-1.3841392993927002
1761399431423568600,10.406568603515625,-0.19346840679645538,-1.6428910493850708,-1.4351669549942017
1761399431433646300,10.416646240234375,-0.15116749703884125,-1.6439568996429443,-1.3854550123214722
1761399431443729700,10.426729736328125,-0.10991577059030533,-1.6465215682983398,-1.2978055477142334
1761399431453812500,10.4368125,-0.09822472929954529,-1.6418418884277344,-1.2329052686691284
1761399431463879200,10.446879150390625,-0.122739277780056,-1.6086506843566895,-1.2108221054077148
1761399431473972700,10.45697265625,-0.1496686488389969,-1.569014310836792,-1.241998314857483
1761399431484051500,10.467051513671874,-0.17929594218730927,-1.4868439435958862,-1.300370216369629
1761399431494121500,10.47712158203125,-0.21884895861148834,-1.412117838859558,-1.3435205221176147
1761399431504214000,10.487214111328125,-0.2617993950843811,-1.3735474348068237,-1.33932363986969
1761399431514295600,10.497295654296876,-0.3128103017807007,-1.3426544666290283,-1.2841992378234863
1761399431524375600,10.50737548828125,-0.3545449674129486,-1.3415719270706177,-1.199447512626648
1761399431534444300,10.5174443359375,-0.35138073563575745,-1.3708661794662476,-1.1171272993087769
1761399431544535000,10.52753515625,-0.34538534283638,-1.3754793405532837,-1.0577061176300049
1761399431554618400,10.537618408203125,-0.33327794075012207,-1.3975456953048706,-1.0311264991760254
1761399431564685600,10.547685546875,-0.3068481981754303,-1.3749130964279175,-1.0233991146087646
1761399431574779100,10.557779052734375,-0.31362634897232056,-1.2904610633850098,-1.011025309562683
1761399431584860200,10.567860107421875,-0.3626720905303955,-1.2008131742477417,-0.988359272480011
1761399431594927900,10.577927978515625,-0.39622971415519714,-1.1558642387390137,-0.9746531248092651
1761399431605019600,10.58801953125,-0.4166806936264038,-1.1494691371917725,-0.983896017074585
1761399431615107800,10.59810791015625,-0.46029728651046753,-1.1218736171722412,-1.0075279474258423
1761399431625182700,10.6081826171875,-0.5110084414482117,-1.094827651977539,-1.035639762878418
1761399431635263500,10.618263427734375,-0.5416849255561829,-1.0753926038742065,-1.0536925792694092
1761399431645344000,10.628343994140625,-0.5639678239822388,-1.0311431884765625,-1.0596213340759277
1761399431655399700,10.638399658203125,-0.5820706486701965,-0.9509046673774719,-1.0538091659545898
1761399431665490700,10.64849072265625,-0.5830864906311035,-0.8803586959838867,-1.0426011085510254
1761399431675582000,10.65858203125,-0.5881159901618958,-0.8201714754104614,-1.0363391637802124
1761399431685653800,10.66865380859375,-0.6085503101348877,-0.7152519226074219,-1.0524102449417114
1761399431695747600,10.67874755859375,-0.6138795614242554,-0.658661961555481,-1.0706795454025269
1761399431705827800,10.688827880859375,-0.6019720435142517,-0.6349634528160095,-1.0840859413146973
1761399431715908900,10.698908935546875,-0.586700439453125,-0.6084004640579224,-1.1121643781661987
1761399431725968600,10.70896875,-0.5684310793876648,-0.6496188640594482,-1.1071349382400513
1761399431736075300,10.7190751953125,-0.5443828701972961,-0.7318891286849976,-1.0236989259719849
1761399431746140700,10.729140625,-0.4944377839565277,-0.788529098033905,-0.8672521114349365
1761399431756231400,10.7392314453125,-0.46301186084747314,-0.7512409687042236,-0.6827934384346008
1761399431766300000,10.7492998046875,-0.4547348618507385,-0.6825602650642395,-0.49836811423301697
1761399431776393000,10.75939306640625,-0.47175517678260803,-0.5818374752998352,-0.32911446690559387
1761399431786475800,10.769475830078125,-0.512873649597168,-0.4031244218349457,-0.17937920987606049
1761399431796554200,10.77955419921875,-0.5321255922317505,-0.22274596989154816,-0.03785432502627373
1761399431806635500,10.789635498046875,-0.5145390629768372,-0.10222166776657104,0.08884858340024948
1761399431816716000,10.799716064453126,-0.45093777775764465,-0.15364892780780792,0.2010459452867508
1761399431826796500,10.809796630859376,-0.32911446690559387,-0.3559439182281494,0.28986120223999023
1761399431836877300,10.819877197265624,-0.18937155604362488,-0.5878495573997498,0.32048773765563965
1761399431846957000,10.82995703125,-0.08510145545005798,-0.7867804169654846,0.29362499713897705
1761399431857038000,10.8400380859375,-0.016687212511897087,-1.0028315782546997,0.23996610939502716
1761399431867119000,10.850119140625,0.08690007776021957,-1.2397500276565552,0.22524406015872955
1761399431877206000,10.8602060546875,0.24995845556259155,-1.5118248462677002,0.3005197048187256
1761399431887254800,10.8702548828125,0.4062553644180298,-1.722480058670044,0.4656265377998352
1761399431897335600,10.88033544921875,0.5121908187866211,-1.7914772033691406,0.719914972782135
1761399431917497300,10.900497314453125,0.5934951901435852,-1.5411856174468994,1.5159382820129395
1761399431927577600,10.91057763671875,0.6920363903045654,-1.2652637958526611,1.9262739419937134
1761399431937659000,10.920658935546875,0.8971624970436096,-1.0314595699310303,2.182027816772461
1761399431947727600,10.9307275390625,1.1183429956436157,-0.8424710631370544,2.2395172119140625
1761399431957829000,10.9408291015625,1.3066986799240112,-0.7367187738418579,2.16880464553833
1761399431967909400,10.950909423828126,1.4166643619537354,-0.7073413133621216,2.1196258068084717
1761399431977987300,10.9609873046875,1.4621295928955078,-0.7056592702865601,2.1181769371032715
1761399431988083200,10.971083251953125,1.4534695148468018,-0.7867470979690552,2.073744297027588
1761399431998168600,10.98116845703125,1.439563512802124,-0.8637381196022034,1.9351171255111694
1761399432008248600,10.99124853515625,1.462079644203186,-0.9017256498336792,1.7245118618011475
1761399432018330000,11.001330078125,1.4875767230987549,-0.9096029996871948,1.5188860893249512
1761399432028410600,11.01141064453125,1.4916902780532837,-0.8532961010932922,1.3807919025421143
1761399432038507300,11.02150732421875,1.4460252523422241,-0.7824171185493469,1.3062490224838257
1761399432048567600,11.031567626953125,1.3407059907913208,-0.7328217625617981,1.2773878574371338
1761399432058652200,11.041652099609376,1.2202649116516113,-0.7220466732978821,1.2944247722625732
1761399432068732700,11.051732666015624,1.1599278450012207,-0.7917932271957397,1.3004368543624878
1761399432078813700,11.061813720703125,1.1947011947631836,-0.9088202118873596,1.2389506101608276
1761399432088893400,11.0718935546875,1.2807519435882568,-1.0109919309616089,1.0884826183319092
1761399432098974700,11.081974609375,1.3551948070526123,-1.0899814367294312,0.8920164704322815
1761399432109055700,11.0920556640625,1.399627447128296,-1.1236222982406616,0.7475605010986328
1761399432119155500,11.102155517578124,1.389485239982605,-1.1131802797317505,0.6972490549087524
1761399432129216800,11.112216796875,1.3543288707733154,-1.0936952829360962,0.6953504681587219
1761399432139297800,11.1222978515625,1.3152921199798584,-1.0635349750518799,0.6824769973754883
1761399432149352200,11.132352294921875,1.2967896461486816,-0.9675252437591553,0.6276690363883972
1761399432159459000,11.142458984375,1.2936253547668457,-0.8380411267280579,0.511508047580719
1761399432169543200,11.152543212890626,1.2738738059997559,-0.7456952333450317,0.34723392128944397
1761399432179618600,11.16261865234375,1.24527907371521,-0.7342206835746765,0.15409858524799347
1761399432189700400,11.172700439453125,1.2195321321487427,-0.7834163308143616,-0.030926302075386047
1761399432199781400,11.182781494140626,1.2049766778945923,-0.8695170283317566,-0.20580895245075226
1761399432209862100,11.192862060546876,1.1717520952224731,-0.9716720581054688,-0.3835727274417877
1761399432219936300,11.202936279296875,1.1107155084609985,-1.0557076930999756,-0.5537423491477966
1761399432230033200,11.213033203125,1.086067795753479,-1.061503291130066,-0.7145524621009827
1761399432240102100,11.22310205078125,0.9591649770736694,-0.9535859227180481,-0.8583755493164062
1761399432250185000,11.23318505859375,0.7832831144332886,-0.8395566344261169,-0.9714222550392151
1761399432260266200,11.243266357421875,0.6130802035331726,-0.6921529173851013,-1.0646008253097534
1761399432270343400,11.253343505859375,0.44712403416633606,-0.5146889090538025,-1.151434302330017
1761399432280426800,11.2634267578125,0.2771376371383667,-0.3427373468875885,-1.2172338962554932
1761399432290497800,11.273497802734376,0.11129804700613022,-0.16235892474651337,-1.2121211290359497
1761399432300576000,11.283575927734375,-0.04806317016482353,0.00954268779605627,-1.1498855352401733
1761399432310650600,11.293650634765624,-0.2028445601463318,0.16588954627513885,-1.1021220684051514
1761399432320748300,11.303748291015625,-0.37444639205932617,0.2830331027507782,-1.1208910942077637
1761399432330815500,11.3138154296875,-0.5595045685768127,0.3668855130672455,-1.1815779209136963
1761399432340910800,11.323910888671875,-0.7424144148826599,0.41246727108955383,-1.2092400789260864
1761399432361059600,11.3440595703125,-0.9602974653244019,0.12835164368152618,-0.7734073400497437
1761399432371149000,11.354149169921875,-0.8819907903671265,-0.18012863397598267,-0.4341173470020294
1761399432381233700,11.364233642578125,-0.6278855204582214,-0.42519083619117737,-0.36103999614715576
1761399432391314400,11.374314453125,-0.2741565704345703,-0.6625089645385742,-0.36290523409843445
1761399432401382700,11.384382568359374,0.0671318918466568,-0.7298907041549683,-0.2668455243110657
1761399432411475500,11.394475341796875,0.3287147879600525,-0.5176200270652771,-0.14950209856033325
1761399432421569500,11.404569580078125,0.45330262184143066,-0.26424750685691833,-0.04261734336614609
1761399432431626800,11.414626708984375,0.48086485266685486,-0.06368453055620193,0.060387060046195984
1761399432441714000,11.4247138671875,0.459364652633667,0.07444295287132263,0.13213208317756653
1761399432451798300,11.43479833984375,0.41899558901786804,0.16477373242378235,0.13962633907794952
1761399432461879600,11.444879638671875,0.35139739513397217,0.2337542027235031,0.09864107519388199
1761399432471945700,11.45494580078125,0.21435241401195526,0.34213781356811523,0.010808384045958519
1761399432482040300,11.465040283203125,-0.06025382876396179,0.43919676542282104,-0.15353234112262726
1761399432492121300,11.475121337890625,-0.38430550694465637,0.36180609464645386,-0.28210049867630005
1761399432502191600,11.485191650390625,-0.5910637378692627,0.29932063817977905,-0.3162743151187897
1761399432512283000,11.495282958984374,-0.6381109952926636,0.3945809602737427,-0.3998769223690033
1761399432522363000,11.50536279296875,-0.47521916031837463,0.6978652477264404,-0.6445060968399048
1761399432532433000,11.515432861328126,-0.17380015552043915,0.8208043575286865,-0.7783202528953552
1761399432542511900,11.525511962890626,0.148286372423172,0.406954824924469,-0.5733939409255981
1761399432552605400,11.53560546875,0.38437211513519287,-0.10840026289224625,-0.17783039808273315
1761399432562683600,11.54568359375,0.3655032515525818,-0.1702195554971695,0.053842075169086456
1761399432572766200,11.55576611328125,0.040518950670957565,-0.035089775919914246,-0.03159245848655701
1761399432582846700,11.5658466796875,-0.5126571655273438,-0.117876335978508,-0.33334454894065857
1761399432592927700,11.575927734375,-1.042984127998352,-0.4064052402973175,-0.6319324374198914
1761399432603008300,11.58600830078125,-1.3471510410308838,-0.7864639759063721,-0.8394733667373657
1761399432613089300,11.59608935546875,-1.3086971044540405,-1.1965163946151733,-1.0115082263946533
1761399432623160300,11.606160400390625,-0.9083372950553894,-1.46084725856781,-1.1766149997711182
1761399432633250000,11.61625,-0.3970291018486023,-1.2408491373062134,-1.2390005588531494
1761399432643331300,11.626331298828125,-0.11011561751365662,-0.6877562999725342,-1.0872001647949219
1761399432653404400,11.636404296875,-0.07505914568901062,-0.34022262692451477,-0.8652036786079407
1761399432663492600,11.64649267578125,-0.1857743114233017,-0.20346075296401978,-0.804366946220398
1761399432673560600,11.656560546875,-0.30230167508125305,0.061186447739601135,-0.9577827453613281
1761399432683640800,11.666640869140625,-0.3504481315612793,0.3122440576553345,-1.199197769165039
1761399432693715000,11.67671484375,-0.36720195412635803,0.4286049008369446,-1.3404728174209595
1761399432703825200,11.6868251953125,-0.3952804207801819,0.46710872650146484,-1.3216705322265625
1761399432713896000,11.69689599609375,-0.4387637674808502,0.45336925983428955,-1.1850252151489258
1761399432723976400,11.7069765625,-0.46605953574180603,0.39186638593673706,-1.006678581237793
1761399432734057500,11.717057373046876,-0.46725860238075256,0.3151918053627014,-0.8463181257247925
1761399432744138200,11.72713818359375,-0.47593528032302856,0.2561537027359009,-0.7363690733909607
1761399432754197800,11.73719775390625,-0.5049797296524048,0.23342113196849823,-0.6747329831123352
1761399432764297700,11.747297607421874,-0.5443994998931885,0.22904115915298462,-0.6433736681938171
1761399432774369500,11.75736962890625,-0.5712622404098511,0.2107718139886856,-0.6274858117103577
1761399432784435500,11.767435546875,-0.5762417316436768,0.19150325655937195,-0.6076676845550537
1761399432794518000,11.77751806640625,-0.5650669932365417,0.15609705448150635,-0.5922461748123169
1761399432804609500,11.787609619140625,-0.554724931716919,0.09497722238302231,-0.5916466116905212
1761399432814702800,11.797702880859376,-0.5652668476104736,0.018236026167869568,-0.6110317707061768
1761399432824762400,11.807762451171875,-0.6023218035697937,-0.01715352199971676,-0.6503349542617798
1761399432834864400,11.817864501953125,-0.6619760394096375,0.012124042958021164,-0.6997304558753967
1761399432844945000,11.82794482421875,-0.734254002571106,0.06708192825317383,-0.7724580764770508
1761399432855025400,11.838025390625,-0.7870968580245972,0.0910135880112648,-0.8526632785797119
1761399432865093000,11.848093017578124,-0.8085137605667114,0.05695635452866554,-0.9281887412071228
1761399432875175700,11.85817578125,-0.821104109287262,-0.01169104129076004,-0.9895250797271729
1761399432885265700,11.868265625,-0.831529438495636,-0.11516175419092178,-1.0371718406677246
1761399432895337500,11.87833740234375,-0.8323122262954712,-0.24579498171806335,-1.060120940208435
1761399432905429000,11.888428955078124,-0.804100513458252,-0.34132176637649536,-1.051627516746521
1761399432915507700,11.8985078125,-0.7952905893325806,-0.37672796845436096,-1.0305602550506592
1761399432925590300,11.90859033203125,-0.7761552333831787,-0.3614230453968048,-0.9917733669281006
1761399432935660500,11.91866064453125,-0.7659130692481995,-0.3115112781524658,-0.9589318633079529
1761399432945749000,11.9287490234375,-0.7722915410995483,-0.266112744808197,-0.9082706570625305
1761399432955830000,11.938830078125,-0.7679281830787659,-0.24293051660060883,-0.8291479349136353
1761399432965903000,11.948903076171876,-0.7209641933441162,-0.30966269969940186,-0.7239952087402344
1761399432975993300,11.958993408203124,-0.6128470301628113,-0.4560338854789734,-0.5865005850791931
1761399432986074400,11.969074462890624,-0.4575826823711395,-0.597741961479187,-0.4355662167072296
1761399432996155100,11.979155029296875,-0.3048497140407562,-0.6898713707923889,-0.2997536361217499
1761399433006222300,11.989222412109376,-0.1768145114183426,-0.7424477338790894,-0.17221802473068237
1761399433016304400,11.999304443359375,-0.08724980801343918,-0.7757388949394226,-0.044782351702451706
1761399433026397400,12.0093974609375,-0.046647585928440094,-0.6949674487113953,0.0732438713312149
1761399433036465000,12.01946484375,-0.03102622553706169,-0.5129902362823486,0.1803617924451828
1761399433046558200,12.02955810546875,0.02066749520599842,-0.3936983048915863,0.28792935609817505
1761399433056634000,12.039634033203125,0.09707561135292053,-0.4170137643814087,0.41235068440437317
1761399433066699500,12.049699462890626,0.19062060117721558,-0.6263866424560547,0.559804379940033
1761399433076798500,12.059798583984374,0.31182771921157837,-1.002981424331665,0.7286749482154846
1761399433086878500,12.06987841796875,0.4946376383304596,-1.339423656463623,0.9182963371276855
1761399433096961800,12.0799619140625,0.7384175062179565,-1.4932889938354492,1.0753593444824219
1761399433107042000,12.0900419921875,0.9416284561157227,-1.5789400339126587,1.15238356590271
1761399433117123000,12.100123046875,1.0498454570770264,-1.6554148197174072,1.1786800622940063
1761399433127191800,12.11019189453125,1.1240053176879883,-1.6225732564926147,1.2733908891677856
1761399433137283000,12.120282958984374,1.223545789718628,-1.5003336668014526,1.5695972442626953
1761399433147365400,12.130365478515625,1.3113950490951538,-1.3378914594650269,2.045315980911255
1761399433157449200,12.14044921875,1.3696337938308716,-1.1702865362167358,2.555408477783203
1761399433167526400,12.1505263671875,1.376944899559021,-1.0569900274276733,2.918113946914673
1761399433177592000,12.160592041015626,1.3312132358551025,-0.9338510632514954,3.038788080215454
1761399433187665200,12.1706650390625,1.3342941999435425,-0.6838759183883667,2.9016597270965576
1761399433197766400,12.180766357421875,1.3864542245864868,-0.3544117510318756,2.5392374992370605
1761399433207851000,12.19085107421875,1.4130171537399292,-0.23213878273963928,2.0390541553497314
1761399433217929700,12.2009296875,1.4094865322113037,-0.38818585872650146,1.5909308195114136
1761399433228004600,12.211004638671875,1.4331684112548828,-0.5412352681159973,1.3768116235733032
1761399433238091500,12.221091552734375,1.4931724071502686,-0.5451322793960571,1.3609904050827026
1761399433248172000,12.231172119140625,1.510359287261963,-0.43814757466316223,1.390384554862976
1761399433258256000,12.241255859375,1.5086772441864014,-0.38317304849624634,1.313809871673584
1761399433268322300,12.251322265625,1.5036311149597168,-0.4842122793197632,1.0648506879806519
1761399433278408700,12.26140869140625,1.4928560256958008,-0.7403993010520935,0.7328384518623352
1761399433288494600,12.27149462890625,1.4425278902053833,-1.033691167831421,0.4132832884788513
1761399433298574800,12.281574951171875,1.3619896173477173,-1.2300240993499756,0.15984417498111725
1761399433308643600,12.2916435546875,1.214186191558838,-1.424475073814392,-0.06023717299103737
1761399433318726700,12.3017265625,1.127502679824829,-1.7604176998138428,-0.31639087200164795
1761399433328811800,12.311811767578124,1.1302838325500488,-2.001865863800049,-0.5234988331794739
1761399433338898400,12.3218984375,1.1580958366394043,-2.061053991317749,-0.6479035019874573
1761399433348961500,12.33196142578125,1.2035943269729614,-2.059305191040039,-0.7357028722763062
1761399433359059500,12.3420595703125,1.2321058511734009,-2.021167755126953,-0.8128271102905273
1761399433369139700,12.3521396484375,1.1850252151489258,-1.8886526823043823,-0.8741468191146851
1761399433379221200,12.36222119140625,1.1019889116287231,-1.7040108442306519,-0.9390970468521118
1761399433389283300,12.372283447265625,1.0034143924713135,-1.503930926322937,-1.012241005897522
1761399433399379700,12.382379638671875,0.9705063104629517,-1.3441699743270874,-1.0862009525299072
1761399433409463300,12.39246337890625,0.9608137011528015,-1.1988812685012817,-1.1288349628448486
1761399433419543000,12.40254296875,0.8884358406066895,-1.1266366243362427,-1.1618930101394653
1761399433429604600,12.4126044921875,0.7892451882362366,-1.1221234798431396,-1.2005300521850586
1761399433439693800,12.42269384765625,0.706541895866394,-1.0838861465454102,-1.2296243906021118
1761399433459856600,12.442856689453125,0.43599921464920044,-0.7871801257133484,-1.1651571989059448
1761399433469934300,12.452934326171874,0.26954343914985657,-0.5367386937141418,-1.0224164724349976
1761399433480027400,12.46302734375,0.13636218011379242,-0.31577467918395996,-0.8398231267929077
1761399433490108200,12.473108154296876,0.04120175912976265,-0.1562635898590088,-0.6738336682319641
1761399433500188700,12.483188720703126,-0.04213437810540199,-0.08023851364850998,-0.5752092003822327
1761399433510270000,12.49327001953125,-0.1504347175359726,-0.04854613170027733,-0.5671820640563965
1761399433520348400,12.503348388671874,-0.28752967715263367,-0.00704460171982646,-0.6056026220321655
1761399433530431000,12.513430908203125,-0.43003714084625244,-0.021483536809682846,-0.6131801009178162
1761399433540499500,12.52349951171875,-0.5427507758140564,-0.08293644338846207,-0.5764582753181458
1761399433550590200,12.533590087890625,-0.5677149891853333,-0.19423449039459229,-0.553142786026001
1761399433560670700,12.543670654296875,-0.4491724669933319,-0.37687787413597107,-0.5726278424263
1761399433570742800,12.55374267578125,-0.23876702785491943,-0.5846686363220215,-0.5783901214599609
1761399433580834300,12.563834228515624,-0.014772013761103153,-0.6625589728355408,-0.5362223982810974
1761399433590900200,12.573900146484375,0.1915365606546402,-0.5226328372955322,-0.4720715880393982
1761399433600995300,12.583995361328125,0.39526379108428955,-0.20928962528705597,-0.45531776547431946
1761399433611076600,12.59407666015625,0.5649004578590393,0.05590716004371643,-0.5545250773429871
1761399433621157000,12.6041572265625,0.677930474281311,0.05622358247637749,-0.7121709585189819
1761399433631228200,12.614228271484375,0.7488262057304382,-0.14512212574481964,-0.8443363308906555
1761399433641308000,12.624307861328125,0.7406324744224548,-0.37812691926956177,-0.9097695350646973
1761399433651395000,12.63439501953125,0.5391868352890015,-0.5596544742584229,-0.9340342283248901
1761399433661479400,12.6444794921875,0.07509245723485947,-0.6062021255493164,-1.0737272500991821
1761399433671560700,12.654560791015625,-0.5630185604095459,-0.5072446465492249,-1.3656368255615234
1761399433681615400,12.664615478515625,-1.199530839920044,-0.10726780444383621,-1.508793830871582
