time,seconds_elapsed,z,y,x
1761400354415547600,0.107547607421875,-0.03556561470031738,-0.032492637634277344,0.1844334602355957
1761400354435710500,0.12771044921875,-0.0860205888748169,-0.06931304931640625,0.1813504695892334
1761400354455898400,0.1478984375,-0.126967191696167,-0.0992116928100586,0.10010719299316406
1761400354476060000,0.168059814453125,-0.014630436897277832,-0.04134082794189453,0.12978410720825195
1761400354496200000,0.188199951171875,-0.09488534927368164,0.05693340301513672,0.09692192077636719
1761400354516385000,0.208385009765625,-0.04067087173461914,-0.06244182586669922,0.2874336242675781
1761400354536546600,0.228546630859375,-0.004378557205200195,-0.07476615905761719,0.09461116790771484
1761400354556709000,0.248709228515625,-0.04947805404663086,-0.0033855438232421875,0.08708715438842773
1761400354576846000,0.26884619140625,-0.07647204399108887,0.15585041046142578,-0.27615833282470703
1761400354597033500,0.289033447265625,-0.058322906494140625,0.12276458740234375,-0.28592777252197266
1761400354617195800,0.30919580078125,0.05967700481414795,0.10141468048095703,0.10328006744384766
1761400354637335600,0.32933544921875,-0.03197371959686279,0.09941577911376953,0.05097055435180664
1761400354657515800,0.349515869140625,-0.03740286827087402,-0.1389312744140625,-0.14191818237304688
1761400354677657600,0.36965771484375,0.020595431327819824,0.31058788299560547,0.008235931396484375
1761400354697845800,0.389845703125,-0.11168873310089111,0.023904800415039062,-0.10882759094238281
1761400354717983500,0.4099833984375,-0.09366965293884277,-0.412811279296875,0.2750825881958008
1761400354738144000,0.43014404296875,0.1041332483291626,-0.21296119689941406,0.3202168941497803
1761400354758333000,0.4503330078125,0.2383408546447754,-0.18843555450439453,0.28283023834228516
1761400354778469000,0.47046923828125,0.3698430061340332,-0.16419601440429688,0.4301738739013672
1761400354798653000,0.49065283203125,0.6417245864868164,-0.03488922119140625,0.3102841377258301
1761400354818818600,0.510818603515625,0.9603818655014038,-0.024207115173339844,0.00871133804321289
1761400354838996500,0.53099658203125,1.1272985935211182,0.16770648956298828,-0.3893623352050781
1761400354859144000,0.55114404296875,1.0837856531143188,0.2757606506347656,-0.664332389831543
1761400354879306000,0.571305908203125,0.46198129653930664,0.35645389556884766,-1.1893696784973145
1761400354899467500,0.591467529296875,-0.13732218742370605,0.9877586364746094,-0.853724479675293
1761400354919602200,0.611602294921875,-0.011049747467041016,1.8757095336914062,0.29282188415527344
1761400354939793200,0.631793212890625,-0.45908403396606445,2.12113094329834,0.44317626953125
1761400354959954400,0.651954345703125,-0.5978575944900513,2.3579578399658203,0.05097389221191406
1761400354980117000,0.672116943359375,-1.7136123180389404,2.9295177459716797,1.3561396598815918
1761400355000275700,0.692275634765625,-2.291196823120117,2.991173267364502,4.08035945892334
1761400355020441600,0.712441650390625,-1.950028419494629,3.3298821449279785,6.495955467224121
1761400355040604400,0.7326044921875,-1.902557134628296,4.566198348999023,6.024177551269531
1761400355060762000,0.75276220703125,-2.5895931720733643,4.950840473175049,5.523209571838379
1761400355080928300,0.77292822265625,-0.022300004959106445,4.947383403778076,4.984374523162842
1761400355101091000,0.793091064453125,0.8317451477050781,3.827561855316162,2.321103096008301
1761400355121249000,0.8132490234375,-0.015727996826171875,1.9440836906433105,0.04400014877319336
1761400355141415200,0.833415283203125,1.6048836708068848,-1.0395312309265137,-0.4382791519165039
1761400355161577200,0.8535771484375,1.0857300758361816,-2.392305374145508,-2.1274428367614746
1761400355181740000,0.873739990234375,2.130621910095215,-4.74650239944458,-4.0173797607421875
1761400355201902600,0.893902587890625,2.0837478637695312,-7.327376365661621,-2.6847195625305176
1761400355222064000,0.914064208984375,4.162094593048096,-8.49740219116211,-7.441914081573486
1761400355242226400,0.934226318359375,5.929224014282227,-10.92883014678955,-12.265728950500488
1761400355262388700,0.954388671875,5.748011112213135,-14.65385913848877,-16.1296329498291
1761400355282551000,0.974551025390625,6.948663711547852,-14.337501525878906,-13.970160484313965
1761400355302713000,0.994713134765625,8.839401245117188,-11.144612312316895,-8.843724250793457
1761400355322871600,1.01487158203125,5.80120849609375,-11.063521385192871,-7.16218376159668
1761400355343012600,1.0350126953125,2.976696252822876,-8.142483711242676,-1.2650036811828613
1761400355363175200,1.055175048828125,-1.5829148292541504,-8.029627799987793,-2.3680472373962402
1761400355383359200,1.075359130859375,-0.6020982265472412,-5.331254005432129,-7.042514324188232
1761400355403526000,1.09552587890625,4.207374572753906,-2.533194065093994,-5.544672012329102
1761400355423667200,1.115667236328125,-9.462730407714844,0.3451690673828125,8.862793922424316
1761400355443845400,1.135845458984375,-12.642017364501953,2.194882392883301,9.804512023925781
1761400355464011500,1.156011474609375,-3.359363317489624,7.093409061431885,10.71585750579834
1761400355484174600,1.176174560546875,3.7852635383605957,9.236207008361816,2.8681817054748535
1761400355504336100,1.196336181640625,-6.62742805480957,6.9667534828186035,4.709288597106934
1761400355524498400,1.21649853515625,-6.168206214904785,6.638635158538818,9.084646224975586
1761400355544636400,1.236636474609375,7.144792556762695,11.790528297424316,11.920819282531738
1761400355564823800,1.25682373046875,-3.7011561393737793,8.134819030761719,11.226581573486328
1761400355584985300,1.2769853515625,-10.63763427734375,7.499014854431152,3.5294647216796875
1761400355605147600,1.297147705078125,-2.5497331619262695,5.500029563903809,-0.9651708602905273
1761400355625289000,1.3172890625,-5.962762832641602,8.681198120117188,4.947071552276611
1761400355645472500,1.337472412109375,-6.575862884521484,4.300667762756348,5.923847675323486
1761400355665634600,1.357634521484375,-3.8665077686309814,2.565757989883423,3.3822181224823
1761400355685797000,1.377797119140625,-2.7904796600341797,4.219843864440918,3.127628803253174
1761400355705959700,1.397959716796875,-1.8041152954101562,6.049498558044434,4.614483833312988
1761400355726096000,1.418095947265625,-1.6044847965240479,8.435150146484375,6.148715496063232
1761400355746283800,1.43828369140625,-2.7545108795166016,11.173233985900879,6.971945285797119
1761400355766421000,1.4584208984375,-3.765742301940918,10.938870429992676,7.881258010864258
1761400355786582500,1.47858251953125,-4.100596904754639,9.15394401550293,7.180522918701172
1761400355806770200,1.498770263671875,-4.818973541259766,7.450128555297852,9.64470100402832
1761400355826932500,1.518932373046875,-4.542876243591309,5.687399387359619,8.411005020141602
1761400355847094500,1.539094482421875,-4.5956339836120605,4.484136581420898,1.9803476333618164
1761400355867257000,1.559257080078125,-2.7208547592163086,-0.10387039184570312,-1.6960482597351074
1761400355887419100,1.579419189453125,11.794394493103027,-9.74924373626709,-6.783095359802246
1761400355907581700,1.599581787109375,2.8729019165039062,-18.0493221282959,-8.759248733520508
1761400355927744300,1.619744140625,8.858298301696777,-19.57741928100586,-17.50482177734375
1761400355947884300,1.63988427734375,6.801823616027832,-20.45948028564453,-11.361652374267578
1761400355968042500,1.66004248046875,9.53938102722168,-20.26837158203125,-17.195537567138672
1761400355988231200,1.680231201171875,10.85672378540039,-25.012245178222656,-22.262697219848633
1761400356008373200,1.700373291015625,10.861419677734375,-24.35942268371582,-17.833221435546875
1761400356028555800,1.7205556640625,9.629768371582031,-19.74909782409668,-15.583648681640625
1761400356048701400,1.740701416015625,3.2707605361938477,-11.810426712036133,-11.181344985961914
1761400356068857600,1.760857666015625,-2.5277395248413086,-5.3350725173950195,-1.290961742401123
1761400356089042400,1.78104248046875,2.757260322570801,4.076512336730957,7.117687225341797
1761400356109204200,1.801204345703125,-4.38203763961792,2.33290433883667,4.804275989532471
1761400356129350400,1.821350341796875,-10.44310474395752,1.0470266342163086,2.8376107215881348
1761400356149503500,1.84150341796875,-4.794902801513672,8.032343864440918,4.658812999725342
1761400356169692200,1.861692138671875,3.5699267387390137,12.466445922851562,5.349296569824219
1761400356189828900,1.881828857421875,1.7818095684051514,10.452293395996094,9.445831298828125
1761400356209990400,1.901990478515625,-5.697654724121094,9.400199890136719,12.183592796325684
1761400356230178000,1.922177978515625,-1.2373077869415283,5.599377155303955,6.7622246742248535
1761400356250334000,1.942333984375,0.5747737884521484,7.806637287139893,3.466378927230835
1761400356270503400,1.96250341796875,-1.5909695625305176,6.905195713043213,3.8069143295288086
1761400356290639400,1.982639404296875,-5.519630432128906,4.262516021728516,5.350980758666992
1761400356310801700,2.0028017578125,-3.385911464691162,8.268796920776367,4.901620388031006
1761400356330963700,2.022963623046875,-1.2171473503112793,6.485233306884766,0.8159971237182617
1761400356351114200,2.0431142578125,-5.477330207824707,5.648841857910156,1.304506778717041
1761400356371314700,2.063314697265625,-5.912629127502441,4.096573352813721,4.448840618133545
1761400356391451100,2.083451171875,-5.430728912353516,5.035561561584473,5.697307586669922
1761400356411639000,2.10363916015625,-4.883024215698242,6.339151859283447,6.237180233001709
1761400356431775700,2.123775634765625,-4.117119312286377,8.499053955078125,6.2823896408081055
1761400356451950000,2.1439501953125,-2.6413803100585938,10.72346305847168,5.732798099517822
1761400356472122000,2.1641220703125,-2.0851683616638184,10.215492248535156,4.788854598999023
1761400356492288500,2.18428857421875,-2.495967388153076,11.954578399658203,6.400567531585693
1761400356512449800,2.20444970703125,-2.0473594665527344,12.163515090942383,9.177566528320312
1761400356532631800,2.2246318359375,-1.421687364578247,10.201957702636719,10.246525764465332
1761400356552774700,2.244774658203125,-3.5588648319244385,7.598397731781006,2.145779609680176
1761400356572936700,2.264936767578125,-0.8550524711608887,2.9014949798583984,-2.611543655395508
1761400356593098800,2.2850986328125,4.321378231048584,-5.143771648406982,-6.9270501136779785
1761400356613261300,2.30526123046875,-4.890152931213379,-10.486590385437012,15.819290161132812
1761400356633414000,2.325413818359375,5.740306854248047,-15.211370468139648,7.068418502807617
1761400356653585700,2.345585693359375,8.359663963317871,-21.491792678833008,-26.04814910888672
1761400356673748500,2.36574853515625,22.36383819580078,-19.465133666992188,-33.068260192871094
1761400356693885400,2.385885498046875,-0.37703680992126465,-19.630035400390625,-9.984161376953125
1761400356714049300,2.40604931640625,5.224433898925781,-27.483753204345703,-8.212718963623047
1761400356734193400,2.426193359375,10.185125350952148,-25.317989349365234,-8.113235473632812
1761400356754397200,2.446397216796875,9.027831077575684,-19.922212600708008,-9.74577522277832
1761400356774530000,2.466530029296875,8.752996444702148,-13.374433517456055,-17.180809020996094
1761400356794722300,2.486722412109375,0.1744847297668457,-2.839864730834961,-7.797021389007568
1761400356814859000,2.50685888671875,4.165517807006836,-1.3628144264221191,-6.084285259246826
1761400356835022600,2.527022705078125,3.678664445877075,-5.3222222328186035,9.399513244628906
1761400356855208700,2.547208740234375,-4.423704147338867,-2.7297558784484863,4.690491199493408
1761400356875370500,2.56737060546875,-6.834510803222656,5.4529805183410645,3.834691047668457
1761400356895508000,2.587508056640625,-4.235628128051758,15.630712509155273,6.251590728759766
1761400356915695900,2.60769580078125,0.2103872299194336,12.771430015563965,11.6497802734375
1761400356935858200,2.627858154296875,-3.650543212890625,8.574039459228516,15.150379180908203
1761400356955995000,2.647994873046875,-3.3576557636260986,3.0696206092834473,10.69764518737793
1761400356976151300,2.6681513671875,-0.9116668701171875,2.9602127075195312,7.264431953430176
1761400356996344800,2.6883447265625,3.0731189250946045,4.578718185424805,6.417956829071045
1761400357016469800,2.7084697265625,-4.001776695251465,5.379283905029297,10.706195831298828
1761400357036669000,2.7286689453125,-3.43819522857666,6.661611557006836,4.604124069213867
1761400357056849000,2.748848876953125,-3.7478625774383545,6.317744731903076,-4.594693183898926
1761400357077014000,2.769013916015625,-5.349733352661133,6.095710754394531,-2.1187896728515625
1761400357097130800,2.789130859375,-4.564889907836914,3.856825351715088,3.281198501586914
1761400357117287000,2.809286865234375,-2.717141628265381,5.544200420379639,7.726767539978027
1761400357137480700,2.829480712890625,-1.576751708984375,8.245726585388184,10.224395751953125
1761400357157643000,2.84964306640625,-3.308659791946411,10.532659530639648,10.473590850830078
1761400357177804500,2.869804443359375,-0.7539398670196533,11.9549560546875,8.526755332946777
1761400357197938200,2.889938232421875,-3.7898340225219727,10.091383934020996,6.676517009735107
1761400357218109000,2.91010888671875,-4.4652862548828125,9.324346542358398,8.95018482208252
1761400357238288000,2.930287841796875,-2.7997121810913086,7.638967514038086,11.663878440856934
1761400357258453800,2.950453857421875,-6.610588550567627,5.693694114685059,8.592573165893555
1761400357278591200,2.97059130859375,-7.600729465484619,3.1203713417053223,1.124715805053711
1761400357298775000,2.990775146484375,6.563615322113037,-3.5521373748779297,-5.5009846687316895
1761400357318915300,3.010915283203125,19.124279022216797,-6.061727046966553,-8.254648208618164
1761400357339080200,3.031080078125,-9.993928909301758,-11.575721740722656,9.037160873413086
1761400357359240200,3.051240234375,14.869075775146484,-12.53310775756836,-10.856271743774414
1761400357379427600,3.071427490234375,3.925543785095215,-14.970321655273438,-16.396331787109375
1761400357399586800,3.0915869140625,9.563175201416016,-19.95746612548828,-17.440942764282227
1761400357419726300,3.111726318359375,9.066105842590332,-28.477684020996094,-20.600448608398438
1761400357439907300,3.1319072265625,6.217312335968018,-29.036685943603516,-16.651077270507812
1761400357460055600,3.1520556640625,10.235291481018066,-21.841873168945312,-9.028297424316406
1761400357480216300,3.17221630859375,8.378227233886719,-15.000883102416992,-5.109312057495117
1761400357500401000,3.19240087890625,2.8563337326049805,-14.422325134277344,-7.185836315155029
1761400357520564200,3.212564208984375,0.8101766705513,-3.2176194190979004,-4.744701862335205
1761400357540726300,3.232726318359375,5.5571136474609375,-2.233275890350342,-2.611100196838379
1761400357560883700,3.2528837890625,0.4254760444164276,1.4698100090026855,8.146401405334473
1761400357581025800,3.27302587890625,-2.2209084033966064,4.729887008666992,10.397077560424805
1761400357601212400,3.29321240234375,-4.910191535949707,8.177359580993652,11.481527328491211
1761400357621344000,3.313343994140625,1.77532958984375,11.927473068237305,3.2101221084594727
1761400357641511700,3.33351171875,-1.2405972480773926,11.607901573181152,4.0302324295043945
1761400357661673700,3.353673828125,-4.139921188354492,7.290256023406982,7.528199195861816
1761400357681836500,3.37383642578125,0.1990804672241211,1.5656085014343262,7.729893684387207
1761400357701998300,3.393998291015625,-0.48067593574523926,5.322521209716797,10.746271133422852
1761400357722170400,3.41417041015625,-0.42661213874816895,9.948389053344727,13.448060035705566
1761400357742311700,3.434311767578125,-4.518769264221191,7.6421098709106445,10.677331924438477
1761400357762510300,3.45451025390625,0.35591959953308105,4.958589553833008,5.591186046600342
1761400357782672600,3.474672607421875,-3.458987236022949,4.815121650695801,0.774510383605957
1761400357802835000,3.4948349609375,-3.6501717567443848,3.274533748626709,-3.2286272048950195
1761400357822997500,3.51499755859375,-2.9379637241363525,5.698801517486572,2.8322529792785645
1761400357843159600,3.53515966796875,-1.4390292167663574,4.261849403381348,4.534697532653809
1761400357863297300,3.55529736328125,-1.0899211168289185,4.950874328613281,6.842523574829102
1761400357883470300,3.57547021484375,-1.5062474012374878,5.76161527633667,8.075467109680176
1761400357903620400,3.595620361328125,-2.261530876159668,9.856755256652832,9.1875581741333
1761400357923808500,3.61580859375,-1.0052659511566162,13.986679077148438,9.511662483215332
1761400357943945500,3.635945556640625,-1.122440218925476,13.173686981201172,11.444446563720703
1761400357964133000,3.656133056640625,-0.6901288032531738,9.052631378173828,12.845918655395508
1761400357984270600,3.6762705078125,-3.2511775493621826,6.08271598815918,8.514543533325195
1761400358004440300,3.6964404296875,-1.8381496667861938,6.610993385314941,0.10553169250488281
1761400358024618800,3.71661865234375,9.362062454223633,0.8290600776672363,-10.240560531616211
1761400358044783000,3.736783203125,11.027050971984863,-11.120892524719238,-8.415840148925781
1761400358064944400,3.7569443359375,-5.163290500640869,-17.03328514099121,3.98210072517395
1761400358085106700,3.777106689453125,19.29525375366211,-17.319625854492188,-16.725133895874023
1761400358105269800,3.797269775390625,2.136622905731201,-22.087007522583008,-17.28818130493164
1761400358125431800,3.817431884765625,8.426230430603027,-19.142181396484375,-12.28844165802002
1761400358145567000,3.83756689453125,12.087997436523438,-22.44168472290039,-15.690317153930664
1761400358165732600,3.857732666015625,7.392938613891602,-22.552915573120117,-19.063865661621094
1761400358185919200,3.877919189453125,8.38863468170166,-22.44124984741211,-12.319072723388672
1761400358206081500,3.89808154296875,7.393399238586426,-14.352449417114258,-5.679862022399902
1761400358226242600,3.91824267578125,2.6153018474578857,-4.7789306640625,-3.0944905281066895
1761400358246369000,3.938369140625,3.260558605194092,0.47325611114501953,-0.5903100967407227
1761400358266567000,3.95856689453125,4.803070545196533,1.2761483192443848,-0.865628719329834
1761400358286729500,3.9787294921875,0.37355518341064453,1.4065279960632324,5.256100177764893
1761400358306848000,3.998847900390625,-6.806291580200195,0.45395755767822266,11.335124015808105
1761400358327029200,4.019029296875,-5.241225242614746,4.598091125488281,9.280702590942383
1761400358347191300,4.03919140625,5.912361145019531,11.326983451843262,2.0656604766845703
1761400358367353900,4.059353759765625,-2.014705181121826,11.266658782958984,4.57780647277832
1761400358387541800,4.079541748046875,-4.996063232421875,7.191456317901611,11.966573715209961
1761400358407703800,4.099703857421875,-3.5752549171447754,4.799912452697754,14.668554306030273
1761400358427865000,4.119864990234375,-0.3104825019836426,7.654721260070801,11.258087158203125
1761400358448024300,4.1400244140625,-0.29206418991088867,4.124379634857178,3.296686887741089
1761400358468187100,4.160187255859375,-3.1203091144561768,3.2901735305786133,2.1891212463378906
1761400358488326400,4.180326416015625,-2.022239923477173,0.5840744972229004,1.2974748611450195
1761400358508514000,4.20051416015625,-4.780346393585205,3.1331865787506104,4.188217639923096
1761400358528651500,4.220651611328125,-4.593112468719482,8.156864166259766,7.068079471588135
1761400358548815400,4.2408154296875,-3.4939186573028564,4.962629318237305,6.091897010803223
1761400358568975400,4.260975341796875,-1.5006181001663208,6.111972808837891,7.725926399230957
1761400358589163300,4.281163330078125,-0.6935889720916748,7.5018310546875,8.535470962524414
1761400358609325800,4.301325927734375,0.8171765804290771,11.21145248413086,8.407485008239746
1761400358629475600,4.3214755859375,0.8659197092056274,11.673406600952148,6.13953161239624
1761400358649638000,4.341637939453125,-3.712618827819824,12.84683895111084,7.497372150421143
1761400358669812700,4.361812744140625,0.7851078510284424,9.887531280517578,6.356664180755615
1761400358689974800,4.381974853515625,-2.66141939163208,8.31643009185791,4.758312225341797
1761400358710134800,4.402134765625,-3.5280160903930664,7.133073806762695,2.5626087188720703
1761400358730274300,4.4222744140625,-1.6733486652374268,1.345426082611084,-0.6744356155395508
1761400358750438000,4.44243798828125,15.110634803771973,-9.184836387634277,5.635322093963623
1761400358770598400,4.462598388671875,-5.890131950378418,-12.321475982666016,5.864970684051514
1761400358790770200,4.482770263671875,13.454912185668945,-17.017393112182617,-26.189353942871094
1761400358810940200,4.502940185546875,5.346210479736328,-16.919696807861328,-16.778512954711914
1761400358831099100,4.52309912109375,8.910186767578125,-20.98430061340332,-10.688724517822266
1761400358851272700,4.543272705078125,8.02070426940918,-15.091409683227539,-12.15113639831543
1761400358871434800,4.563434814453125,6.887482643127441,-16.043317794799805,-10.825759887695312
1761400358891597800,4.583597900390625,7.362534046173096,-17.32668685913086,-9.656133651733398
1761400358911760000,4.603759765625,6.153007507324219,-15.463141441345215,-8.41980266571045
1761400358931922200,4.623922119140625,2.2155370712280273,-10.596186637878418,-6.7414751052856445
1761400358952084500,4.64408447265625,-0.29341959953308105,-6.626423358917236,-3.309852123260498
1761400358972247000,4.6642470703125,0.6419427990913391,-5.55113410949707,-0.5245776176452637
1761400358992408800,4.684408935546875,1.049619197845459,-4.200698375701904,-0.3933877944946289
1761400359012566500,4.70456640625,-0.524876594543457,-1.9590210914611816,1.1975135803222656
1761400359032731400,4.7247314453125,1.9413793087005615,2.8577237129211426,1.390185832977295
1761400359052886500,4.744886474609375,2.0540847778320312,6.617946624755859,3.4388327598571777
1761400359073045200,4.765045166015625,0.3579789400100708,10.275753021240234,6.209863662719727
1761400359093217800,4.7852177734375,3.0317389965057373,13.869397163391113,5.6372504234313965
1761400359113380000,4.805380126953125,2.5061471462249756,12.334606170654297,9.582944869995117
1761400359133532200,4.8255322265625,-5.746004581451416,9.37428092956543,10.499312400817871
1761400359153706800,4.845706787109375,-3.9059154987335205,6.738935470581055,9.805424690246582
1761400359173857000,4.86585693359375,1.1130893230438232,3.567786693572998,10.21757984161377
1761400359194031600,4.886031494140625,-0.9970756769180298,3.1878669261932373,5.3184814453125
1761400359214173400,4.90617333984375,-1.813544750213623,3.7759058475494385,3.6605424880981445
1761400359234351900,4.926351806640625,-1.4957468509674072,4.409898281097412,4.152777194976807
1761400359254518300,4.946518310546875,-1.48102605342865,5.83176326751709,5.3497443199157715
1761400359274680000,4.96668017578125,-0.7749988436698914,7.1656413078308105,5.571408271789551
1761400359294818800,4.98681884765625,-0.31628477573394775,7.726361274719238,6.151612758636475
1761400359315005000,5.0070048828125,0.14619353413581848,8.32598876953125,6.730619430541992
1761400359335162400,5.027162353515625,0.8142430186271667,8.164146423339844,7.162938117980957
1761400359355327500,5.047327392578125,1.3585453033447266,7.891930103302002,7.313316345214844
1761400359375490000,5.067489990234375,2.8485589027404785,7.705191612243652,5.685336589813232
1761400359395652900,5.08765283203125,1.1899768114089966,5.064148902893066,3.555154800415039
1761400359415803600,5.1078037109375,7.698260307312012,1.3791003227233887,-0.9976286888122559
1761400359435957000,5.12795703125,0.9843298196792603,-6.049352169036865,3.5568389892578125
1761400359456140800,5.148140869140625,1.9774376153945923,-8.661956787109375,-9.475765228271484
1761400359476291300,5.168291259765625,6.061806678771973,-12.138044357299805,-15.084285736083984
1761400359496452900,5.188452880859375,5.077060699462891,-10.926026344299316,-12.72639274597168
1761400359516627700,5.208627685546875,3.894831418991089,-14.709806442260742,-8.317564010620117
1761400359536788000,5.2287880859375,6.033103942871094,-16.118513107299805,-11.204414367675781
1761400359556950000,5.248949951171875,5.67014217376709,-12.332226753234863,-10.18202018737793
1761400359577114400,5.2691142578125,5.779787063598633,-12.143289566040039,-12.074323654174805
1761400359597264100,5.28926416015625,3.247267484664917,-12.840307235717773,-13.600137710571289
1761400359617438700,5.309438720703125,1.5639573335647583,-11.309089660644531,-9.921126365661621
1761400359637587000,5.3295869140625,-0.48446905612945557,-8.535493850708008,-6.313818454742432
1761400359657763800,5.349763916015625,0.42203330993652344,-6.2410502433776855,-2.6673593521118164
1761400359677926100,5.369926025390625,0.6017764806747437,-3.489774227142334,1.3345427513122559
1761400359698088000,5.390087890625,-0.1985924243927002,-1.583439826965332,0.35527467727661133
1761400359718250000,5.41025,-4.409867286682129,0.5909619331359863,1.7245874404907227
1761400359738387200,5.43038720703125,-5.953153133392334,3.58558988571167,4.113465309143066
1761400359758549800,5.4505498046875,-4.086161136627197,9.210803985595703,2.58099627494812
1761400359778712000,5.470712158203125,0.5478570461273193,8.020989418029785,9.123357772827148
1761400359798897400,5.4908974609375,-2.2873733043670654,7.011777877807617,14.06956672668457
1761400359819054600,5.5110546875,-2.001619815826416,9.899035453796387,12.832822799682617
1761400359839223600,5.5312236328125,-3.961470603942871,8.720226287841797,9.811161041259766
1761400359859383800,5.5513837890625,-4.583436012268066,6.015385150909424,8.603659629821777
1761400359879532500,5.571532470703125,-2.935539960861206,4.409597873687744,4.264911651611328
1761400359899691000,5.59169091796875,-2.060303211212158,5.325246334075928,2.3839797973632812
1761400359919861800,5.61186181640625,-5.518657684326172,5.972133636474609,1.9159541130065918
1761400359940022300,5.632022216796875,-7.593191146850586,6.079752445220947,2.3813791275024414
1761400359960197400,5.652197265625,-6.360351085662842,6.3700432777404785,3.106078624725342
1761400359980359000,5.67235888671875,-6.526604175567627,7.763077259063721,5.074488639831543
1761400360000520700,5.692520751953125,-5.36346435546875,8.476861000061035,7.2562994956970215
1761400360020683000,5.71268310546875,-2.8755221366882324,8.797183990478516,7.798440456390381
1761400360040846000,5.73284619140625,-2.767221450805664,7.94887113571167,7.400969982147217
1761400360060995600,5.75299560546875,-1.35184645652771,6.101048469543457,5.958281993865967
1761400360081145600,5.7731455078125,0.03402423858642578,4.360131740570068,4.7039265632629395
1761400360101332700,5.793332763671875,-0.2666459083557129,-1.317784309387207,10.430913925170898
1761400360121491500,5.813491455078125,14.98975658416748,-15.88479232788086,6.413841247558594
1761400360141657000,5.833656982421875,-3.7341389656066895,-19.667388916015625,-32.383644104003906
1761400360161819600,5.853819580078125,0.8075408935546875,-17.45155143737793,-14.733163833618164
1761400360181977900,5.873977783203125,0.6623263359069824,-16.601551055908203,-9.955516815185547
1761400360202144000,5.89414404296875,-0.012592315673828125,-26.872936248779297,-14.84988021850586
1761400360222306300,5.914306396484375,2.887352466583252,-20.674274444580078,-15.271772384643555
1761400360242464500,5.934464599609375,5.3309006690979,-19.79723358154297,-18.488059997558594
1761400360262631200,5.954631103515625,3.854215145111084,-17.87581443786621,-12.555335998535156
1761400360282791000,5.974791015625,2.326101541519165,-8.58194351196289,-3.6021981239318848
1761400360302955300,5.994955322265625,1.4452593326568604,-2.4670190811157227,-0.1378476619720459
1761400360323092500,6.015092529296875,-1.2884843349456787,1.6983623504638672,-5.138177871704102
1761400360343279600,6.035279541015625,-4.522474765777588,3.8942394256591797,-4.063060760498047
1761400360363442200,6.055442138671875,-6.870190620422363,5.608900547027588,2.245818614959717
1761400360383605000,6.07560498046875,-9.752213478088379,7.374405384063721,10.885665893554688
1761400360403766500,6.0957666015625,-8.470673561096191,6.017075538635254,12.504400253295898
1761400360423908000,6.115908203125,-5.547050476074219,5.285830974578857,9.003767013549805
1761400360444087300,6.13608740234375,-3.5254204273223877,4.4674506187438965,3.2334203720092773
1761400360464253200,6.156253173828125,-1.6625447273254395,2.1526479721069336,3.8086462020874023
1761400360484415500,6.17641552734375,-1.6452772617340088,1.588557243347168,6.558663368225098
1761400360504582400,6.19658251953125,-1.9690260887145996,4.339794158935547,7.369760513305664
1761400360524740600,6.21674072265625,-5.211679458618164,6.996508598327637,-2.129298210144043
1761400360544902700,6.236902587890625,-8.104281425476074,5.103811740875244,-4.430155277252197
1761400360565049300,6.25704931640625,-10.503047943115234,5.924983501434326,3.1610586643218994
1761400360585201400,6.277201416015625,-7.9998650550842285,5.426504135131836,11.194426536560059
1761400360605364000,6.297364013671875,-5.929502487182617,5.4424357414245605,11.797622680664062
1761400360625552100,6.31755224609375,-5.39674711227417,8.713605880737305,9.07921028137207
1761400360645713700,6.337713623046875,-6.374485492706299,9.087531089782715,6.134202003479004
1761400360665876500,6.35787646484375,-8.362957000732422,8.150821685791016,6.700784206390381
1761400360686038800,6.378038818359375,-7.992465019226074,5.781832218170166,6.498944282531738
1761400360706175500,6.398175537109375,-6.444991588592529,4.211671829223633,6.550213813781738
1761400360726337500,6.418337646484375,-4.3792033195495605,4.254042625427246,6.51361083984375
1761400360746525000,6.43852490234375,-3.8895092010498047,3.640155792236328,5.593463897705078
1761400360766688500,6.4586884765625,-0.830502986907959,0.29858827590942383,3.965813398361206
1761400360786850300,6.478850341796875,6.980702877044678,-4.082425117492676,-0.18126249313354492
1761400360807012000,6.49901220703125,7.310792922973633,-8.609088897705078,-15.298832893371582
1761400360827174700,6.519174560546875,8.307613372802734,-6.291483402252197,-20.953725814819336
1761400360847336400,6.53933642578125,11.479458808898926,-2.561100959777832,-16.560245513916016
1761400360867498800,6.559498779296875,14.242448806762695,0.5820908546447754,-11.605615615844727
1761400360887661600,6.57966162109375,10.330629348754883,-15.221515655517578,-22.8012752532959
1761400360907823400,6.5998232421875,-4.842545509338379,-12.824256896972656,-26.7458553314209
1761400360927989800,6.61998974609375,3.7948107719421387,10.60203742980957,16.168537139892578
1761400360948144400,6.640144287109375,-2.93452787399292,4.511731147766113,18.329715728759766
1761400360968330000,6.660330078125,-3.4660444259643555,-3.4720892906188965,1.1713743209838867
1761400360988472600,6.68047265625,-1.1106102466583252,-20.622329711914062,-5.647833347320557
1761400361008597500,6.700597412109375,-5.062419891357422,-9.306750297546387,-0.22237634658813477
1761400361028797000,6.720796875,-0.06793451309204102,-6.379518985748291,4.7842793464660645
1761400361048958700,6.740958740234375,0.13003921508789062,-8.406230926513672,-2.022883892059326
1761400361069121000,6.76112109375,-0.2930777072906494,-8.64912223815918,-8.843921661376953
1761400361089257000,6.781257080078125,-6.902608871459961,-9.442273139953613,-12.285996437072754
1761400361109420300,6.801420166015625,-5.988165378570557,-10.517101287841797,-6.258882999420166
1761400361129609000,6.82160888671875,-3.6145339012145996,-9.309478759765625,1.8243191242218018
1761400361149770200,6.841770263671875,1.438390851020813,-6.76511287689209,4.475638389587402
1761400361169933000,6.86193310546875,2.367323637008667,-4.188250541687012,6.667312145233154
1761400361190095000,6.88209521484375,-0.6995838284492493,2.8639163970947266,5.65785551071167
1761400361210257000,6.9022568359375,0.8492873311042786,4.75347900390625,4.202112197875977
1761400361230418200,6.922418212890625,1.6742479801177979,9.909887313842773,-2.975241184234619
1761400361250581200,6.942581298828125,-0.3758575916290283,10.717925071716309,-6.180375576019287
1761400361270718200,6.96271826171875,0.3387608528137207,8.143279075622559,0.1225423812866211
1761400361290880300,6.98288037109375,-4.873075485229492,8.201950073242188,5.8756513595581055
1761400361311068200,7.003068115234375,-4.227384090423584,8.313039779663086,6.635948181152344
1761400361331226000,7.02322607421875,-1.7817105054855347,8.580404281616211,6.504813194274902
1761400361351392500,7.043392578125,-2.1614058017730713,8.32266902923584,7.536404609680176
1761400361371554800,7.063554931640625,-2.8708744049072266,7.743291854858398,6.9604387283325195
1761400361391704800,7.083704833984375,-1.7171733379364014,7.884064197540283,4.805527210235596
1761400361411854300,7.103854248046875,-0.9771254062652588,7.952306747436523,3.0123252868652344
1761400361432040000,7.1240400390625,-1.0009392499923706,7.7855939865112305,4.114398956298828
1761400361452203500,7.14420361328125,-1.2976858615875244,7.662802219390869,6.320694923400879
1761400361472353800,7.164353759765625,-2.699556350708008,7.8931803703308105,6.355436325073242
1761400361492528600,7.184528564453125,-3.2113609313964844,7.414689064025879,3.7332377433776855
1761400361512691000,7.20469091796875,9.058568954467773,5.0455121994018555,-1.7775096893310547
1761400361532853500,7.224853515625,1.6359972953796387,-0.07112312316894531,5.940281391143799
1761400361553015600,7.245015625,-10.79977798461914,-5.842475891113281,2.9911723136901855
1761400361573177600,7.265177490234375,6.979747772216797,-8.67110538482666,-16.71022605895996
1761400361593331200,7.285331298828125,-3.3124685287475586,-9.697526931762695,-13.17840576171875
1761400361613502000,7.305501953125,3.9984304904937744,-13.192351341247559,-11.057767868041992
1761400361633664500,7.32566455078125,10.096148490905762,-16.787269592285156,-14.323272705078125
1761400361653815300,7.345815185546875,7.091555595397949,-14.60842514038086,-15.217638969421387
1761400361673976300,7.365976318359375,6.8162841796875,-15.632177352905273,-14.390105247497559
1761400361694150700,7.386150634765625,5.194762229919434,-15.630146026611328,-13.976347923278809
1761400361714313200,7.406313232421875,4.782983779907227,-13.581062316894531,-13.162878036499023
1761400361734475500,7.4264755859375,1.862600326538086,-9.630447387695312,-13.995345115661621
1761400361754638300,7.446638427734375,1.3276841640472412,-7.973446846008301,-9.870018005371094
1761400361774787000,7.466787109375,0.5226254463195801,-4.730794906616211,-2.3864173889160156
1761400361794949600,7.48694970703125,0.1971825361251831,-0.722538948059082,4.905220031738281
1761400361815124700,7.507124755859375,-3.5640904903411865,3.1873912811279297,9.226688385009766
1761400361835287000,7.527287109375,-5.9324164390563965,8.891393661499023,6.68723201751709
1761400361855437300,7.547437255859375,-3.632725715637207,12.375655174255371,6.00814151763916
1761400361875605000,7.56760498046875,3.6466474533081055,13.265909194946289,6.553912162780762
1761400361895761700,7.58776171875,-1.2288235425949097,8.437947273254395,8.807165145874023
1761400361915923500,7.60792333984375,-5.568088054656982,5.737189292907715,7.646134853363037
1761400361936075500,7.628075439453125,-3.68833327293396,3.062541961669922,2.9786083698272705
1761400361956262400,7.648262451171875,-3.0060253143310547,4.8595170974731445,3.8438119888305664
1761400361976420000,7.668420166015625,-2.6144182682037354,7.093217372894287,5.46658182144165
1761400361996572700,7.68857275390625,-3.594407796859741,7.856088638305664,4.779696941375732
1761400362036907000,7.728906982421875,-1.7503806352615356,9.86400032043457,2.961897850036621
1761400362057066800,7.749066650390625,-1.3373870849609375,10.213193893432617,3.253211498260498
1761400362077233400,7.7692333984375,-0.8381443023681641,12.242216110229492,5.721520900726318
1761400362097381000,7.789381103515625,-1.4591732025146484,13.609055519104004,6.819231986999512
1761400362117558300,7.809558349609375,-1.315915822982788,10.78908920288086,6.893319129943848
1761400362137720600,7.829720458984375,-1.7698900699615479,8.505485534667969,4.82946252822876
1761400362157870000,7.8498701171875,-1.7207478284835815,7.784060478210449,3.225651741027832
1761400362178045000,7.870044921875,-2.30061936378479,7.279868125915527,3.8707053661346436
1761400362198202000,7.8902021484375,-1.9531774520874023,5.141571521759033,5.168122291564941
1761400362218369500,7.91036962890625,-0.16506707668304443,3.2885947227478027,2.0091617107391357
1761400362238531800,7.93053173828125,4.4178266525268555,2.487614631652832,-4.3492279052734375
1761400362258694100,7.950694091796875,8.715866088867188,-3.2947540283203125,-5.797518730163574
1761400362278846200,7.97084619140625,-7.904815673828125,-6.432217597961426,-3.516561985015869
1761400362319169500,8.01116943359375,3.3278276920318604,-13.573692321777344,-11.703422546386719
1761400362339343000,8.031343017578125,8.465750694274902,-20.854887008666992,-17.01376724243164
1761400362359493000,8.0514931640625,7.791735649108887,-15.821544647216797,-13.005474090576172
1761400362379667200,8.071667236328125,8.841670036315918,-16.309886932373047,-13.327071189880371
1761400362399817200,8.091817138671875,6.464409828186035,-15.858535766601562,-11.299139022827148
1761400362419979800,8.111979736328125,4.06223201751709,-10.37833309173584,-8.080921173095703
1761400362440131300,8.13213134765625,1.059600591659546,-8.629714012145996,-7.409548759460449
1761400362460291800,8.152291748046874,-0.8689818382263184,-7.275268077850342,-6.298908710479736
1761400362480446500,8.172446533203125,-3.289893627166748,-6.687582015991211,-3.1405029296875
1761400362500622300,8.192622314453125,-3.2480759620666504,-6.693302154541016,-2.097959518432617
1761400362520815400,8.2128154296875,0.5714288949966431,-2.1425609588623047,-0.7756986618041992
1761400362540965600,8.232965576171875,2.3358588218688965,1.6168088912963867,1.1430130004882812
1761400362561115600,8.25311572265625,-2.001051187515259,6.1067423820495605,1.6297309398651123
1761400362581277400,8.27327734375,-4.20329475402832,10.073799133300781,5.289618015289307
1761400362601452300,8.293452392578125,0.3672431707382202,12.060205459594727,7.924562454223633
1761400362621602000,8.31360205078125,3.6622586250305176,11.249231338500977,6.197856903076172
1761400362641777200,8.333777099609375,1.0311559438705444,8.530158042907715,6.722799301147461
1761400362661939200,8.353939208984375,1.1243224143981934,6.889662742614746,8.653432846069336
1761400362682095000,8.37409521484375,1.3675718307495117,5.801395416259766,9.375036239624023
1761400362702263600,8.394263671875,-0.26224809885025024,5.2854084968566895,6.02963924407959
1761400362722425600,8.414425537109375,-0.7306631803512573,7.007038116455078,3.621501922607422
1761400362742586600,8.434586669921876,-1.6950327157974243,8.101190567016602,1.93660569190979
1761400362762750200,8.454750244140625,-1.8713815212249756,8.7632474899292,-0.0662682056427002
1761400362782899500,8.4748994140625,-2.819432258605957,10.721116065979004,-0.609250545501709
1761400362803035000,8.495034912109375,-2.161824941635132,11.333913803100586,-0.24970030784606934
1761400362823236600,8.515236572265625,-1.6148951053619385,10.43115520477295,0.7114894390106201
1761400362843399000,8.53539892578125,-1.5132334232330322,9.979146003723145,1.8505384922027588
1761400362863561500,8.5555615234375,-0.7215105295181274,9.578634262084961,5.130923271179199
1761400362883724000,8.57572412109375,-0.5259801149368286,6.850870132446289,6.712388038635254
1761400362903886000,8.595885986328126,2.120318651199341,6.017267227172852,6.812382698059082
1761400362924048000,8.6160478515625,9.343507766723633,1.0365943908691406,2.3685898780822754
1761400362944210200,8.636210205078125,0.4940537214279175,-6.247174263000488,11.200186729431152
1761400362964373000,8.656373046875,-6.469194412231445,-10.243476867675781,1.6609406471252441
1761400362984535300,8.676535400390625,12.912775039672852,-16.314102172851562,-19.224075317382812
1761400363004693000,8.69669287109375,1.6972734928131104,-6.5637359619140625,-11.038228034973145
1761400363024860000,8.71685986328125,2.8040084838867188,-5.671831130981445,-7.799546241760254
1761400363045022200,8.737022216796875,1.9873695373535156,-8.127117156982422,-9.352312088012695
1761400363065184800,8.757184814453124,15.087249755859375,-11.913931846618652,-9.60743522644043
1761400363085346300,8.77734619140625,10.958703994750977,-10.339879989624023,-16.396724700927734
1761400363105508400,8.79750830078125,7.737190246582031,-9.090276718139648,-10.251623153686523
1761400363125646000,8.81764599609375,6.214299201965332,-11.344593048095703,-9.585474014282227
1761400363145812500,8.8378125,1.863964557647705,-11.752127647399902,-8.24005126953125
1761400363165975800,8.857975830078125,-1.595300316810608,-9.436413764953613,-6.961606979370117
1761400363186157000,8.878156982421874,-1.1242966651916504,-6.913826942443848,-9.35029411315918
1761400363206282500,8.898282470703125,1.5810766220092773,-3.484609603881836,-7.420823574066162
1761400363226456800,8.918456787109376,1.1009187698364258,0.3486976623535156,3.2224581241607666
1761400363246643700,8.938643798828124,0.2489444613456726,3.6328649520874023,7.891368865966797
1761400363266806800,8.958806884765625,-1.885705590248108,5.3666887283325195,7.426215171813965
1761400363286943500,8.978943603515624,0.117381751537323,8.629734992980957,7.33928918838501
1761400363307131000,8.999130859375,2.831786632537842,10.385538101196289,3.789940118789673
1761400363327296000,9.0192958984375,-0.467384934425354,10.93978500366211,2.311490535736084
1761400363347454700,9.039454833984376,-0.3891329765319824,10.29951286315918,6.2867231369018555
1761400363367617300,9.0596171875,-0.56064772605896,9.316969871520996,8.941856384277344
1761400363387779600,9.079779541015625,-0.49202975630760193,7.2510786056518555,6.125554084777832
1761400363407941600,9.099941650390624,0.68656325340271,6.803226470947266,3.6012988090515137
1761400363428100000,9.12010009765625,0.3227066993713379,7.067022800445557,2.4676270484924316
1761400363448259800,9.140259765625,-2.209726095199585,8.127427101135254,2.5049567222595215
1761400363468428500,9.160428466796875,-1.5036871433258057,9.569767951965332,3.613126277923584
1761400363488591000,9.180591064453125,-1.8693697452545166,9.738757133483887,3.3117918968200684
1761400363508748800,9.200748779296875,-2.009178638458252,10.506953239440918,2.403372287750244
1761400363528915500,9.22091552734375,-2.580310821533203,10.771267890930176,2.7961678504943848
1761400363549078300,9.241078369140626,-2.4840331077575684,9.114059448242188,4.517231464385986
1761400363569235700,9.261235595703125,-2.0231029987335205,7.763583660125732,6.055520057678223
1761400363589401600,9.281401611328125,-1.638010025024414,6.378697872161865,6.524730682373047
1761400363609565000,9.30156494140625,-1.0112957954406738,4.056524276733398,6.653287887573242
1761400363629727500,9.3217275390625,0.5330221652984619,1.350724220275879,6.056929111480713
1761400363649888800,9.341888671875,14.279863357543945,-0.07575416564941406,3.2074692249298096
1761400363670026000,9.36202587890625,-0.8211309909820557,-6.034331321716309,2.5261802673339844
1761400363690214000,9.3822138671875,6.093417167663574,-13.672471046447754,-16.75957489013672
1761400363710346000,9.402345947265625,11.076008796691895,-14.217771530151367,-17.68459129333496
1761400363730538200,9.422538330078124,6.181269645690918,-16.772932052612305,-14.260539054870605
1761400363750700300,9.4427001953125,5.431497573852539,-15.005971908569336,-18.511268615722656
1761400363770863400,9.46286328125,10.54903793334961,-17.282928466796875,-11.149415016174316
1761400363791024400,9.4830244140625,13.917075157165527,-18.802181243896484,-6.591244220733643
1761400363811186700,9.503186767578125,8.878880500793457,-16.334003448486328,-8.20388412475586
1761400363831323600,9.52332373046875,4.319337844848633,-7.844799995422363,-6.8878703117370605
1761400363851511000,9.543510986328124,0.4138519763946533,-4.108766555786133,-6.95741605758667
1761400363871648800,9.563648681640625,-0.9642535448074341,-0.8805370330810547,-7.802680492401123
1761400363891810600,9.583810546875,-0.21445631980895996,1.5023388862609863,-2.8512563705444336
1761400363911998000,9.603998046875,-2.656743049621582,-0.3935670852661133,10.263629913330078
1761400363932160300,9.62416015625,-6.524023056030273,1.686507225036621,11.279619216918945
1761400363952322800,9.64432275390625,-6.298836708068848,3.861452579498291,6.192207336425781
1761400363972485000,9.664485107421875,6.397782325744629,5.047519207000732,4.016427993774414
1761400363992647200,9.684647216796876,9.147310256958008,6.433585166931152,8.46119499206543
1761400364012809200,9.704809326171874,-5.494626522064209,7.082008361816406,8.044501304626465
1761400364032971500,9.724971435546875,-7.779602527618408,7.238299369812012,4.580545425415039
1761400364053133600,9.745133544921876,-7.140406608581543,8.942745208740234,7.850578784942627
1761400364073296600,9.765296630859375,-6.2151336669921875,10.522680282592773,7.463070869445801
1761400364093433000,9.78543310546875,-5.4514641761779785,10.50442886352539,5.201869010925293
1761400364113620500,9.805620361328126,-5.852315425872803,9.114863395690918,2.999091148376465
1761400364133757400,9.82575732421875,-5.261250972747803,7.0561394691467285,3.732459783554077
1761400364153941500,9.84594140625,-3.604656934738159,6.180363655090332,2.854617118835449
1761400364174107600,9.866107666015624,-1.9206112623214722,7.448225021362305,2.627105712890625
1761400364194270000,9.88627001953125,-2.454092025756836,9.841654777526855,3.6108717918395996
1761400364214432500,9.9064326171875,-4.256886005401611,10.292312622070312,5.643782615661621
1761400364234569200,9.9265693359375,-5.3461785316467285,8.284549713134766,8.125422477722168
1761400364254756000,9.946756103515625,-2.9726994037628174,6.704050064086914,5.575789928436279
1761400364274927600,9.966927734375,-3.492680549621582,7.420389652252197,5.113409042358398
1761400364295056100,9.98705615234375,-2.804178237915039,7.153653144836426,5.24332857131958
1761400364315218000,10.007218017578126,-2.7827725410461426,4.411077499389648,2.4979569911956787
1761400364335405000,10.027405029296874,1.0252535343170166,1.1847634315490723,-0.783757209777832
1761400364355567000,10.047567138671875,15.780622482299805,-8.734579086303711,0.8216161727905273
1761400364375730000,10.06772998046875,3.374307155609131,-14.642844200134277,-11.839494705200195
1761400364395877000,10.087877197265625,12.510906219482422,-19.877670288085938,-25.466569900512695
1761400364416054300,10.10805419921875,5.570748329162598,-21.97726058959961,-11.468629837036133
1761400364436203500,10.12820361328125,8.737045288085938,-24.592655181884766,-13.53044319152832
1761400364456378600,10.148378662109375,8.204959869384766,-30.370466232299805,-17.436676025390625
1761400364476515800,10.168515869140625,7.600288391113281,-24.410913467407227,-15.398175239562988
1761400364496690700,10.188690673828125,8.297706604003906,-13.154208183288574,-9.21300983428955
1761400364516844300,10.20884423828125,5.292857646942139,-7.818279266357422,-6.065861701965332
1761400364537016000,10.22901611328125,3.8155288696289062,-2.9488048553466797,-5.436295986175537
1761400364557190100,10.249190185546874,0.00015401840209960938,-0.12843942642211914,-6.892029762268066
1761400364577340700,10.269340576171874,-2.995323896408081,4.360202789306641,-0.24050521850585938
1761400364597511200,10.28951123046875,-3.801161527633667,6.470526695251465,8.764623641967773
1761400364617676300,10.30967626953125,-2.1838231086730957,6.008293151855469,9.028254508972168
1761400364637823500,10.329823486328126,-5.569964408874512,8.114184379577637,9.801603317260742
1761400364657999400,10.349999267578125,-6.411921977996826,9.20022201538086,11.707412719726562
1761400364678163500,10.37016357421875,-0.8437230587005615,8.62837028503418,11.527114868164062
1761400364698326300,10.390326171875,0.6426389217376709,6.212266445159912,7.014914512634277
1761400364718486000,10.410486083984376,-0.11775505542755127,3.669408082962036,3.1794707775115967
1761400364738628400,10.43062841796875,-1.4650567770004272,3.121155261993408,2.0449366569519043
1761400364758812200,10.450812255859375,-1.560638427734375,6.919528484344482,4.707559108734131
1761400364778974700,10.470974609375,-1.501000165939331,10.336661338806152,6.934807777404785
1761400364799136800,10.49113671875,-1.2638322114944458,9.42691707611084,5.892244815826416
1761400364819307000,10.51130712890625,-1.1318830251693726,9.061841011047363,4.536898136138916
1761400364839460900,10.5314609375,-1.794630527496338,8.697690963745117,5.319732189178467
1761400364859605800,10.551605712890625,-2.953303813934326,7.853239059448242,6.028318405151367
1761400364879785700,10.57178564453125,-3.3787131309509277,8.350165367126465,6.976412773132324
1761400364899935200,10.591935302734376,-3.5240776538848877,7.936332702636719,7.37688684463501
1761400364920108300,10.6121083984375,-3.3666911125183105,7.084442615509033,6.168793201446533
1761400364940272400,10.6322724609375,-3.2908196449279785,6.8153228759765625,5.367584705352783
1761400364960423000,10.6524228515625,-3.6962552070617676,6.449336528778076,6.052229881286621
1761400364980592400,10.67259228515625,-2.789107084274292,6.8553290367126465,6.639750957489014
1761400365000754200,10.692754150390625,-1.923080563545227,2.4974470138549805,3.804387092590332
1761400365020910800,10.712910888671875,3.783517360687256,-1.9496798515319824,-0.39023637771606445
1761400365041068500,10.733068603515624,3.817385673522949,-7.27730655670166,-8.558652877807617
1761400365061243400,10.753243408203126,3.993797779083252,-15.84327220916748,-10.734382629394531
1761400365081408500,10.773408447265625,5.348220348358154,-18.843400955200195,-5.86059045791626
1761400365101567000,10.79356689453125,1.5222973823547363,-10.277440071105957,-6.381559371948242
1761400365121732600,10.813732666015625,5.208305358886719,-11.454580307006836,-8.512557983398438
1761400365141894700,10.833894775390625,5.567958354949951,-9.497114181518555,-8.396245956420898
1761400365162057200,10.85405712890625,3.725788116455078,-6.60410213470459,-10.644721031188965
1761400365182219500,10.874219482421875,3.0396738052368164,-5.918673038482666,-9.42944622039795
1761400365202381800,10.8943818359375,0.42274045944213867,-3.6253151893615723,-4.022431373596191
1761400365222544000,10.9145439453125,-0.4860076904296875,-3.240567207336426,0.3767213821411133
1761400365242681000,10.93468115234375,0.8261876106262207,-3.961536407470703,0.019288063049316406
1761400365262855700,10.954855712890625,0.32103419303894043,-3.0206613540649414,-0.7484807968139648
1761400365283018000,10.97501806640625,-1.0348119735717773,-1.363825798034668,1.0222218036651611
1761400365303191300,10.99519140625,0.20961546897888184,1.1246232986450195,2.490067481994629
1761400365323329800,11.015329833984374,0.8640639781951904,3.456782341003418,2.806164264678955
1761400365343492000,11.0354921875,0.7752022743225098,5.633066177368164,3.146064281463623
1761400365363648500,11.0556484375,1.1633200645446777,6.305960178375244,2.3201403617858887
1761400365383825700,11.07582568359375,1.074230432510376,5.631075382232666,0.38695406913757324
1761400365404004000,11.096004150390625,-0.01697850227355957,5.280736446380615,-0.9229307174682617
1761400365424166400,11.11616650390625,-0.5233680009841919,1.542037010192871,-0.7072458267211914
1761400365444316700,11.136316650390626,-0.7399308681488037,2.0935449600219727,0.45873522758483887
1761400365464490800,11.15649072265625,0.02436661720275879,1.019927978515625,1.710357904434204
1761400365484653000,11.176653076171876,0.6264050006866455,-0.0015592575073242188,0.6735882759094238
1761400365504797000,11.196796875,0.017920255661010742,-0.5392398834228516,-1.883495569229126
1761400365524975900,11.216975830078125,-1.2993643283843994,-0.7274742126464844,-2.4351325035095215
1761400365545139700,11.2371396484375,-1.399715542793274,-0.3886852264404297,-1.7536680698394775
1761400365565299700,11.2572998046875,-0.6309695243835449,0.5855045318603516,-0.968947172164917
1761400365585474800,11.277474853515624,-0.1714639663696289,1.2773876190185547,-0.5677201747894287
1761400365605624600,11.29762451171875,-0.09627676010131836,1.3593640327453613,-0.47777318954467773
1761400365625757400,11.31775732421875,-0.7101140022277832,1.1499710083007812,-0.7044179439544678
1761400365645950500,11.337950439453126,-0.7845344543457031,0.8276715278625488,-1.0355980396270752
1761400365666113300,11.35811328125,-0.47669529914855957,0.37514781951904297,-1.4892702102661133
1761400365686273500,11.3782734375,-0.21705937385559082,0.22255992889404297,-1.322479009628296
1761400365706438100,11.398438232421874,-0.13588523864746094,-0.1510915756225586,-1.232088565826416
1761400365726600000,11.418599853515625,-0.1345055103302002,-0.17597484588623047,-0.8927750587463379
1761400365746739700,11.43873974609375,-0.3568148612976074,0.43741512298583984,-0.3390390872955322
1761400365766911700,11.458911865234375,-0.7153134346008301,0.5273761749267578,-0.25710177421569824
1761400365787092700,11.4790927734375,-0.8185698986053467,0.16835594177246094,-0.09472417831420898
1761400365827398100,11.519398193359375,-0.9945350885391235,0.0074005126953125,-0.2947244644165039
1761400365847561000,11.53956103515625,-1.0145416259765625,0.06420421600341797,-0.05501556396484375
1761400365867735800,11.55973583984375,-0.796273946762085,0.15551471710205078,-0.14931249618530273
1761400365887889700,11.5798896484375,-0.857414960861206,0.10001850128173828,-0.7307562828063965
1761400365908047000,11.600047119140624,-0.9132778644561768,-0.09485626220703125,-0.881103515625
1761400365928221700,11.6202216796875,-0.8060226440429688,-0.15122413635253906,-0.8076920509338379
1761400365948384500,11.640384521484375,-0.7571914196014404,-0.05150032043457031,-0.43233823776245117
1761400365968533500,11.660533447265625,-0.6905481815338135,0.14078521728515625,-0.0018682479858398438
1761400365988697300,11.680697265625,-0.717369794845581,0.17622661590576172,-0.05956411361694336
1761400366008871000,11.700870849609375,-0.7527981996536255,-0.06545066833496094,-0.3771390914916992
1761400366029033200,11.721033203125,-0.5398247241973877,-0.0024261474609375,-0.4488053321838379
1761400366049183000,11.741182861328125,-0.4625641107559204,0.22115707397460938,-0.5763373374938965
1761400366069343500,11.761343505859376,-0.5110424757003784,0.3113269805908203,-0.4241018295288086
1761400366089531000,11.78153076171875,-0.4973057508468628,0.1930856704711914,-0.4026217460632324
1761400366109669600,11.801669677734376,-0.46428871154785156,0.32469654083251953,-0.5717267990112305
1761400366129842400,11.821842529296875,-0.5899049043655396,0.16728496551513672,-0.8176517486572266
1761400366149998000,11.841998046875,-0.5476789474487305,0.08766841888427734,-0.5346713066101074
1761400366170169300,11.86216943359375,-0.5482698678970337,0.20782947540283203,-0.3514442443847656
1761400366190331000,11.882330810546875,-0.4399890899658203,0.4517812728881836,-0.4880385398864746
1761400366210494000,11.902493896484375,-0.341015100479126,0.5726900100708008,-0.8364815711975098
1761400366230654000,11.922654052734375,-0.4801771640777588,0.3934297561645508,-0.7788681983947754
1761400366250813400,11.9428134765625,-0.5970996618270874,0.09652042388916016,-0.6170353889465332
1761400366270979800,11.962979736328125,-0.7768917083740234,0.4191551208496094,-0.4187922477722168
1761400366291131400,11.98313134765625,-1.0050865411758423,0.7676877975463867,-0.4384956359863281
1761400366311304700,12.0033046875,-1.350677728652954,1.261033535003662,0.07683038711547852
1761400366331466800,12.023466796875,-1.9917558431625366,2.0839056968688965,0.709613561630249
1761400366351616800,12.04361669921875,-2.6586098670959473,2.994034767150879,1.2081396579742432
1761400366371791400,12.063791259765624,-3.1003894805908203,4.4213457107543945,2.1117491722106934
1761400366391938800,12.083938720703125,-1.546879529953003,4.776968002319336,3.0566153526306152
1761400366412115700,12.10411572265625,1.8664321899414062,2.1523938179016113,3.3573763370513916
1761400366432278000,12.124278076171874,2.948009967803955,1.2006416320800781,1.297255516052246
1761400366452438500,12.1444384765625,3.93804669380188,1.1198339462280273,-1.9498443603515625
1761400366472602600,12.1646025390625,1.1589775085449219,1.3169903755187988,0.6174566745758057
1761400366492764400,12.184764404296875,-7.859625339508057,4.024380207061768,2.786938190460205
1761400366512926700,12.2049267578125,-3.884284734725952,4.878939628601074,1.604215383529663
1761400366533088800,12.2250888671875,0.13131189346313477,3.842278480529785,-1.9634819030761719
1761400366553251300,12.245251220703125,0.42737674713134766,0.8885889053344727,-3.6734113693237305
1761400366573402600,12.265402587890625,4.092594146728516,-8.669403076171875,-6.163585186004639
1761400366593575700,12.28557568359375,1.863245964050293,-13.746585845947266,-13.10473346710205
1761400366613738200,12.30573828125,5.235191822052002,-14.431373596191406,-11.426739692687988
1761400366633900500,12.325900634765626,7.364683151245117,-13.29416275024414,-12.582208633422852
1761400366654060500,12.346060546875,6.2496442794799805,-13.387840270996094,-12.851892471313477
1761400366674199800,12.36619970703125,5.501129627227783,-15.177499771118164,-11.68511962890625
1761400366694387000,12.386386962890626,2.7696518898010254,-8.651876449584961,-6.715566158294678
1761400366714547200,12.406547119140624,1.0492420196533203,-2.7269163131713867,-6.432847499847412
1761400366734711600,12.426711669921875,-1.7829731702804565,-1.023043155670166,-6.263663291931152
1761400366754869000,12.446868896484375,-0.20508480072021484,-0.10911130905151367,-2.5316882133483887
1761400366775033900,12.467033935546874,-2.0837862491607666,0.21965837478637695,6.167732238769531
1761400366795191600,12.487191650390624,-7.374262809753418,2.3328471183776855,9.190502166748047
1761400366815360500,12.507360595703124,-9.730121612548828,4.615997791290283,7.318599700927734
1761400366835521300,12.527521240234375,-3.56510853767395,7.007175445556641,2.603335380554199
1761400366855684400,12.547684326171876,5.908226013183594,8.750289916992188,3.0452332496643066
1761400366875847000,12.567846923828125,-5.430314064025879,9.449084281921387,10.25385570526123
1761400366895986200,12.587986083984376,-6.654664516448975,6.329514026641846,7.27016544342041
1761400366916171500,12.608171630859376,-2.6968376636505127,3.983781337738037,4.9062018394470215
1761400366936333800,12.628333740234375,-5.921605587005615,7.664254188537598,4.416661262512207
1761400366956494300,12.648494384765625,-5.90934419631958,5.778587341308594,3.869743824005127
1761400366976658400,12.668658447265624,-6.605013370513916,7.803571701049805,3.8099608421325684
1761400366996808000,12.688807861328126,-8.222763061523438,7.903069972991943,4.187877655029297
1761400367016970000,12.708969970703125,-6.459009647369385,7.45356559753418,4.984310150146484
1761400367037144800,12.729144775390624,-4.207322597503662,7.934985637664795,5.262495994567871
1761400367057294600,12.749294677734374,-3.7185187339782715,8.884136199951172,5.147702217102051
1761400367077469400,12.769469482421876,-4.732062339782715,9.63094711303711,5.865628719329834
1761400367097631700,12.7896318359375,-4.750382423400879,9.441197395324707,6.5291643142700195
1761400367117794300,12.809794189453125,-4.581237316131592,8.034614562988281,6.694555759429932
1761400367137955800,12.829955810546876,-1.4361097812652588,7.1979756355285645,4.63335657119751
1761400367158129400,12.85012939453125,-0.8845398426055908,6.477343559265137,3.622373104095459
1761400367178280700,12.87028076171875,0.24915003776550293,4.17526912689209,0.28907155990600586
1761400367198443000,12.890443115234374,-2.382845878601074,-1.6192073822021484,-5.482720851898193
1761400367218588000,12.910587890625,17.468828201293945,-14.623115539550781,-4.350370407104492
1761400367238746000,12.93074609375,-10.66473388671875,-11.078208923339844,-6.357265949249268
1761400367258929400,12.950929443359374,12.717039108276367,-15.281206130981445,-31.25374412536621
1761400367279080200,12.971080078125,2.786651611328125,-19.019515991210938,-7.635793209075928
1761400367299254000,12.99125390625,8.317557334899902,-20.222591400146484,-12.083517074584961
1761400367319406600,13.011406494140624,9.567930221557617,-21.809024810791016,-17.601295471191406
1761400367339570000,13.03156982421875,5.041995048522949,-22.058259963989258,-14.664981842041016
1761400367359741400,13.051741455078124,6.3824591636657715,-15.457200050354004,-10.242597579956055
1761400367379902500,13.07190234375,6.343334674835205,-7.169890880584717,-8.715957641601562
1761400367400066000,13.092066162109376,2.245818614959717,-6.568655014038086,-7.903436660766602
1761400367420210700,13.112210693359375,-2.4027292728424072,-3.5827369689941406,-6.052376747131348
1761400367440363800,13.13236376953125,-2.7167892456054688,-0.7244701385498047,-0.851224422454834
1761400367460550400,13.15255029296875,2.0846829414367676,1.7229561805725098,7.288280487060547
1761400367480688600,13.172688720703125,-5.1375508308410645,3.082402229309082,12.81264877319336
1761400367500876300,13.192876220703125,-7.838710784912109,7.5017242431640625,5.868346214294434
1761400367521038600,13.21303857421875,-5.5483503341674805,10.193517684936523,3.632610559463501
1761400367541196500,13.233196533203126,-2.9459657669067383,8.164373397827148,3.4394285678863525
1761400367561337300,13.25333740234375,-3.4565587043762207,8.385348320007324,5.054183006286621
1761400367581500200,13.273500244140624,-5.185815334320068,6.913330554962158,2.8348214626312256
1761400367601683500,13.293683349609376,-0.0984342098236084,7.104648590087891,5.803501605987549
1761400367621850400,13.313850341796876,0.7802271842956543,9.111038208007812,6.702685356140137
1761400367641987300,13.3339873046875,-4.69723653793335,8.33215618133545,3.2477974891662598
1761400367662136000,13.354135986328124,-6.008356094360352,7.998756408691406,5.159045696258545
1761400367682336300,13.374336181640626,-6.017094612121582,8.074749946594238,4.690369606018066
1761400367702498600,13.39449853515625,-4.067796230316162,7.316776752471924,0.12274932861328125
1761400367722635500,13.414635498046875,-4.290243148803711,5.742400646209717,0.9543881416320801
1761400367742823000,13.434822998046876,-4.143620014190674,6.82639217376709,4.347156524658203
1761400367762985500,13.4549853515625,-3.275224447250366,8.0310640335083,6.440648078918457
1761400367783147800,13.475147705078125,-3.395601749420166,8.45058822631836,6.865668296813965
1761400367803306000,13.495305908203125,-2.4478821754455566,9.314947128295898,5.036188125610352
1761400367823447800,13.51544775390625,-2.5993504524230957,8.980783462524414,2.879483461380005
1761400367843634200,13.53563427734375,-4.261081695556641,8.23019790649414,2.9767050743103027
1761400367863792000,13.555792236328125,-5.370124816894531,6.842324256896973,3.195106029510498
1761400367883959000,13.575958984375,-5.5430474281311035,6.032291412353516,1.2609705924987793
1761400367904120800,13.596120849609376,-5.9172563552856445,5.476570129394531,-2.0317554473876953
1761400367924280600,13.616280517578126,4.39077615737915,1.4645576477050781,-6.990562438964844
1761400367944442600,13.636442626953125,14.033733367919922,-7.840585708618164,-4.156493663787842
1761400367964608500,13.6566083984375,3.7270021438598633,-17.521217346191406,-5.8981122970581055
1761400367984746500,13.67674658203125,11.046669006347656,-23.551258087158203,-20.84830093383789
1761400368004917800,13.696917724609374,4.044626235961914,-14.468681335449219,-18.64818572998047
1761400368025069300,13.7170693359375,7.208827972412109,-16.08604621887207,-19.531402587890625
1761400368045257000,13.737257080078125,11.517984390258789,-18.462661743164062,-20.069047927856445
1761400368065418800,13.757418701171876,12.756644248962402,-18.359310150146484,-17.56354331970215
1761400368085581600,13.77758154296875,11.12628173828125,-11.567817687988281,-13.088141441345215
1761400368105743400,13.797743408203125,4.688323974609375,-7.9437785148620605,-6.523186206817627
1761400368125862100,13.817862060546876,-0.3325979709625244,-1.7279486656188965,-4.11014461517334
1761400368146068000,13.83806787109375,-5.857814788818359,-0.9784832000732422,-3.2131505012512207
1761400368166226200,13.85822607421875,-4.223862171173096,0.15922832489013672,2.3895981311798096
1761400368186393300,13.878393310546874,-0.7192573547363281,2.4954748153686523,4.297475814819336
1761400368206554400,13.898554443359375,-3.496736526489258,2.8146681785583496,3.007131338119507
1761400368226692000,13.918692138671876,-6.318314552307129,8.809000968933105,4.38964319229126
1761400368246878700,13.938878662109374,-1.8372974395751953,11.169045448303223,3.704408884048462
1761400368267041500,13.95904150390625,3.1726510524749756,10.404276847839355,4.940990924835205
1761400368287192800,13.97919287109375,2.5434763431549072,6.449239253997803,7.468564987182617
1761400368307365400,13.999365478515625,-2.914175510406494,4.54941987991333,10.27113151550293
1761400368327501000,14.0195009765625,-4.015240669250488,5.718710899353027,9.656240463256836
1761400368347690200,14.039690185546876,-3.0836615562438965,8.014975547790527,5.7751665115356445
1761400368367852300,14.059852294921875,-2.2989232540130615,7.34152364730835,-0.8339149951934814
1761400368388018700,14.080018798828124,-3.63501238822937,8.791276931762695,-0.3633427619934082
1761400368408151800,14.10015185546875,-3.6893668174743652,9.982666969299316,2.8508400917053223
1761400368428339200,14.120339111328125,-3.0446033477783203,10.901605606079102,2.8447866439819336
1761400368448490000,14.140489990234375,-2.54075026512146,11.19018268585205,1.695818305015564
1761400368468664300,14.160664306640625,-1.851630449295044,10.366480827331543,0.6097102165222168
1761400368488825900,14.180825927734375,-1.6034879684448242,9.677226066589355,0.3069577217102051
1761400368508988200,14.20098828125,-1.8745827674865723,10.339762687683105,2.0268094539642334
1761400368529150200,14.221150146484375,-3.6005325317382812,10.252667427062988,4.154373645782471
1761400368549312500,14.2413125,-4.609620094299316,9.04888916015625,4.794622421264648
1761400368569475000,14.26147509765625,-3.863203525543213,8.122674942016602,3.713576078414917
1761400368589622300,14.281622314453125,-2.9086949825286865,7.0168352127075195,2.0465192794799805
1761400368609774000,14.301774169921876,3.4559473991394043,2.775782585144043,-1.5806736946105957
1761400368629940000,14.32193994140625,21.330331802368164,-7.301020622253418,-7.22482967376709
1761400368650123800,14.342123779296875,-12.798006057739258,-10.849102020263672,-6.206618785858154
1761400368670286300,14.362286376953126,6.812488555908203,-14.950122833251953,-16.180795669555664
1761400368690423600,14.382423583984375,2.664994716644287,-14.586970329284668,-14.066405296325684
1761400368710611000,14.40261083984375,3.2047038078308105,-19.996240615844727,-17.043745040893555
1761400368730772700,14.422772705078126,7.448060989379883,-21.507421493530273,-14.196022033691406
1761400368750935600,14.442935546875,10.893147468566895,-22.081649780273438,-16.662654876708984
1761400368771097000,14.46309716796875,8.639371871948242,-20.846845626831055,-13.823995590209961
1761400368791259400,14.48325927734375,6.04298210144043,-12.53056526184082,-6.917193412780762
1761400368811422200,14.503422119140625,1.5362458229064941,-7.283095359802246,-7.950977802276611
1761400368831583700,14.523583740234375,1.2455286979675293,-4.638697624206543,-12.61143684387207
1761400368851747000,14.5437470703125,-4.067286014556885,-1.5788683891296387,-3.1039481163024902
1761400368871908900,14.563908935546875,-2.447902202606201,1.7617039680480957,7.594595909118652
1761400368892070700,14.584070556640626,-3.2516658306121826,-0.09079933166503906,9.087505340576172
1761400368912233000,14.60423291015625,-6.055887222290039,4.750885963439941,10.613053321838379
1761400368932395300,14.624395263671875,-0.7168755531311035,10.837360382080078,4.271100044250488
1761400368952553500,14.644553466796875,-2.3586084842681885,10.29270076751709,3.746800184249878
1761400368972719900,14.664719970703125,-4.764815330505371,6.864030838012695,8.993309020996094
1761400368992856800,14.68485693359375,0.20625805854797363,7.271589756011963,6.57466983795166
1761400369013039000,14.7050390625,0.12351322174072266,5.454685211181641,3.973209857940674
1761400369033207000,14.72520703125,-6.7668328285217285,9.532488822937012,2.458116054534912
1761400369050823200,14.7428232421875,-9.794916152954102,2.4344615936279297,-1.5010499954223633
1761400369071010800,14.7630107421875,-6.584137439727783,4.569868087768555,1.5278911590576172
1761400369091177000,14.783177001953124,-6.35206413269043,6.958963871002197,5.000659465789795
1761400369111335400,14.80333544921875,-8.174261093139648,8.232341766357422,4.226079940795898
1761400369131485700,14.823485595703126,-6.260863304138184,7.989372253417969,2.745755195617676
1761400369151659300,14.8436591796875,-4.75821590423584,7.274362564086914,3.3040049076080322
1761400369171821800,14.86382177734375,-4.242433547973633,7.525959014892578,5.187914848327637
1761400369191984000,14.883984130859375,-4.276643753051758,8.247820854187012,6.833796501159668
1761400369212147200,14.904147216796876,-5.421162128448486,8.499972343444824,6.959053039550781
1761400369232309200,14.924309326171874,-4.937067031860352,7.450801372528076,5.732054710388184
1761400369252471000,14.944470947265625,-3.0548269748687744,7.751556396484375,3.5924973487854004
1761400369272631600,14.964631591796875,-1.746579885482788,7.992074489593506,1.187452793121338
1761400369292795400,14.98479541015625,-1.139139175415039,7.7024407386779785,0.30750203132629395
1761400369312945000,15.00494482421875,-3.4591939449310303,5.064815521240234,-0.7071707248687744
1761400369333118200,15.0251181640625,11.005571365356445,-7.593358993530273,-15.044151306152344
1761400369353285400,15.045285400390625,18.9025821685791,-23.0823974609375,-3.044452428817749
1761400369373444400,15.0654443359375,-13.311838150024414,-11.005104064941406,-6.94030237197876
1761400369393606400,15.0856064453125,13.953042030334473,-15.377893447875977,-18.90589714050293
1761400369413769200,15.105769287109375,-2.735780954360962,-13.338460922241211,-6.927511215209961
1761400369433944800,15.12594482421875,3.1988720893859863,-7.949765205383301,-4.528602123260498
1761400369454093000,15.146093017578124,4.451416969299316,-5.510119915008545,-5.904819488525391
1761400369474255400,15.16625537109375,7.550104141235352,-9.073049545288086,-11.989757537841797
1761400369494418000,15.18641796875,2.519888401031494,-9.970930099487305,-11.644172668457031
1761400369514577200,15.2065771484375,2.062368869781494,-6.379207611083984,-3.373194694519043
1761400369534742300,15.2267421875,0.7421140670776367,-4.758730411529541,-0.3956441879272461
1761400369554891800,15.246891845703125,0.02920246124267578,-3.930492401123047,0.12612295150756836
1761400369575052800,15.267052734375,-1.0746288299560547,-2.2797021865844727,-0.3692350387573242
1761400369595227000,15.287226806640625,-1.9358012676239014,1.4419665336608887,0.08971595764160156
1761400369615366100,15.3073662109375,-1.9277470111846924,3.842904567718506,1.2767822742462158
1761400369635526000,15.32752587890625,-1.570331335067749,5.237319469451904,1.5287282466888428
1761400369655690000,15.34768994140625,-1.2811288833618164,6.498241424560547,2.417747735977173
1761400369675878100,15.367878173828124,-1.815366268157959,7.13935661315918,3.223400115966797
1761400369696027600,15.388027587890624,-1.6955724954605103,7.406730651855469,3.6627655029296875
1761400369716198100,15.4081982421875,-0.3766007423400879,5.405231475830078,2.7345001697540283
1761400369736364800,15.42836474609375,1.189054250717163,4.245135307312012,0.5186140537261963
1761400369756527400,15.44852734375,0.43343019485473633,2.660417079925537,-1.1819570064544678
1761400369776697000,15.468697021484376,-0.8852643966674805,-0.6273918151855469,-4.630238056182861
1761400369796852000,15.48885205078125,-0.028172016143798828,-0.3045787811279297,-4.082616806030273
1761400369817003800,15.509003662109375,-1.5185657739639282,-2.7375869750976562,-5.081149101257324
1761400369837173800,15.529173828125,-1.6530381441116333,-1.5531196594238281,-3.1213114261627197
1761400369857326000,15.549326171875,-1.6448044776916504,-0.4305143356323242,-1.463346004486084
1761400369877500700,15.569500732421876,-1.8577485084533691,0.043395042419433594,0.34038281440734863
1761400369897663200,15.589663330078125,-1.808968186378479,-0.012642860412597656,0.5542271137237549
1761400369917825500,15.609825439453125,-1.5731220245361328,-0.4034595489501953,-0.5811505317687988
1761400369937987600,15.629987548828124,-1.3119099140167236,0.7295999526977539,-0.36898326873779297
1761400369958137900,15.650137939453124,-0.9067859649658203,1.2597332000732422,-0.28470754623413086
1761400369978306300,15.670306396484374,-0.6052207946777344,1.457228183746338,-1.1139247417449951
1761400369998474000,15.690473876953124,-0.6908508539199829,1.616511344909668,-1.3098716735839844
1761400370018636300,15.71063623046875,-0.3644521236419678,0.6276473999023438,-1.203317403793335
1761400370038785800,15.730785888671875,0.1571950912475586,0.03122425079345703,-1.4063193798065186
1761400370058957000,15.75095703125,0.4899303913116455,-0.06208515167236328,-1.5432627201080322
1761400370079123200,15.771123291015625,0.3629295825958252,-0.4256410598754883,-1.407608985900879
1761400370099258400,15.79125830078125,-0.14212274551391602,-0.07337570190429688,-1.2483956813812256
1761400370119447800,15.81144775390625,-0.5984721183776855,0.6523561477661133,-0.9666612148284912
1761400370139610000,15.831610107421875,-0.5244491100311279,0.672393798828125,-0.930161714553833
1761400370159769600,15.85176953125,-0.4883284568786621,0.7047348022460938,-0.9046435356140137
1761400370179934500,15.8719345703125,-0.5073766708374023,0.6234903335571289,-0.9088935852050781
1761400370200097300,15.89209716796875,-0.4523118734359741,0.4235725402832031,-0.9026992321014404
1761400370220258600,15.912258544921874,-0.2043137550354004,0.137786865234375,-0.7697434425354004
1761400370240405500,15.932405517578125,-0.18459773063659668,0.03143787384033203,-0.525794506072998
1761400370260581000,15.9525810546875,-0.2763640880584717,-0.0005846023559570312,-0.4344010353088379
1761400370280735000,15.97273486328125,-0.2983546257019043,0.07042121887207031,-0.5776097774505615
1761400370300908000,15.992907958984375,-0.38123655319213867,0.4085674285888672,-0.5953629016876221
1761400370321057800,16.013057861328125,-0.3864130973815918,0.47484683990478516,-0.6680808067321777
1761400370341220900,16.033220947265626,-0.16643524169921875,0.20638084411621094,-0.7891528606414795
1761400370361369000,16.053369140625,-0.07063865661621094,0.17626190185546875,-0.9152798652648926
1761400370381557000,16.073556884765626,-0.29929614067077637,0.3135261535644531,-0.7412188053131104
1761400370401719300,16.09371923828125,-0.426175594329834,0.27608489990234375,-0.6062135696411133
1761400370421879800,16.1138798828125,-0.43474340438842773,0.2545785903930664,-0.6378281116485596
1761400370442043400,16.13404345703125,-0.4144730567932129,0.25154781341552734,-0.6410212516784668
1761400370462213600,16.154213623046875,-0.39403390884399414,0.23952770233154297,-0.6743893623352051
1761400370482343000,16.174343017578124,-0.4737880229949951,0.27807044982910156,-0.6435785293579102
1761400370502518300,16.194518310546876,-0.48549723625183105,0.2161731719970703,-0.6507754325866699
1761400370522692600,16.214692626953124,-0.44316983222961426,0.15872573852539062,-0.6169893741607666
1761400370542855000,16.23485498046875,-0.372816801071167,0.17827987670898438,-0.5005977153778076
1761400370563017200,16.255017333984377,-0.3787424564361572,0.15642642974853516,-0.5119311809539795
1761400370583162600,16.27516259765625,-0.4595777988433838,0.1462383270263672,-0.6507978439331055
1761400370603342000,16.295342041015626,-0.524799108505249,0.1742544174194336,-0.6547927856445312
1761400370623503400,16.31550341796875,-0.46882176399230957,0.21287155151367188,-0.5382585525512695
1761400370643666000,16.335666015625,-0.4373633861541748,0.2268962860107422,-0.4794902801513672
1761400370663828200,16.355828125,-0.4195520877838135,0.2532997131347656,-0.5581235885620117
1761400370683987200,16.3759873046875,-0.4176449775695801,0.2364177703857422,-0.6973555088043213
1761400370704127200,16.396127197265624,-0.6137263774871826,0.16109752655029297,-0.837702751159668
1761400370724303400,16.416303466796876,-0.23782634735107422,-0.03926658630371094,-0.32491230964660645
1761400370744477400,16.4364775390625,-0.023312091827392578,0.09655284881591797,-0.5169599056243896
1761400370764639200,16.45663916015625,-0.1581587791442871,0.07979297637939453,-0.5086331367492676
