time,seconds_elapsed,z,y,x
1761400354420588500,0.112588623046875,1.3037176132202148,-8.865280151367188,-3.8872857093811035
1761400354430669000,0.1226689453125,1.2713959217071533,-8.861838340759277,-3.8961892127990723
1761400354440750600,0.13275048828125,1.2447603940963745,-8.915932655334473,-3.8384289741516113
1761400354450857700,0.142857666015625,1.2140847444534302,-8.917952537536621,-3.9460933208465576
1761400354460938000,0.15293798828125,1.2751368284225464,-8.891092300415039,-3.9211037158966064
1761400354471020000,0.16302001953125,1.3596820831298828,-8.852785110473633,-3.9069631099700928
1761400354481097200,0.17309716796875,1.3372365236282349,-8.77040958404541,-3.926640510559082
1761400354491182300,0.183182373046875,1.287631630897522,-8.705018043518066,-3.922675132751465
1761400354501262300,0.193262451171875,1.287631630897522,-8.75649356842041,-4.044929027557373
1761400354511343600,0.203343505859375,1.3260884284973145,-8.81043815612793,-3.8454620838165283
1761400354521425700,0.21342578125,1.3533973693847656,-8.871489524841309,-3.7490954399108887
1761400354531506700,0.223506591796875,1.4052467346191406,-8.830713272094727,-3.966219663619995
1761400354541588000,0.233587890625,1.3582605123519897,-8.847622871398926,-4.070741653442383
1761400354551665000,0.243664794921875,1.3286323547363281,-8.765097618103027,-4.017620086669922
1761400354561750000,0.25375,1.4074913263320923,-8.837447166442871,-4.012308120727539
1761400354571831000,0.2638310546875,1.2713959217071533,-8.519392967224121,-4.386102676391602
1761400354581912600,0.27391259765625,1.2794015407562256,-8.776021003723145,-4.429422855377197
1761400354591992600,0.28399267578125,1.3448679447174072,-8.67015266418457,-4.383184909820557
1761400354602094800,0.2940947265625,1.370381236076355,-8.62204360961914,-4.3406877517700195
1761400354612151300,0.3041513671875,1.470563530921936,-8.746916770935059,-4.041562080383301
1761400354622237000,0.31423681640625,1.5502456426620483,-8.53757381439209,-3.9087586402893066
1761400354632318200,0.324318115234375,1.4340519905090332,-8.599373817443848,-3.99188232421875
1761400354642398700,0.334398681640625,1.386616826057434,-8.842385292053223,-4.143839359283447
1761400354652479700,0.344479736328125,1.3937246799468994,-8.947805404663086,-4.262277603149414
1761400354662560800,0.354560791015625,1.4209587574005127,-8.9256591796875,-4.149825096130371
1761400354672641800,0.364641845703125,1.4294131994247437,-8.697835922241211,-4.107626914978027
1761400354682719200,0.37471923828125,1.4926351308822632,-8.158990859985352,-3.997194528579712
1761400354692804000,0.38480419921875,1.3638719320297241,-8.596980094909668,-4.164265155792236
1761400354702886100,0.39488623046875,1.1878232955932617,-9.165003776550293,-4.013131141662598
1761400354712966400,0.40496630859375,1.26728093624115,-9.290026664733887,-3.749469518661499
1761400354723047400,0.41504736328125,1.4558991193771362,-9.130363464355469,-3.640533208847046
1761400354733128400,0.42512841796875,1.5515923500061035,-8.995314598083496,-3.6390368938446045
1761400354743197700,0.43519775390625,1.5657330751419067,-9.01431941986084,-3.7883753776550293
1761400354753291800,0.445291748046875,1.6764649152755737,-8.980875015258789,-3.790320634841919
1761400354763347200,0.45534716796875,1.7756747007369995,-9.026514053344727,-3.6781671047210693
1761400354773453800,0.465453857421875,1.849969744682312,-8.973917007446289,-3.60798716545105
1761400354783534300,0.475534423828125,2.0079870223999023,-8.912640571594238,-3.611279249191284
1761400354793607200,0.485607177734375,2.1618893146514893,-8.80744457244873,-3.725602388381958
1761400354803693300,0.495693359375,2.4000375270843506,-8.78305435180664,-3.8391025066375732
1761400354813778400,0.5057783203125,2.590975046157837,-8.80587387084961,-4.055179119110107
1761400354823860000,0.51585986328125,2.7246763706207275,-8.669329643249512,-4.17376708984375
1761400354833940200,0.525940185546875,2.8866591453552246,-8.536601066589355,-4.455010890960693
1761400354844021500,0.536021484375,3.014000654220581,-8.396615028381348,-4.697274208068848
1761400354854102300,0.546102294921875,3.067047119140625,-8.300771713256836,-4.874819278717041
1761400354864145000,0.556144775390625,2.891671895980835,-8.361226081848145,-5.12231969833374
1761400354874261000,0.566260986328125,2.570998430252075,-8.252364158630371,-5.526341438293457
1761400354884346000,0.57634619140625,2.2474820613861084,-7.900416851043701,-5.618967056274414
1761400354894427400,0.586427490234375,1.922544002532959,-7.465794086456299,-5.508833885192871
1761400354904508200,0.596508056640625,2.3107786178588867,-7.049577236175537,-4.938340187072754
1761400354914589400,0.60658935546875,2.4449288845062256,-6.470778942108154,-4.384306907653809
1761400354924670500,0.61667041015625,2.0977694988250732,-6.210259914398193,-4.095282077789307
1761400354934752000,0.626751953125,1.9052608013153076,-6.062492847442627,-4.16336727142334
1761400354944832800,0.636832763671875,1.8870798349380493,-6.2178168296813965,-4.451195240020752
1761400354954913800,0.646913818359375,1.9371336698532104,-6.123320579528809,-4.789226531982422
1761400354964995000,0.6569951171875,1.4858266115188599,-5.190778732299805,-4.6781206130981445
1761400354975076000,0.667076171875,0.7384616136550903,-4.9683427810668945,-3.9647979736328125
1761400354985157000,0.6771572265625,0.4902127981185913,-4.883273601531982,-2.458022117614746
1761400354995213300,0.68721337890625,0.12217910587787628,-4.715604782104492,-1.1482441425323486
1761400355005320700,0.69732080078125,-0.004713584668934345,-5.365406036376953,0.014739303849637508
1761400355015401200,0.707401123046875,0.5487210750579834,-4.881253719329834,1.3439701795578003
1761400355025448200,0.7174482421875,0.6988824605941772,-3.9946506023406982,1.5512930154800415
1761400355035563000,0.72756298828125,0.8203133344650269,-3.2770636081695557,1.3376106023788452
1761400355045644300,0.737644287109375,-0.14425064623355865,-3.0806641578674316,-0.3043628931045532
1761400355055725000,0.74772509765625,-0.32546180486679077,-3.056497812271118,0.05027823522686958
1761400355065806800,0.757806884765625,0.8215104341506958,-2.5593268871307373,0.577526330947876
1761400355075885000,0.767885009765625,2.4297406673431396,-2.6426749229431152,0.3521721065044403
1761400355085969700,0.7779697265625,3.660435199737549,-3.61838698387146,-1.3180828094482422
1761400355096050000,0.7880498046875,3.888108730316162,-4.12603235244751,-2.632948398590088
1761400355106087400,0.79808740234375,3.2539446353912354,-4.074033260345459,-3.815235137939453
1761400355116213000,0.808212890625,2.7993454933166504,-5.268740177154541,-5.052139759063721
1761400355126266400,0.818266357421875,3.225064516067505,-7.177742004394531,-5.566518783569336
1761400355136374800,0.828374755859375,4.469749927520752,-8.477568626403809,-5.469852924346924
1761400355146455600,0.83845556640625,5.131746768951416,-9.276185035705566,-6.174197196960449
1761400355156511500,0.848511474609375,4.278737545013428,-9.742605209350586,-7.10614013671875
1761400355166617900,0.858617919921875,4.8285813331604,-10.437971115112305,-8.9087495803833
1761400355176681200,0.86868115234375,5.713687419891357,-11.775282859802246,-10.005743026733398
1761400355186781000,0.878781005859375,5.593079566955566,-13.064335823059082,-8.698284149169922
1761400355196861200,0.888861083984375,5.401618480682373,-14.297050476074219,-7.8879218101501465
1761400355206917400,0.89891748046875,6.824821472167969,-15.582063674926758,-9.212963104248047
1761400355217024300,0.909024169921875,7.9386491775512695,-15.828741073608398,-12.197484970092773
1761400355227080000,0.919079833984375,8.589497566223145,-16.007556915283203,-15.680375099182129
1761400355237186000,0.92918603515625,9.75173282623291,-17.81667709350586,-17.775001525878906
1761400355247267300,0.939267333984375,8.903886795043945,-19.935619354248047,-19.255666732788086
1761400355257323500,0.949323486328125,9.07873821258545,-22.086959838867188,-21.395708084106445
1761400355267404500,0.959404541015625,8.746841430664062,-22.295181274414062,-22.52734375
1761400355277489000,0.969489013671875,9.526304244995117,-21.95879554748535,-20.639963150024414
1761400355287592200,0.97959228515625,11.483115196228027,-21.103242874145508,-16.52665138244629
1761400355297673700,0.989673828125,12.33836841583252,-18.983551025390625,-14.09930419921875
1761400355307729000,0.99972900390625,10.978013038635254,-18.071359634399414,-13.514968872070312
1761400355317824300,1.00982421875,8.901118278503418,-18.843265533447266,-12.950835227966309
1761400355327892200,1.019892333984375,7.542259216308594,-18.15799903869629,-10.532916069030762
1761400355337995300,1.029995361328125,5.989095687866211,-16.160037994384766,-6.858639717102051
1761400355348074200,1.04007421875,4.230479717254639,-15.404593467712402,-4.958541393280029
1761400355358134300,1.05013427734375,1.4701147079467773,-15.682245254516602,-6.0190229415893555
1761400355368240400,1.060240478515625,-0.814253032207489,-16.285959243774414,-10.510096549987793
1761400355378317800,1.07031787109375,0.16572365164756775,-14.45858383178711,-12.645949363708496
1761400355388403000,1.08040283203125,5.355978965759277,-10.058191299438477,-11.645621299743652
1761400355398484000,1.09048388671875,7.606528282165527,-9.2957124710083,-11.516484260559082
1761400355408544800,1.100544677734375,3.574094295501709,-11.245041847229004,-6.71798038482666
1761400355418646300,1.110646240234375,-5.802497386932373,-8.120832443237305,3.249380588531494
1761400355428727600,1.1207275390625,-12.515015602111816,-6.289717674255371,5.436483860015869
1761400355438783200,1.130783203125,-11.989713668823242,-5.542202949523926,4.20077657699585
1761400355448889600,1.1408896484375,-7.764471054077148,-4.460622310638428,6.101922512054443
1761400355458971000,1.150970947265625,-2.3617303371429443,-1.4800655841827393,6.2312092781066895
1761400355469052700,1.161052734375,2.8191723823547363,1.1853543519973755,3.2737715244293213
1761400355479133000,1.1711328125,6.927098751068115,1.9092261791229248,-1.7744776010513306
1761400355489182700,1.1811826171875,4.508955001831055,1.025391697883606,-4.306944370269775
1761400355499255300,1.19125537109375,-2.730886220932007,-0.4761468768119812,-1.7708863019943237
1761400355509342500,1.201342529296875,-7.30074405670166,-1.265709638595581,1.7994670867919922
1761400355519458000,1.2114580078125,-4.217386245727539,-0.7021744847297668,3.6454713344573975
1761400355529538600,1.22153857421875,1.934140920639038,-0.1082628071308136,3.7288196086883545
1761400355539594800,1.2315947265625,10.18725299835205,4.263848781585693,5.205667972564697
1761400355549700900,1.241700927734375,14.436138153076172,5.839831829071045,7.588497161865234
1761400355559782400,1.251782470703125,4.664278984069824,1.934140920639038,6.836568355560303
1761400355569840400,1.26184033203125,-6.903156757354736,1.713874340057373,2.462062358856201
1761400355579925000,1.271925048828125,-8.613065719604492,1.7068413496017456,-2.0887913703918457
1761400355590000600,1.282000732421875,-0.3866635859012604,1.1420341730117798,-4.477306842803955
1761400355600107500,1.292107421875,3.6389620304107666,-0.6976104974746704,-7.54667329788208
1761400355610163000,1.302162841796875,1.9767128229141235,0.26568156480789185,-5.654655456542969
1761400355620269000,1.31226904296875,-0.26081836223602295,2.683151960372925,-2.3287353515625
1761400355630349800,1.322349853515625,-2.586336374282837,2.793734073638916,0.8833855986595154
1761400355640407600,1.332407470703125,-2.2602012157440186,-1.276259183883667,0.0471358448266983
1761400355650477000,1.34247705078125,-0.6345382928848267,-2.5493011474609375,-1.3443442583084106
1761400355660611800,1.35261181640625,0.7695862054824829,-3.5552399158477783,-2.790217638015747
1761400355670675500,1.362675537109375,1.1956793069839478,-3.3494133949279785,-3.3813610076904297
1761400355680756500,1.372756591796875,1.5100679397583008,-2.259303331375122,-3.1965584754943848
1761400355690833200,1.382833251953125,1.8490718603134155,-1.5452327728271484,-2.476801633834839
1761400355700894500,1.39289453125,2.187178134918213,-0.8373720645904541,-1.400907278060913
1761400355710997800,1.402997802734375,2.326939582824707,0.18308161199092865,-0.36743512749671936
1761400355721081600,1.41308154296875,2.2689549922943115,1.207425832748413,0.5019593238830566
1761400355731161600,1.42316162109375,1.5122376680374146,2.789095401763916,0.3093009293079376
1761400355741242600,1.43324267578125,0.7525275349617004,4.045602321624756,0.9649381041526794
1761400355751324000,1.443323974609375,-0.010998363606631756,4.160000324249268,1.8127847909927368
1761400355761379800,1.4533798828125,-0.6638672351837158,3.7678000926971436,2.384699821472168
1761400355771462000,1.4634619140625,-0.7664438486099243,2.8447604179382324,2.0094833374023438
1761400355781542000,1.4735419921875,-0.9270049929618835,1.6834979057312012,1.4945056438446045
1761400355791623700,1.483623779296875,-1.7017537355422974,0.7962965369224548,2.5235633850097656
1761400355801704400,1.493704345703125,-2.0753986835479736,-0.3100491166114807,4.031910419464111
1761400355811811300,1.503811279296875,-2.121861219406128,-1.015440821647644,5.478981018066406
1761400355821892400,1.513892333984375,-1.9241151809692383,-2.0424036979675293,4.324003219604492
1761400355831950600,1.52395068359375,-2.2067058086395264,-3.0998177528381348,1.0990134477615356
1761400355842008300,1.53400830078125,-2.504709005355835,-3.514538526535034,-2.4565258026123047
1761400355852154600,1.544154541015625,-1.860145092010498,-4.484564304351807,-4.986149311065674
1761400355862217200,1.55421728515625,-1.4088380336761475,-7.236848831176758,-6.4304518699646
1761400355872298500,1.564298583984375,4.163217544555664,-11.945046424865723,-8.929923057556152
1761400355882359000,1.574359130859375,18.84012222290039,-17.66030502319336,-14.814496994018555
1761400355892456400,1.58445654296875,8.812158584594727,-21.65488052368164,-8.18996524810791
1761400355902541300,1.594541259765625,2.843862771987915,-26.585813522338867,-10.487127304077148
1761400355912622000,1.6046220703125,10.128670692443848,-26.838478088378906,-20.923377990722656
1761400355922703400,1.614703369140625,13.531129837036133,-27.77505874633789,-23.542409896850586
1761400355932784000,1.6247841796875,9.625588417053223,-26.695423126220703,-21.466337203979492
1761400355942866400,1.634866455078125,9.494057655334473,-27.7493953704834,-16.446369171142578
1761400355952946400,1.644946533203125,10.06118392944336,-28.388572692871094,-18.03597068786621
1761400355963023400,1.6550234375,12.52249813079834,-27.575143814086914,-21.51377296447754
1761400355973106400,1.6651064453125,12.323928833007812,-28.822446823120117,-26.74472999572754
1761400355983189800,1.675189697265625,13.116409301757812,-32.5831413269043,-28.71919822692871
1761400355993271800,1.685271728515625,14.025233268737793,-33.80044174194336,-27.572673797607422
1761400356003352000,1.69535205078125,13.616573333740234,-33.289730072021484,-24.546926498413086
1761400356013433300,1.705433349609375,12.810101509094238,-30.06032371520996,-20.68238639831543
1761400356023510800,1.7155107421875,12.663307189941406,-28.03325843811035,-20.248361587524414
1761400356033596000,1.725595947265625,9.162983894348145,-25.956214904785156,-21.244125366210938
1761400356043678200,1.73567822265625,5.586794853210449,-21.088054656982422,-17.933618545532227
1761400356053758000,1.745758056640625,3.22910475730896,-16.69544219970703,-12.057798385620117
1761400356063839000,1.7558388671875,-0.4287865459918976,-14.18557071685791,-7.410802364349365
1761400356073919500,1.76591943359375,-1.376217007637024,-10.078167915344238,-2.7067947387695312
1761400356083997400,1.77599755859375,3.2736966609954834,-4.294898509979248,1.742978811264038
1761400356094083000,1.7860830078125,5.368323802947998,-3.7639095783233643,2.8580782413482666
1761400356104163800,1.796163818359375,0.040626611560583115,-6.0330891609191895,0.5366752743721008
1761400356114244900,1.806244873046875,-9.721955299377441,-7.123348712921143,-1.3364135026931763
1761400356124326100,1.816326171875,-10.263643264770508,-8.778190612792969,-2.0259435176849365
1761400356134372600,1.82637255859375,-8.832210540771484,-4.693009376525879,-1.0357166528701782
1761400356144463600,1.836463623046875,-4.880206108093262,-0.47405192255973816,0.02446574904024601
1761400356154570200,1.8465703125,-1.9966894388198853,0.6349871754646301,0.7014262676239014
1761400356164650500,1.856650390625,3.6577415466308594,3.0811879634857178,0.7625532150268555
1761400356174731800,1.866731689453125,6.9957075119018555,5.918316841125488,1.4827589988708496
1761400356184813300,1.876813232421875,4.494964122772217,2.8611457347869873,4.15371561050415
1761400356194894600,1.88689453125,-0.864980161190033,1.3349919319152832,5.979294300079346
1761400356204974800,1.896974853515625,-4.359392166137695,2.236483573913574,7.3459343910217285
1761400356215056000,1.907055908203125,-4.0616135597229,-1.3940987586975098,6.350320816040039
1761400356225152500,1.917152587890625,0.10729016363620758,-3.1494226455688477,2.6739492416381836
1761400356235218400,1.927218505859375,3.920280933380127,-1.868973731994629,-0.7436988949775696
1761400356245299700,1.9372998046875,4.038344860076904,-0.439485639333725,-1.621847152709961
1761400356255380700,1.947380615234375,3.417872667312622,1.1301380395889282,-2.297685384750366
1761400356265461800,1.957461669921875,2.4687211513519287,0.11641805619001389,-2.0299837589263916
1761400356275543000,1.96754296875,0.7477391362190247,-2.2379801273345947,-0.4544494152069092
1761400356285624300,1.977624267578125,-1.1571476459503174,-3.6734535694122314,-0.15420155227184296
1761400356295705900,1.987705810546875,-2.7771992683410645,-1.299228549003601,-0.0363619364798069
1761400356305786400,1.997786376953125,-0.8007108569145203,1.5258547067642212,-0.4316296875476837
1761400356315867600,2.00786767578125,3.9879918098449707,1.7604864835739136,-1.7102830410003662
1761400356325948700,2.01794873046875,4.0120086669921875,0.06052841246128082,-4.336872100830078
1761400356336006100,2.028006103515625,1.1801917552947998,-0.9129390120506287,-5.89392614364624
1761400356346111700,2.03811181640625,-1.3163620233535767,-0.8489689826965332,-5.043161392211914
1761400356356192300,2.048192138671875,-1.5534628629684448,-1.4686931371688843,-3.158475875854492
1761400356366273300,2.058273193359375,-1.512611746788025,-2.664372444152832,-1.6219220161437988
1761400356376354300,2.068354248046875,-1.841215968132019,-2.3807342052459717,-0.16273090243339539
1761400356386435600,2.078435546875,-1.272144079208374,-1.5942391157150269,0.053270988166332245
1761400356396516600,2.0885166015625,-0.9093477129936218,-1.6567127704620361,0.16834230720996857
1761400356406598000,2.098597900390625,-0.7527520060539246,-0.9544634819030762,0.5297171473503113
1761400356416679000,2.108678955078125,-0.6894552707672119,0.424970805644989,0.947729766368866
1761400356426760400,2.118760498046875,-0.31700727343559265,1.2077999114990234,0.9622446298599243
1761400356436841200,2.12884130859375,0.1793406754732132,2.143334150314331,0.7077859044075012
1761400356446922200,2.138922119140625,0.9881319403648376,3.364751100540161,0.6334159970283508
1761400356457003800,2.149003662109375,1.2834417819976807,3.3425300121307373,0.08162731677293777
1761400356467084800,2.159084716796875,1.3043910264968872,2.4992473125457764,-0.425494521856308
1761400356477166000,2.169166015625,1.1869255304336548,2.543091058731079,0.17829321324825287
1761400356487246800,2.179246826171875,0.5333832502365112,3.730315923690796,1.1770493984222412
1761400356497303000,2.189302978515625,0.6568342447280884,4.9252471923828125,2.682403802871704
1761400356507409200,2.1994091796875,0.8248773217201233,4.624999046325684,4.1611223220825195
1761400356517490200,2.209490234375,0.4555716812610626,3.0218565464019775,5.51893424987793
1761400356527546000,2.219546142578125,0.765920102596283,2.172438859939575,6.4293293952941895
1761400356537652200,2.22965234375,1.2248586416244507,0.8068459630012512,3.646369218826294
1761400356547709000,2.239708984375,-0.9597007632255554,-0.5751321315765381,-1.3140426874160767
1761400356557814800,2.249814697265625,-1.571419358253479,-1.9050363302230835,-5.569960594177246
1761400356567871000,2.25987109375,1.170240879058838,-4.216114521026611,-7.971344947814941
1761400356577980400,2.26998046875,-0.6734440326690674,-6.995782375335693,-9.706317901611328
1761400356588033300,2.280033203125,-1.0051906108856201,-11.066972732543945,-11.02320384979248
1761400356598136000,2.290135986328125,36.315250396728516,-19.43620491027832,-14.181679725646973
1761400356608219400,2.300219482421875,10.634520530700684,-19.98686981201172,10.734703063964844
1761400356618302200,2.31030224609375,-20.73079490661621,-19.02200698852539,9.949628829956055
1761400356628383000,2.320383056640625,-8.412626266479492,-22.406435012817383,3.3825581073760986
1761400356638438700,2.330438720703125,38.81614303588867,-28.673259735107422,-15.107337951660156
1761400356648531500,2.340531494140625,25.22927474975586,-32.85196304321289,-30.20479965209961
1761400356658622700,2.350622802734375,-9.994071006774902,-23.857696533203125,-41.67340087890625
1761400356668707300,2.360707275390625,16.634538650512695,-25.455974578857422,-43.996376037597656
1761400356678788400,2.370788330078125,18.472013473510742,-23.10980796813965,-26.606464385986328
1761400356688869600,2.38086962890625,-4.028468608856201,-23.25098991394043,-15.80060863494873
1761400356698951200,2.390951171875,10.841020584106445,-31.894805908203125,-15.04980182647705
1761400356709032200,2.4010322265625,11.130044937133789,-34.123958587646484,-15.348479270935059
1761400356719108900,2.41110888671875,7.126491069793701,-33.956363677978516,-13.983859062194824
1761400356729194200,2.4211943359375,12.812196731567383,-32.52036666870117,-14.191705703735352
1761400356739275300,2.431275146484375,13.52694034576416,-30.21445083618164,-14.531831741333008
1761400356749356300,2.441356201171875,11.109918594360352,-27.370588302612305,-14.316577911376953
1761400356759438300,2.451438232421875,13.681665420532227,-25.9553165435791,-19.960458755493164
1761400356769536300,2.461536376953125,13.121796607971191,-22.460155487060547,-24.502708435058594
1761400356779575000,2.471574951171875,7.5004353523254395,-16.72484588623047,-20.7034854888916
1761400356789676300,2.48167626953125,2.3278374671936035,-11.782914161682129,-15.24747371673584
1761400356799762400,2.491762451171875,0.9423428177833557,-6.278345108032227,-10.797625541687012
1761400356809818400,2.501818359375,4.939013481140137,-7.389554023742676,-13.602657318115234
1761400356819899600,2.511899658203125,7.179986476898193,-11.665523529052734,-7.065962791442871
1761400356830006300,2.52200634765625,5.667374610900879,-13.74234390258789,2.7350761890411377
1761400356840086800,2.532086669921875,1.507598876953125,-12.249334335327148,4.941707134246826
1761400356850163700,2.542163818359375,-3.600804567337036,-11.33422565460205,-0.8708160519599915
1761400356860249600,2.55224951171875,-4.608987808227539,-7.6006927490234375,-1.9284546375274658
1761400356870330600,2.56233056640625,-5.964031219482422,-3.015871047973633,-1.7545009851455688
1761400356880412000,2.572411865234375,-5.169979095458984,0.9508721828460693,-1.6252140998840332
1761400356890492400,2.582492431640625,-4.23541784286499,7.002516269683838,0.21884499490261078
1761400356900573400,2.592573486328125,-0.3405751883983612,10.211420059204102,1.471985101699829
1761400356910654500,2.602654541015625,1.1981483697891235,6.453346252441406,4.348319053649902
1761400356920732000,2.61273193359375,1.4159458875656128,2.561122417449951,8.492756843566895
1761400356930816800,2.622816650390625,-2.1820902824401855,0.7108534574508667,9.65379524230957
1761400356940873200,2.632873291015625,-3.119046211242676,0.3769371211528778,8.614562034606934
1761400356950979800,2.642979736328125,-1.6187796592712402,-2.918307304382324,5.396605491638184
1761400356961060400,2.653060302734375,-0.5936123728752136,-7.032144546508789,2.4952070713043213
1761400356971141000,2.66314111328125,1.3439701795578003,-5.161001205444336,1.4328548908233643
1761400356981218600,2.673218505859375,4.933701515197754,-1.862239956855774,-0.06397007405757904
1761400356991303400,2.683303466796875,7.333065509796143,-1.3073089122772217,-0.5334580540657043
1761400357001360100,2.693360107421875,5.934402942657471,-2.165555477142334,2.6099791526794434
1761400357011441400,2.70344140625,0.31528642773628235,-1.0330979824066162,5.099948883056641
1761400357021522000,2.71352197265625,-1.100285291671753,0.10975918173789978,2.5534160137176514
1761400357031628300,2.723628173828125,0.25094226002693176,0.8222586512565613,-1.381678819656372
1761400357041705000,2.733705078125,1.102829098701477,1.1358990669250488,-5.275847911834717
1761400357051790800,2.743790771484375,0.38554129004478455,0.9419687390327454,-10.713080406188965
1761400357061872400,2.753872314453125,0.020350715145468712,0.018779519945383072,-12.996849060058594
1761400357071953400,2.763953369140625,-1.2110919952392578,0.6262333989143372,-9.708039283752441
1761400357082034000,2.774033935546875,-1.7182137966156006,-0.2784755825996399,-7.096638202667236
1761400357092114700,2.78411474609375,-0.9305214285850525,-1.9464111328125,-4.163292407989502
1761400357102171400,2.79417138671875,-0.10212766379117966,-1.9378818273544312,-1.5512182712554932
1761400357112273700,2.804273681640625,0.7567921876907349,-0.7880664467811584,0.6296002268791199
1761400357122358500,2.814358642578125,1.5656583309173584,0.7347954511642456,2.2702269554138184
1761400357132439300,2.824439208984375,1.8847604990005493,1.9498528242111206,3.367893695831299
1761400357142521300,2.834521240234375,1.277381420135498,2.75348162651062,4.065953254699707
1761400357152601900,2.844601806640625,-0.2537853717803955,3.849128246307373,4.100968360900879
1761400357162684000,2.854683837890625,-0.057311203330755234,4.55691385269165,3.4739866256713867
1761400357172760300,2.86476025390625,1.9853169918060303,5.085883140563965,2.4827871322631836
1761400357182846000,2.874845947265625,2.040757656097412,4.854318618774414,1.3998597860336304
1761400357192901600,2.884901611328125,-0.6555623412132263,3.806556224822998,0.7818564772605896
1761400357202982700,2.894982666015625,-2.882244825363159,0.9680056571960449,0.441430926322937
1761400357213088500,2.905088623046875,-2.854262590408325,1.1152490377426147,2.384026288986206
1761400357223170300,2.91517041015625,-1.0247931480407715,2.6254665851593018,5.095609188079834
1761400357233250600,2.92525048828125,-0.39369654655456543,1.0712555646896362,6.485518455505371
1761400357243329000,2.9353291015625,-1.7128268480300903,-2.133607864379883,5.811550617218018
1761400357253387800,2.9453876953125,-4.30327844619751,-2.474856376647949,4.0592942237854
1761400357263495000,2.955494873046875,-6.511330604553223,-2.4017584323883057,0.11828852444887161
1761400357273575400,2.965575439453125,-7.201384544372559,-3.9421279430389404,-3.9584383964538574
1761400357283631900,2.9756318359375,-4.776133060455322,-8.00336742401123,-6.671667575836182
1761400357293727500,2.9857275390625,6.157886981964111,-12.162693977355957,-10.132186889648438
1761400357303815000,2.99581494140625,8.970624923706055,-11.129371643066406,-12.898462295532227
1761400357313900000,3.005900146484375,19.714454650878906,-12.187758445739746,-16.857275009155273
1761400357323981600,3.015981689453125,9.112930297851562,-17.233388900756836,-2.7457003593444824
1761400357334063000,3.02606298828125,-10.084752082824707,-19.539453506469727,4.960262298583984
1761400357344143000,3.03614306640625,-4.864793300628662,-17.680879592895508,1.6391303539276123
1761400357354224400,3.046224365234375,15.519365310668945,-17.50408363342285,-12.274847984313965
1761400357364307500,3.056307373046875,22.107908248901367,-23.933937072753906,-26.502391815185547
1761400357374387000,3.066386962890625,7.307926654815674,-22.644733428955078,-24.49432945251465
1761400357384468500,3.076468505859375,5.76329231262207,-22.88228416442871,-22.56864356994629
1761400357394549800,3.0865498046875,14.3679780960083,-26.594120025634766,-24.864683151245117
1761400357404605000,3.09660498046875,8.358906745910645,-29.360244750976562,-24.30608558654785
1761400357414687700,3.106687744140625,10.827253341674805,-34.75221252441406,-27.26165199279785
1761400357424793000,3.11679296875,10.309432983398438,-37.881134033203125,-28.20062828063965
1761400357434874000,3.1268740234375,8.119561195373535,-37.39301681518555,-25.036766052246094
1761400357444956000,3.136955810546875,8.196175575256348,-33.09325408935547,-19.639936447143555
1761400357455035600,3.14703564453125,11.786130905151367,-29.609840393066406,-16.143503189086914
1761400357465117000,3.157116943359375,12.611831665039062,-25.228302001953125,-12.410194396972656
1761400357475198200,3.1671982421875,11.066898345947266,-21.6679744720459,-10.588356971740723
1761400357485279000,3.177279052734375,7.024662494659424,-22.070274353027344,-13.03403377532959
1761400357495360800,3.18736083984375,4.201225280761719,-22.498537063598633,-14.392892837524414
1761400357505441500,3.197441650390625,2.235585927963257,-18.748394012451172,-12.135235786437988
1761400357515522000,3.20752197265625,0.8318354487419128,-11.078420639038086,-10.632499694824219
1761400357525603600,3.217603515625,3.4310407638549805,-8.061351776123047,-12.037148475646973
1761400357535684900,3.227684814453125,6.658723831176758,-9.122133255004883,-10.833837509155273
1761400357545766000,3.237765869140625,4.874220371246338,-9.430760383605957,-4.302455425262451
1761400357555829000,3.2478291015625,1.357512354850769,-6.691344738006592,1.6110732555389404
1761400357565928200,3.25792822265625,-1.667785882949829,-4.012457370758057,4.168903827667236
1761400357575984600,3.267984619140625,-2.6495583057403564,-2.974496364593506,4.971933841705322
1761400357586066400,3.27806640625,-2.560748338699341,-2.141688346862793,4.3138275146484375
1761400357596172000,3.288172119140625,-4.47902774810791,-0.3693056106567383,6.056656837463379
1761400357606253000,3.298253173828125,-5.828683853149414,2.603843927383423,4.249109268188477
1761400357616334600,3.30833447265625,0.7856722474098206,4.24357271194458,-1.4509609937667847
1761400357626414800,3.318414794921875,2.1840357780456543,4.149974346160889,-5.672088146209717
1761400357636496100,3.32849609375,-1.230245590209961,4.020089149475098,-2.89339280128479
1761400357646552600,3.338552490234375,-3.5110220909118652,3.3131263256073,-0.17380407452583313
1761400357656635000,3.348634765625,-4.382735729217529,0.5730372071266174,1.2000187635421753
1761400357666714000,3.358714111328125,-2.672976493835449,-2.628833532333374,1.593864917755127
1761400357676796000,3.3687958984375,0.9137620329856873,-5.84843635559082,1.2053309679031372
1761400357686877000,3.378876953125,2.2065560817718506,-5.830255031585693,2.0055928230285645
1761400357696958200,3.388958251953125,1.54171621799469,-2.7002105712890625,4.334926605224609
1761400357707028700,3.39902880859375,2.61087703704834,1.6944962739944458,5.122918128967285
1761400357717111000,3.409111083984375,3.0208091735839844,3.8686559200286865,6.751648902893066
1761400357727210500,3.41921044921875,0.9106196761131287,2.68487286567688,7.232733726501465
1761400357737291800,3.429291748046875,-1.9311481714248657,1.4258967638015747,5.036278247833252
1761400357747414800,3.439414794921875,-0.08806172758340836,-0.041524436324834824,1.3524247407913208
1761400357757469700,3.4494697265625,4.141071319580078,-1.1400140523910522,-1.0996119976043701
1761400357767551700,3.4595517578125,2.5668087005615234,-2.225560188293457,-2.308983087539673
1761400357777632500,3.469632568359375,-0.058807577937841415,-1.7029508352279663,-5.068899154663086
1761400357787688200,3.479688232421875,-1.191788673400879,-1.3230209350585938,-9.200617790222168
1761400357797795000,3.489795166015625,-0.568772554397583,-2.5381531715393066,-10.949806213378906
1761400357807832300,3.499832275390625,-0.8046762347221375,-3.086275577545166,-8.375965118408203
1761400357817957600,3.50995751953125,-0.4008791446685791,-0.1753004491329193,-4.154314041137695
1761400357828022000,3.52002197265625,0.628627598285675,-1.1030535697937012,-3.075277328491211
1761400357838115300,3.530115234375,1.1124060153961182,-2.2409727573394775,-2.673126220703125
1761400357848175600,3.540175537109375,1.2818706035614014,-2.1779754161834717,-1.34090256690979
1761400357858281200,3.55028125,1.1968015432357788,-1.7996914386749268,-0.03972878307104111
1761400357868362500,3.560362548828125,0.6715735793113708,-1.6593314409255981,0.6894552707672119
1761400357878440000,3.57043994140625,0.41516953706741333,-1.511339783668518,1.277156949043274
1761400357888499700,3.580499755859375,-0.5368249416351318,-0.5074211359024048,2.148047924041748
1761400357898606300,3.5906064453125,-1.213635802268982,1.8100165128707886,2.7819128036499023
1761400357908687000,3.60068701171875,-0.2651578485965729,4.962207317352295,3.0924856662750244
1761400357918768600,3.6107685546875,0.3586065173149109,6.590339660644531,3.1791257858276367
1761400357928850200,3.62085009765625,0.15644611418247223,6.756287574768066,3.803713083267212
1761400357938926800,3.6309267578125,-0.28633156418800354,5.835193157196045,5.116783142089844
1761400357948984000,3.640984130859375,0.27817630767822266,4.113912105560303,6.757858753204346
1761400357959092500,3.651092529296875,0.47075989842414856,1.7250971794128418,7.605031967163086
1761400357969174500,3.661174560546875,-1.509020447731018,-1.4612860679626465,6.329296588897705
1761400357979230000,3.67122998046875,-2.972625970840454,-2.7935097217559814,3.9083099365234375
1761400357989310500,3.681310546875,-3.501295566558838,-1.297806978225708,0.7720552086830139
1761400357999396600,3.691396728515625,-2.476651906967163,-1.1290905475616455,-3.821146011352539
1761400358009494800,3.701494873046875,-0.08634089678525925,-3.382333517074585,-8.38224983215332
1761400358019558100,3.71155810546875,6.206369400024414,-6.63283634185791,-13.228487968444824
1761400358029643300,3.721643310546875,15.64723014831543,-11.15540885925293,-20.252777099609375
1761400358039716900,3.731716796875,10.290204048156738,-16.880094528198242,-15.874829292297363
1761400358049811500,3.7418115234375,8.274959564208984,-25.58234405517578,-4.831124782562256
1761400358059908400,3.751908447265625,-7.885752201080322,-25.280973434448242,-0.20635025203227997
1761400358069980700,3.761980712890625,8.455572128295898,-25.254188537597656,-7.3459343910217285
1761400358080042000,3.7720419921875,28.037748336791992,-25.005043029785156,-22.978126525878906
1761400358090147800,3.78214794921875,6.8920087814331055,-25.626712799072266,-26.261699676513672
1761400358100228900,3.792228759765625,-0.2024596780538559,-29.778182983398438,-25.54276466369629
1761400358110301700,3.8023017578125,8.323143005371094,-29.494171142578125,-19.950359344482422
1761400358120391200,3.81239111328125,10.709488868713379,-26.728418350219727,-18.194137573242188
1761400358130468000,3.822468017578125,10.878504753112793,-25.866580963134766,-18.811391830444336
1761400358140553500,3.832553466796875,13.479655265808105,-29.046977996826172,-21.23552131652832
1761400358150634000,3.842634033203125,13.247491836547852,-31.069555282592773,-23.89787483215332
1761400358160715300,3.85271533203125,8.833332061767578,-30.15654182434082,-25.108741760253906
1761400358170796800,3.862796875,8.042497634887695,-29.69588279724121,-25.332674026489258
1761400358180877300,3.872877197265625,9.588627815246582,-29.672239303588867,-19.294198989868164
1761400358190959400,3.88295947265625,9.754127502441406,-29.489532470703125,-15.323189735412598
1761400358201036500,3.89303662109375,9.062128067016602,-23.865177154541016,-12.348544120788574
1761400358211101700,3.903101806640625,6.856095790863037,-17.239524841308594,-9.61556339263916
1761400358221202700,3.91320263671875,3.844938278198242,-13.196989059448242,-8.929100036621094
1761400358231283700,3.92328369140625,2.4815900325775146,-9.598130226135254,-8.312294006347656
1761400358241324000,3.933323974609375,3.509450674057007,-7.398532390594482,-6.600963592529297
1761400358251445200,3.9434453125,4.735431671142578,-6.464868545532227,-5.937620162963867
1761400358261521200,3.953521240234375,5.343259811401367,-6.501230239868164,-6.878840923309326
1761400358271608300,3.9636083984375,4.239682197570801,-6.662988662719727,-5.570708751678467
1761400358281682700,3.9736826171875,1.4137012958526611,-6.657601356506348,-1.2846388816833496
1761400358291745000,3.9837451171875,-3.1699230670928955,-6.448632717132568,2.191891670227051
1761400358301852200,3.99385205078125,-7.317802906036377,-7.534477710723877,5.483395099639893
1761400358311907800,4.003907958984375,-7.380575656890869,-6.963610649108887,6.723666667938232
1761400358322009900,4.014009765625,-6.257246017456055,-4.180575370788574,5.066878795623779
1761400358332094200,4.02409423828125,-1.2426655292510986,-0.9900023937225342,0.8383446931838989
1761400358342176000,4.034176025390625,5.796586990356445,2.774505615234375,-2.8896517753601074
1761400358352256500,4.044256591796875,6.966378688812256,5.259462356567383,-5.75985050201416
1761400358362312700,4.054312744140625,0.15644611418247223,4.229506969451904,-2.9509284496307373
1761400358372419800,4.064419921875,-4.742015838623047,1.549497365951538,2.2679824829101562
1761400358382500400,4.074500244140625,-4.731241703033447,-0.4603601098060608,5.412167549133301
1761400358392577300,4.084577392578125,-2.4426095485687256,-0.8872761726379395,8.095993041992188
1761400358402662700,4.09466259765625,-1.5937153100967407,-2.1226093769073486,8.6967134475708
1761400358412713000,4.104712890625,-1.6752678155899048,-2.4133553504943848,7.8809638023376465
1761400358422799400,4.11479931640625,0.8123077750205994,0.12389993667602539,5.8558430671691895
1761400358432905700,4.12490576171875,7.09574031829834,2.806004285812378,1.965639591217041
1761400358442962200,4.134962158203125,4.859481334686279,-1.3426234722137451,-2.7228806018829346
1761400358453060400,4.145060302734375,0.3280056416988373,-4.183194160461426,-5.421894073486328
1761400358463149600,4.155149658203125,-0.36234745383262634,-3.382408380508423,-4.86367130279541
1761400358473230600,4.165230712890625,1.178022027015686,-2.578031539916992,-4.364180564880371
1761400358483286000,4.1752861328125,2.344521999359131,-4.861875534057617,-5.596895217895508
1761400358493423000,4.185423095703125,-0.9508721828460693,-6.366631031036377,-5.714435577392578
1761400358503473400,4.195473388671875,-2.0619313716888428,-3.7236571311950684,-3.513490915298462
1761400358513555200,4.20555517578125,-1.5964088439941406,-0.14649522304534912,-1.2701988220214844
1761400358523632400,4.21563232421875,-1.5437363386154175,2.4188919067382812,-0.13437457382678986
1761400358533717200,4.22571728515625,-1.5898247957229614,1.4870985746383667,-0.5338321328163147
1761400358543798500,4.235798583984375,-0.9281272292137146,-1.2002432346343994,-1.5741127729415894
1761400358553841400,4.24584130859375,0.18136078119277954,-1.0853215456008911,-0.4241477847099304
1761400358563933400,4.255933349609375,1.1442787647247314,-0.20305822789669037,0.5425859689712524
1761400358574029300,4.266029296875,1.483357548713684,0.33182138204574585,1.0868927240371704
1761400358584120800,4.276120849609375,1.6599299907684326,0.8121581077575684,1.5233107805252075
1761400358594204200,4.2862041015625,2.0031237602233887,2.0242226123809814,1.8299931287765503
1761400358614354000,4.30635400390625,3.6407577991485596,5.139303684234619,0.8315361738204956
1761400358624432000,4.31643212890625,3.5161845684051514,4.461968898773193,-0.6849661469459534
1761400358634528500,4.326528564453125,0.7826046943664551,5.361216068267822,-0.33833062648773193
1761400358644607500,4.336607421875,-2.2863879203796387,6.093767166137695,0.9432406425476074
1761400358654655500,4.346655517578125,-2.0135984420776367,4.853944778442383,1.4607622623443604
1761400358664759800,4.356759765625,2.0121021270751953,2.9320740699768066,0.3436427712440491
1761400358674853000,4.36685302734375,2.0765957832336426,1.3463643789291382,-0.6156091094017029
1761400358684934100,4.37693408203125,-0.9770587682723999,0.6435165405273438,-1.3400795459747314
1761400358695002600,4.387002685546875,-2.8446857929229736,1.0909329652786255,-2.04853892326355
1761400358705096200,4.39709619140625,-2.6046669483184814,0.44098201394081116,-3.029712677001953
1761400358715163100,4.4071630859375,-2.721982955932617,-2.2382044792175293,-5.8308539390563965
1761400358725234000,4.41723388671875,-2.451138734817505,-5.303680419921875,-7.588721752166748
1761400358735315000,4.42731494140625,5.489979267120361,-9.053973197937012,-7.304484844207764
1761400358745397200,4.437397216796875,19.881898880004883,-15.184551239013672,-6.122422695159912
1761400358755477000,4.44747705078125,6.611139297485352,-19.108348846435547,8.321422576904297
1761400358765558300,4.457558349609375,-7.399878978729248,-19.28888511657715,4.1780314445495605
1761400358775645400,4.4676455078125,4.05390739440918,-20.18671226501465,-15.289820671081543
1761400358785724700,4.477724609375,20.85087776184082,-24.288652420043945,-35.71744918823242
1761400358795810800,4.487810791015625,8.370054244995117,-23.95353889465332,-32.92408752441406
1761400358805891600,4.4978916015625,5.488034248352051,-23.401376724243164,-25.306188583374023
1761400358815988500,4.507988525390625,10.111013412475586,-25.678936004638672,-19.586814880371094
1761400358826070300,4.5180703125,12.220903396606445,-28.757505416870117,-17.95284652709961
1761400358836137700,4.5281376953125,8.985513687133789,-25.067367553710938,-17.380558013916016
1761400358846230500,4.53823046875,10.030957221984863,-21.603778839111328,-20.197036743164062
1761400358856313000,4.54831298828125,8.691176414489746,-21.12269401550293,-18.345272064208984
1761400358866394600,4.55839453125,8.202460289001465,-22.208539962768555,-17.98472023010254
1761400358876463000,4.568463134765625,8.672995567321777,-23.001619338989258,-17.633745193481445
1761400358886544400,4.57854443359375,8.68751049041748,-23.70439338684082,-16.787918090820312
1761400358896643600,4.5886435546875,9.17360782623291,-24.230966567993164,-16.440683364868164
1761400358906717700,4.5987177734375,7.9451584815979,-22.896574020385742,-15.727211952209473
1761400358916787700,4.60878759765625,6.0125885009765625,-20.460023880004883,-14.52405071258545
1761400358926881300,4.61888134765625,3.578658103942871,-18.094404220581055,-13.902680397033691
1761400358936957000,4.62895703125,1.065868616104126,-15.501258850097656,-12.391939163208008
1761400358947044000,4.639044189453125,0.0024690204299986362,-13.658246994018555,-10.44470500946045
1761400358957122800,4.649122802734375,0.4147206246852875,-12.844143867492676,-8.942418098449707
1761400358967206400,4.659206298828125,1.0669161081314087,-12.568286895751953,-7.644311904907227
1761400358977294600,4.669294677734375,1.8262522220611572,-12.089072227478027,-6.815244674682617
1761400358987355600,4.679355712890625,2.2770354747772217,-11.263222694396973,-6.992939472198486
1761400358997449700,4.68944970703125,-0.50510174036026,-11.131916046142578,-7.2853312492370605
1761400359007526100,4.699526123046875,-1.9072809219360352,-10.402582168579102,-5.937021732330322
1761400359017612000,4.709612060546875,1.7235260009765625,-6.935628414154053,-4.3954548835754395
1761400359027690500,4.7196904296875,2.611849546432495,-5.079224109649658,-4.842946529388428
1761400359037774300,4.7297744140625,0.8607155084609985,-2.678438425064087,-4.43009614944458
1761400359047844400,4.73984423828125,1.2814964056015015,-1.0119991302490234,-2.946289539337158
1761400359057927000,4.749927001953125,2.036044120788574,-0.13085809350013733,-1.4363713264465332
1761400359068017700,4.760017578125,0.10556933283805847,1.947832703590393,0.260144978761673
1761400359078085600,4.770085693359375,-0.5837363004684448,4.798055171966553,0.2810194194316864
1761400359088177700,4.780177734375,1.914613127708435,6.446088790893555,-0.3424456715583801
1761400359098261000,4.790260986328125,5.216217517852783,7.064765453338623,-0.9141361117362976
1761400359108339500,4.80033935546875,3.6653730869293213,5.873201370239258,2.148646354675293
1761400359118422800,4.8104228515625,-1.1019313335418701,3.382932186126709,4.613776206970215
1761400359128504300,4.82050439453125,-5.652036666870117,2.3190836906433105,4.0993971824646
1761400359138568000,4.83056787109375,-5.864223003387451,1.7714099884033203,3.107823371887207
1761400359148666000,4.840666015625,-3.9234232902526855,0.28057050704956055,2.9409027099609375
1761400359158735600,4.850735595703125,-0.5767781734466553,-1.3768904209136963,2.582670211791992
1761400359168803800,4.860803955078125,2.3371896743774414,-2.8110172748565674,3.0673465728759766
1761400359178899500,4.8708994140625,2.34145450592041,-4.559532642364502,2.766275644302368
1761400359188991000,4.880990966796875,0.5232079029083252,-4.238709449768066,-1.253214955329895
1761400359199072000,4.891072021484375,-1.5640122890472412,-3.4205660820007324,-2.966341018676758
1761400359209132800,4.9011328125,-1.33858323097229,-3.251250982284546,-3.025672435760498
1761400359219232300,4.911232177734375,-1.0031704902648926,-3.4917187690734863,-3.0516345500946045
1761400359229311200,4.921311279296875,-1.0371382236480713,-3.2178070545196533,-2.5014171600341797
1761400359239396400,4.931396240234375,-1.3640216588974,-2.3127987384796143,-1.6074072122573853
1761400359249477600,4.9414775390625,-1.483357548713684,-1.7945289611816406,-0.9154080748558044
1761400359259558700,4.95155859375,-1.2746131420135498,-1.2344354391098022,-0.5619640350341797
1761400359269639400,4.961639404296875,-1.0134207010269165,-0.4951508343219757,-0.5223100781440735
1761400359279718700,4.97171875,-0.7715315222740173,-0.3777601420879364,-0.10721534490585327
1761400359289789400,4.98178955078125,-0.6020669341087341,-0.13347674906253815,0.276081383228302
1761400359299872000,4.9918720703125,-0.3770867586135864,0.10369886457920074,0.49455228447914124
1761400359309964000,5.001964111328125,-0.1744026243686676,0.3528454899787903,0.8733598589897156
1761400359320045300,5.01204541015625,0.06651391834020615,0.4759972393512726,1.0833014249801636
1761400359330127000,5.022127197265625,0.40297406911849976,0.19026421010494232,1.2707973718643188
1761400359340202500,5.032202392578125,0.8848071694374084,0.09120412170886993,1.9734207391738892
1761400359350269700,5.042269775390625,0.9750386476516724,-0.07706336677074432,1.9276316165924072
1761400359360358700,5.052358642578125,1.445499300956726,-0.20425532758235931,1.2367547750473022
1761400359370451000,5.062450927734375,2.4350528717041016,-0.08993220329284668,0.2487725168466568
1761400359380531000,5.072531005859375,2.379387617111206,-1.018059492111206,-0.3942202627658844
1761400359390611200,5.082611083984375,1.0287585258483887,-2.5714473724365234,-1.5988030433654785
1761400359400693800,5.09269384765625,2.3512556552886963,-4.307692527770996,-3.957016944885254
1761400359410760700,5.1027607421875,8.372523307800293,-6.258518218994141,-7.222707748413086
1761400359420842000,5.112842041015625,10.258331298828125,-8.303016662597656,-5.882254123687744
1761400359430938000,5.122938232421875,4.300509929656982,-12.989815711975098,-1.9756653308868408
1761400359440984800,5.13298486328125,-3.565938949584961,-16.51557731628418,-3.8074541091918945
1761400359451101000,5.143100830078125,-0.5167734622955322,-16.442180633544922,-12.493244171142578
1761400359461168400,5.15316845703125,11.615768432617188,-17.829994201660156,-23.200937271118164
1761400359471262500,5.163262451171875,8.275408744812012,-19.34642219543457,-22.58981704711914
1761400359481329400,5.173329345703125,9.229497909545898,-20.582202911376953,-20.20339584350586
1761400359491412200,5.183412109375,6.103269100189209,-17.91573715209961,-19.596765518188477
1761400359501506000,5.193506103515625,7.294908046722412,-19.234193801879883,-16.693571090698242
1761400359511592200,5.20359228515625,4.5685858726501465,-21.15703582763672,-13.978920936584473
1761400359521668600,5.213668701171875,9.317185401916504,-22.42401885986328,-15.277924537658691
1761400359531749400,5.223749267578125,9.177124977111816,-23.29633140563965,-17.84488296508789
1761400359541828600,5.23382861328125,7.942988395690918,-22.784196853637695,-17.9924259185791
1761400359551909600,5.24390966796875,8.216451644897461,-19.49882698059082,-16.675838470458984
1761400359561980000,5.25397998046875,7.937751293182373,-18.10487937927246,-16.924312591552734
1761400359572073700,5.26407373046875,8.171560287475586,-18.537555694580078,-18.129941940307617
1761400359582154500,5.274154541015625,7.417984962463379,-20.155811309814453,-20.163816452026367
1761400359592235800,5.28423583984375,6.2508864402771,-19.752239227294922,-19.960535049438477
1761400359602304500,5.294304443359375,4.332083702087402,-19.833192825317383,-19.63447380065918
1761400359612398300,5.3043984375,3.8414218425750732,-18.964920043945312,-17.14914321899414
1761400359622479400,5.314479248046875,2.8586020469665527,-17.14645004272461,-14.046855926513672
1761400359632557300,5.324557373046875,1.6047136783599854,-15.986534118652344,-12.808305740356445
1761400359642618000,5.3346181640625,1.4433295726776123,-13.525593757629395,-10.1637601852417
1761400359652710400,5.34471044921875,1.792284369468689,-13.239112854003906,-9.38399887084961
1761400359662804000,5.354803955078125,2.295440912246704,-13.0328369140625,-7.394492149353027
1761400359672883200,5.36488330078125,1.8241572380065918,-11.178228378295898,-5.005826950073242
1761400359682954200,5.374954345703125,2.223764419555664,-9.854459762573242,-4.307617664337158
1761400359693029000,5.385029052734375,1.7234511375427246,-9.281721115112305,-5.396755218505859
1761400359703121000,5.395120849609375,-1.1752537488937378,-8.42923641204834,-5.928866386413574
1761400359713209000,5.405208984375,-3.3606362342834473,-7.347879886627197,-4.690540313720703
1761400359723291100,5.415291015625,-4.0358757972717285,-6.160505294799805,-2.705073833465576
1761400359733357800,5.42535791015625,-4.807407379150391,-4.660163879394531,-1.5729156732559204
1761400359743427300,5.43542724609375,-5.14356803894043,-1.989880919456482,-1.9083284139633179
1761400359753508900,5.4455087890625,-3.930680751800537,1.2770822048187256,-3.514613389968872
1761400359763590000,5.45558984375,-0.645237386226654,2.9111995697021484,-2.917334794998169
1761400359773678000,5.465677978515625,2.236708164215088,1.660304069519043,1.4718354940414429
1761400359783753200,5.475753173828125,2.2283284664154053,-0.8717886805534363,5.948843002319336
1761400359793846800,5.4858466796875,-0.24435821175575256,-0.6503250598907471,7.445518493652344
1761400359803937800,5.495937744140625,-0.590470016002655,1.7856255769729614,7.608249187469482
1761400359813993000,5.505992919921875,0.3816507160663605,3.3489644527435303,6.212803840637207
1761400359824101600,5.5161015625,0.28401216864585876,3.715576648712158,5.220332145690918
1761400359834183400,5.526183349609375,-0.8424597382545471,2.7526586055755615,3.313051462173462
1761400359844264200,5.53626416015625,-1.8082208633422852,0.9816974997520447,2.0689644813537598
1761400359854345200,5.54634521484375,-1.573738694190979,-0.3853168487548828,1.9993081092834473
1761400359864424400,5.556424560546875,-1.2851625680923462,-1.1647043228149414,1.1566987037658691
1761400359874507500,5.566507568359375,-0.14859014749526978,-1.9183541536331177,-1.5836148262023926
1761400359884573200,5.5765732421875,1.1555016040802002,-2.6880152225494385,-4.159327030181885
1761400359894656500,5.586656494140625,1.2559083700180054,-1.6219220161437988,-4.349815368652344
1761400359904744700,5.59674462890625,0.5202151536941528,-0.7776666283607483,-4.1267805099487305
1761400359914832400,5.606832275390625,-1.8431612253189087,-0.7135469317436218,-4.522646903991699
1761400359924902400,5.61690234375,-4.21237325668335,-0.577675998210907,-4.252850532531738
1761400359934968600,5.626968505859375,-4.912003993988037,-0.6364087462425232,-3.787926435470581
1761400359945063400,5.6370634765625,-4.134262561798096,-0.992172122001648,-3.9879918098449707
1761400359955157000,5.647156982421875,-3.238905906677246,-0.6896049380302429,-3.441290855407715
1761400359965237500,5.657237548828125,-2.703502655029297,0.11694178730249405,-2.48136568069458
1761400359975303400,5.667303466796875,-3.0295629501342773,0.7548469305038452,-1.578676700592041
1761400359985400000,5.677400146484375,-3.871873140335083,1.3932757377624512,0.4057423770427704
1761400359995478300,5.687478271484375,-3.0701894760131836,1.564984917640686,1.212363839149475
1761400360005560300,5.697560302734375,-0.7949497699737549,1.6100258827209473,1.330727219581604
1761400360015642400,5.707642333984375,0.5310638546943665,1.7568203210830688,1.726668357849121
1761400360025711600,5.717711669921875,-0.04287117347121239,1.566107153892517,1.8717420101165771
1761400360035805700,5.7278056640625,-0.14395137131214142,1.193434715270996,1.647734522819519
1761400360045885000,5.737885009765625,1.1988965272903442,-0.4655974209308624,1.1991957426071167
1761400360055953400,5.747953369140625,1.9561376571655273,-1.1831845045089722,0.23597849905490875
1761400360066049000,5.758049072265625,1.6490812301635742,-1.7676690816879272,-0.1868225485086441
1761400360076133000,5.768133056640625,1.5770307779312134,-2.5841665267944336,-1.175478219985962
1761400360086211600,5.778211669921875,9.242815971374512,-4.436755180358887,0.5045779943466187
1761400360096269800,5.788269775390625,9.406818389892578,-7.934085369110107,4.716352939605713
1761400360106400300,5.798400146484375,-8.911742210388184,-11.77864933013916,6.514024257659912
1761400360116429000,5.808428955078125,0.8542062640190125,-18.989761352539062,4.677970886230469
1761400360126509800,5.818509765625,42.799049377441406,-33.30588912963867,-16.265981674194336
1761400360136617500,5.828617431640625,0.7359177470207214,-26.333974838256836,-38.17674255371094
1761400360146697700,5.83869775390625,3.8693292140960693,-26.00334930419922,-38.24565124511719
1761400360156779800,5.84877978515625,12.784064292907715,-26.792015075683594,-22.705636978149414
1761400360166860300,5.8588603515625,-3.1890017986297607,-18.833463668823242,-12.949488639831543
1761400360176941600,5.868941650390625,2.535684108734131,-19.88152503967285,-12.81167221069336
1761400360187000600,5.87900048828125,6.830432891845703,-28.697799682617188,-16.673070907592773
1761400360197105000,5.88910498046875,2.85022234916687,-33.65020751953125,-18.10472869873047
1761400360207185200,5.89918505859375,7.500734806060791,-34.626216888427734,-21.91450309753418
1761400360217266000,5.909265869140625,8.696488380432129,-29.099876403808594,-19.1457576751709
1761400360227347700,5.91934765625,7.39052677154541,-25.205331802368164,-21.020418167114258
1761400360237428000,5.929427978515625,10.173935890197754,-26.7315616607666,-22.864700317382812
1761400360247509500,5.939509521484375,9.758915901184082,-28.09027099609375,-22.194623947143555
1761400360257590300,5.94959033203125,8.74616813659668,-26.54466438293457,-17.813758850097656
1761400360267671300,5.95967138671875,6.277222633361816,-22.95149040222168,-13.151350021362305
1761400360277753300,5.96975341796875,5.884648323059082,-17.500566482543945,-8.509142875671387
1761400360287833300,5.979833251953125,5.767107963562012,-13.283255577087402,-4.666299343109131
1761400360297915600,5.98991552734375,4.954052448272705,-10.966042518615723,-3.6926820278167725
1761400360307994600,5.99999462890625,4.093486309051514,-9.027636528015137,-5.038073539733887
1761400360318051800,6.0100517578125,1.421108365058899,-7.172878742218018,-8.679953575134277
1761400360328137500,6.020137451171875,1.6064344644546509,-5.102717399597168,-10.032078742980957
1761400360338240300,6.030240234375,-0.9209446310997009,-4.477680683135986,-8.733000755310059
1761400360348320500,6.040320556640625,-3.165433883666992,-4.202198028564453,-5.991265296936035
1761400360358383900,6.0503837890625,-3.931279182434082,-3.1973066329956055,-2.7242274284362793
1761400360368478200,6.060478271484375,-4.674753665924072,-1.6098014116287231,1.786224126815796
1761400360378563600,6.0705634765625,-7.138985633850098,-1.0070611238479614,6.478485107421875
1761400360388646000,6.08064599609375,-7.491382122039795,-1.3399299383163452,9.319878578186035
1761400360398726000,6.090725830078125,-5.9188408851623535,-2.368314504623413,9.779341697692871
1761400360408782300,6.1007822265625,-4.9741034507751465,-2.9002761840820312,6.834847450256348
1761400360418888400,6.110888427734375,-3.0417585372924805,-3.1788265705108643,5.391068935394287
1761400360428969200,6.12096923828125,-0.11469722539186478,-2.9420998096466064,3.188178777694702
1761400360439047000,6.131046875,0.4472668170928955,-3.29270076751709,-0.26081836223602295
1761400360449124400,6.141124267578125,0.9438391923904419,-4.697498321533203,-2.060584545135498
1761400360459213600,6.151213623046875,2.5392754077911377,-5.8419270515441895,-0.6432172656059265
1761400360469294000,6.161294189453125,3.7597944736480713,-5.825840950012207,1.1263971328735352
1761400360479375600,6.171375732421875,3.443984270095825,-6.051793575286865,2.2991819381713867
1761400360489478000,6.181477783203125,3.0083892345428467,-5.36705207824707,3.4212393760681152
1761400360499534000,6.1915341796875,3.4951603412628174,-3.4029088020324707,3.7393689155578613
1761400360509618700,6.20161865234375,2.188300371170044,-0.6114192605018616,0.692148745059967
1761400360519699500,6.211699462890625,0.3167079985141754,0.5333832502365112,-5.626598358154297
1761400360529780500,6.221780517578125,-0.7643488645553589,-0.01578676700592041,-10.596213340759277
1761400360539861800,6.23186181640625,-2.1838111877441406,-1.1962778568267822,-10.99544620513916
1761400360549942800,6.24194287109375,-4.462717056274414,-1.1957541704177856,-7.699603080749512
1761400360560020200,6.252020263671875,-5.208585739135742,0.0983867272734642,-3.1622166633605957
1761400360570105000,6.26210498046875,-4.261379718780518,0.7497591972351074,1.2437877655029297
1761400360580186000,6.27218603515625,-2.475006103515625,0.40521863102912903,5.477409839630127
1761400360590268000,6.282267822265625,-0.6635679602622986,-1.437418818473816,7.186046600341797
1761400360600349700,6.292349609375,0.21555297076702118,-0.8990227580070496,6.763095855712891
1761400360610404600,6.302404541015625,0.5643582344055176,1.8647838830947876,5.46035099029541
1761400360620511000,6.312510986328125,0.8097639083862305,3.3756747245788574,4.0732102394104
1761400360630567200,6.322567138671875,0.2918681502342224,3.52628493309021,2.089763879776001
1761400360640673300,6.33267333984375,-0.13242928683757782,3.689389944076538,0.7083095908164978
1761400360650754800,6.3427548828125,-1.0487351417541504,3.2910547256469727,0.826897382736206
1761400360660836000,6.352836181640625,-2.040308713912964,2.709787368774414,1.5955109596252441
1761400360670905900,6.36290576171875,-2.6833014488220215,1.4881459474563599,1.792808175086975
1761400360681013500,6.373013427734375,-2.0044705867767334,0.006808510981500149,1.6035914421081543
1761400360691074800,6.38307470703125,-1.3280338048934937,-1.0657190084457397,1.843535304069519
1761400360701134800,6.393134765625,-0.6646154522895813,-1.9558383226394653,1.8311902284622192
1761400360711211800,6.403211669921875,0.7371896505355835,-1.875033974647522,1.8526631593704224
1761400360721322500,6.413322509765625,1.5511434078216553,-1.8419641256332397,1.7449240684509277
1761400360731403300,6.4234033203125,2.0736780166625977,-1.8977789878845215,1.6347160339355469
1761400360741484300,6.433484375,2.035520315170288,-2.179546594619751,1.0196306705474854
1761400360751565300,6.4435654296875,2.2533178329467773,-3.5381813049316406,-0.13691841065883636
1761400360761642500,6.453642578125,3.9326260089874268,-5.464017391204834,-0.8064718842506409
1761400360771727600,6.4637275390625,7.660398006439209,-8.366238594055176,-2.3964462280273438
1761400360781809400,6.473809326171875,11.738770484924316,-10.171466827392578,-4.260406970977783
1761400360791865000,6.483864990234375,14.135815620422363,-12.794164657592773,-10.18912410736084
1761400360801971500,6.493971435546875,13.04548168182373,-15.666383743286133,-19.529354095458984
1761400360812045600,6.504045654296875,10.27591323852539,-15.40429401397705,-25.433305740356445
1761400360822147000,6.51414697265625,11.82608413696289,-13.835343360900879,-27.25432014465332
1761400360832214500,6.524214599609375,14.632014274597168,-11.528979301452637,-25.516878128051758
1761400360842254300,6.53425439453125,16.184803009033203,-9.82640266418457,-22.735637664794922
1761400360852377300,6.54437744140625,15.710152626037598,-7.357606410980225,-19.407323837280273
1761400360862457900,6.554457763671875,16.445995330810547,-5.218760967254639,-16.353519439697266
1761400360872539600,6.56453955078125,26.595840454101562,-9.295188903808594,-18.94988250732422
1761400360882616300,6.5746162109375,19.958438873291016,-19.05215835571289,-23.97201919555664
1761400360892701700,6.58470166015625,6.8337249755859375,-26.419492721557617,-37.15135192871094
1761400360902782000,6.594781982421875,-0.6634931564331055,-21.93268394470215,-39.92353820800781
1761400360912863500,6.604863525390625,-1.5962591171264648,-8.001497268676758,-12.733561515808105
1761400360922945300,6.6149453125,4.076726913452148,7.473276138305664,11.468525886535645
1761400360933003000,6.6250029296875,13.774141311645508,2.3185598850250244,14.784494400024414
1761400360943107600,6.635107666015625,5.058274745941162,-1.5056536197662354,16.70905876159668
1761400360953183700,6.645183837890625,-8.72993278503418,-3.16550874710083,1.45073664188385
1761400360963268900,6.655268798828125,-4.447080135345459,-10.420463562011719,-6.7410993576049805
1761400360973350100,6.66535009765625,7.70775842666626,-12.744260787963867,-6.510283470153809
1761400360983431700,6.675431640625,6.0685529708862305,-24.669330596923828,-10.680832862854004
1761400360993490700,6.68549072265625,-1.7693150043487549,-30.79482078552246,-12.729596138000488
1761400361003593700,6.69559375,-2.5514707565307617,-17.255983352661133,-7.403395175933838
1761400361013671200,6.705671142578125,2.030881643295288,-12.456731796264648,-1.9038392305374146
1761400361023755800,6.715755859375,4.8652424812316895,-12.902203559875488,-0.06658873707056046
1761400361033836800,6.7258369140625,3.9217023849487305,-13.520955085754395,-1.7614591121673584
1761400361043918300,6.73591845703125,3.723357677459717,-14.909741401672363,-6.2935333251953125
1761400361053999900,6.745999755859375,5.226317882537842,-16.784027099609375,-11.097349166870117
1761400361064083700,6.756083740234375,4.7171759605407715,-16.12636947631836,-13.818059921264648
1761400361074162200,6.766162109375,1.4424316883087158,-15.422998428344727,-16.2557315826416
1761400361084217300,6.77621728515625,-3.1501708030700684,-16.390554428100586,-18.167652130126953
1761400361094299400,6.78629931640625,-4.089595794677734,-17.36297607421875,-16.81073760986328
1761400361114460700,6.806460693359375,-3.5266590118408203,-17.790340423583984,-8.250568389892578
1761400361124566800,6.81656689453125,-2.261024236679077,-17.03407096862793,-4.320037841796875
1761400361134647800,6.826647705078125,1.192013144493103,-16.493356704711914,-2.207379102706909
1761400361144729600,6.8367294921875,2.698863983154297,-14.985233306884766,-1.3071593046188354
1761400361154810600,6.846810546875,4.28786563873291,-14.471901893615723,-0.27323827147483826
1761400361164891600,6.8568916015625,3.5714006423950195,-13.61320686340332,1.110984444618225
1761400361174973400,6.866973388671875,3.0365960597991943,-9.008482933044434,1.9688568115234375
1761400361185053700,6.8770537109375,0.4404582977294922,-5.163993835449219,0.7192331552505493
1761400361195135000,6.887135009765625,-0.5719149112701416,-4.975974082946777,1.0592098236083984
1761400361205219300,6.89721923828125,0.9929203391075134,-4.16688346862793,0.4150198996067047
1761400361215272200,6.907272216796875,3.4671781063079834,-2.212242364883423,-3.1360301971435547
1761400361225353500,6.917353515625,3.5167829990386963,0.9938181638717651,-7.480159282684326
1761400361235460400,6.92746044921875,1.6011223793029785,3.0637552738189697,-9.94745922088623
1761400361245540400,6.937540283203125,0.5609914064407349,2.728566884994507,-11.864017486572266
1761400361255622700,6.94762255859375,1.944016933441162,1.8302175998687744,-10.156428337097168
1761400361265702700,6.95770263671875,2.96394681930542,0.3808276951313019,-5.876717567443848
1761400361275758800,6.9677587890625,0.24503158032894135,-0.7256675958633423,-2.4491186141967773
1761400361285840400,6.97784033203125,-2.8220903873443604,-0.005386953707784414,0.18794482946395874
1761400361295923000,6.9879228515625,-3.481992244720459,0.8024316430091858,1.7154455184936523
1761400361306028300,6.9980283203125,-2.437671422958374,0.5356277823448181,1.4340519905090332
1761400361316109300,7.008109375,-0.973242998123169,0.41285014152526855,1.0024971961975098
1761400361326189600,7.018189453125,0.40776246786117554,0.6140379309654236,0.9978584051132202
1761400361336246500,7.02824658203125,0.8019079566001892,0.7361422181129456,1.638756275177002
1761400361346352000,7.03835205078125,0.268375039100647,0.47667059302330017,2.28212308883667
1761400361356433700,7.04843359375,-0.45998600125312805,0.0363619364798069,2.4724621772766113
1761400361366489000,7.058489013671875,-0.8366986513137817,-0.3065326511859894,2.0660464763641357
1761400361376596000,7.068595947265625,-0.6287772059440613,-0.5238812565803528,1.247977614402771
1761400361386678500,7.078678466796875,0.10758943855762482,-0.416740745306015,0.1066167950630188
1761400361396732400,7.088732421875,0.9041852355003357,-0.15667057037353516,-1.1301380395889282
1761400361406813400,7.0988134765625,1.1323826313018799,-0.2617909908294678,-1.9320459365844727
1761400361416894700,7.108894775390625,0.9649381041526794,-0.39309799671173096,-1.8264018297195435
1761400361426988800,7.11898876953125,0.9924713969230652,-0.5494692921638489,-0.936506986618042
1761400361437080000,7.129080078125,0.8510639071464539,-0.5158008337020874,0.20358195900917053
1761400361447163400,7.139163330078125,0.7231237292289734,-0.6140379309654236,1.3787609338760376
1761400361457242000,7.1492421875,0.4472668170928955,-0.3893570601940155,1.5379753112792969
1761400361467326200,7.159326171875,-0.3603273630142212,-0.31618425250053406,1.5679028034210205
1761400361477393400,7.169393310546875,-1.2644377946853638,-0.25924715399742126,0.9220669269561768
1761400361487488000,7.179488037109375,-1.2586767673492432,-0.5882254242897034,-0.737788200378418
1761400361497569300,7.1895693359375,0.022595278918743134,-1.1214590072631836,-3.043179988861084
1761400361507637500,7.199637451171875,7.75324821472168,-2.2403743267059326,-6.068403720855713
1761400361517729800,7.209729736328125,17.37494659423828,-5.323358058929443,-7.543755531311035
1761400361527814000,7.21981396484375,4.453888416290283,-7.285106658935547,-0.37723639607429504
1761400361537894000,7.229893798828125,-2.9105262756347656,-10.018686294555664,6.229712963104248
1761400361547974700,7.239974609375,-13.080720901489258,-12.282703399658203,1.6110732555389404
1761400361558043100,7.250043212890625,6.328099727630615,-16.23223876953125,-13.61911678314209
1761400361568137000,7.260136962890625,16.29942512512207,-17.553314208984375,-25.55915069580078
1761400361578218000,7.270218017578125,2.237306594848633,-14.417059898376465,-19.71310806274414
1761400361588302800,7.280302734375,-1.1788450479507446,-16.824054718017578,-18.414329528808594
1761400361598368300,7.2903681640625,3.824063777923584,-18.836530685424805,-20.186487197875977
1761400361608449000,7.300448974609375,8.689230918884277,-21.478233337402344,-18.296937942504883
1761400361618542600,7.31054248046875,10.022651672363281,-21.116634368896484,-14.044312477111816
1761400361628611300,7.320611328125,14.692317962646484,-25.33544158935547,-17.32840919494629
1761400361638705200,7.330705078125,13.37580680847168,-21.657873153686523,-24.81455421447754
1761400361648784100,7.3407841796875,10.841169357299805,-21.25587272644043,-22.25799560546875
1761400361658845400,7.350845458984375,10.500070571899414,-21.648895263671875,-18.756027221679688
1761400361668923100,7.360923095703125,10.286014556884766,-22.558916091918945,-19.64614486694336
1761400361679029200,7.371029296875,10.136825561523438,-23.560142517089844,-20.406230926513672
1761400361689110000,7.381110107421875,8.76352596282959,-23.562088012695312,-19.78904914855957
1761400361699191800,7.39119189453125,7.750180721282959,-22.11045265197754,-18.71068572998047
1761400361709271300,7.401271240234375,8.12285327911377,-21.6824893951416,-18.165781021118164
1761400361719341800,7.411341796875,6.37650728225708,-19.8626708984375,-18.874540328979492
1761400361729434600,7.4214345703125,4.67138671875,-17.742382049560547,-19.343278884887695
1761400361739503900,7.43150390625,3.4694228172302246,-16.4492130279541,-18.219575881958008
1761400361749597200,7.44159716796875,3.1482255458831787,-16.154726028442383,-15.671321868896484
1761400361759678200,7.45167822265625,4.103586673736572,-15.266777038574219,-12.345327377319336
1761400361769759500,7.461759521484375,2.849698543548584,-13.355904579162598,-7.9910969734191895
1761400361779824400,7.471824462890625,1.825728416442871,-11.375375747680664,-4.344727993011475
1761400361789921800,7.481921875,2.087444543838501,-9.373449325561523,-0.5368249416351318
1761400361799990300,7.491990234375,0.9634417295455933,-8.011672019958496,3.5153615474700928
1761400361810084000,7.502083984375,-1.407341718673706,-6.103418827056885,5.1868133544921875
1761400361820165400,7.512165283203125,-3.3352725505828857,-2.8355579376220703,4.435932159423828
1761400361830246000,7.522245849609375,-4.336198329925537,-0.021098902449011803,2.781538724899292
1761400361840325600,7.53232568359375,-4.387449264526367,2.0802619457244873,1.4100351333618164
1761400361850381300,7.54238134765625,-2.8399720191955566,3.7321114540100098,1.3514519929885864
1761400361860490200,7.552490234375,-0.027832595631480217,4.5295305252075195,2.4099884033203125
1761400361870563800,7.562563720703125,4.321309566497803,5.2742767333984375,2.7198879718780518
1761400361880650000,7.57264990234375,6.528015613555908,3.0587422847747803,1.218873143196106
1761400361890731500,7.5827314453125,1.8486230373382568,-0.11537059396505356,3.3935563564300537
1761400361900802000,7.592802001953125,-2.709787368774414,-0.5347299575805664,5.041066646575928
1761400361910881300,7.60288134765625,-3.9407811164855957,-1.8208651542663574,3.6355204582214355
1761400361920976100,7.61297607421875,-2.611400604248047,-4.192396640777588,0.48325464129447937
1761400361931035400,7.623035400390625,-0.9913491606712341,-5.23335075378418,-1.9535189867019653
1761400361941126000,7.6331259765625,-0.6418704986572266,-4.7305684089660645,-2.762908697128296
1761400361951221500,7.643221435546875,-0.20447978377342224,-3.575814962387085,-1.7663971185684204
1761400361961300700,7.65330078125,0.5054010152816772,-1.5283985137939453,0.30720600485801697
1761400361971378000,7.6633779296875,0.5778256058692932,-0.5732616782188416,0.6238391995429993
1761400361981453300,7.673453369140625,-0.2371755987405777,-0.7924807667732239,0.5116857886314392
1761400361991532000,7.683531982421875,-0.8964040875434875,-0.37828385829925537,0.12090718746185303
1761400362001616000,7.693615966796875,-0.7920318245887756,0.38307225704193115,-0.7891139388084412
1761400362021775000,7.713775146484375,0.17253215610980988,1.0870423316955566,-1.131185531616211
1761400362031869000,7.723868896484375,0.518943190574646,1.5792005062103271,-1.6401029825210571
1761400362041935000,7.73393505859375,0.6900538206100464,1.7446997165679932,-2.089763879776001
1761400362052014000,7.74401416015625,0.7303811311721802,1.7032500505447388,-1.7075895071029663
1761400362062111700,7.75411181640625,1.161187767982483,2.450390577316284,-0.45160630345344543
1761400362072193300,7.764193359375,1.3583353757858276,3.589357376098633,0.9483283162117004
1761400362082274000,7.774274169921875,1.0045920610427856,4.706177711486816,1.922768473625183
1761400362092343000,7.784343017578125,0.543408989906311,5.366827487945557,2.329333782196045
1761400362102433500,7.79443359375,0.5850830674171448,4.544419288635254,2.574066162109375
1761400362112518000,7.804517822265625,0.6560112833976746,2.6443958282470703,2.723778486251831
1761400362122586000,7.814586181640625,0.44681790471076965,1.033172845840454,1.950750708580017
1761400362132679700,7.8246796875,0.016011223196983337,-0.052373163402080536,0.8264485001564026
1761400362142761200,7.83476123046875,0.15255554020404816,-0.6739677786827087,-0.268375039100647
1761400362152842200,7.84484228515625,0.15315409004688263,-0.9723451733589172,-0.9170540571212769
1761400362162910500,7.854910400390625,-0.14484919607639313,-1.1482441425323486,-0.9648633003234863
1761400362173004300,7.86500439453125,-0.602889895439148,-1.4173674583435059,-0.2676268517971039
1761400362183085800,7.8750859375,-0.5530605912208557,-2.0894646644592285,0.5326350331306458
1761400362193166800,7.885166748046875,-0.2942623496055603,-3.404629707336426,1.2606968879699707
1761400362203233800,7.89523388671875,-0.2733879089355469,-4.658293724060059,1.255609154701233
1761400362213329000,7.905328857421875,1.1696423292160034,-5.752817630767822,-0.9873837232589722
1761400362223410000,7.915409912109375,2.403853416442871,-5.456235885620117,-4.415506362915039
1761400362233488600,7.925488525390625,4.393285274505615,-5.8345947265625,-7.5383687019348145
1761400362243572500,7.935572509765625,12.245144844055176,-8.004714012145996,-10.906037330627441
1761400362253631700,7.9456318359375,13.112818717956543,-11.314922332763672,-10.826953887939453
1761400362263734500,7.955734619140625,6.447136402130127,-13.04443359375,-8.268075942993164
1761400362273815800,7.96581591796875,-5.76486349105835,-13.998822212219238,-7.43377161026001
1761400362283886600,7.975886474609375,-0.8326584696769714,-17.189321517944336,-8.621071815490723
1761400362314128400,8.00612841796875,7.904082775115967,-21.178808212280273,-18.824485778808594
1761400362324221400,8.016221435546875,4.509329319000244,-22.317625045776367,-15.612215042114258
1761400362334302200,8.02630224609375,9.56865119934082,-28.24469757080078,-22.2374210357666
1761400362344379600,8.036379638671875,14.864400863647461,-27.779098510742188,-22.052318572998047
1761400362354454500,8.04645458984375,11.344625473022461,-23.64521026611328,-18.67207908630371
1761400362364525300,8.056525390625,11.861623764038086,-22.20749282836914,-17.691505432128906
1761400362374626800,8.066626708984375,12.930484771728516,-23.516597747802734,-18.636390686035156
1761400362384707800,8.076707763671875,10.289530754089355,-24.4045467376709,-18.534563064575195
1761400362404870400,8.096870361328126,9.090035438537598,-21.83182716369629,-15.459959030151367
1761400362414951400,8.106951416015624,7.2806925773620605,-18.62531852722168,-13.792023658752441
1761400362425007600,8.117007568359375,4.659340858459473,-16.641422271728516,-12.138527870178223
1761400362435091000,8.127091064453126,3.2374095916748047,-16.521936416625977,-12.314950942993164
1761400362445169700,8.137169677734375,3.0678701400756836,-16.210018157958984,-13.231032371520996
1761400362455251700,8.147251708984374,1.9859155416488647,-15.4039945602417,-12.119000434875488
1761400362465332700,8.157332763671874,0.019901800900697708,-14.800954818725586,-9.928529739379883
1761400362475406800,8.16740673828125,-0.8147019743919373,-14.820931434631348,-8.52380657196045
1761400362485496800,8.177496826171875,-2.776376247406006,-14.885350227355957,-7.2136549949646
1761400362495571200,8.1875712890625,-2.5759365558624268,-15.109881401062012,-6.985607147216797
1761400362505672400,8.19767236328125,-0.2851344645023346,-13.571981430053711,-7.12499475479126
1761400362515763200,8.20776318359375,1.528248906135559,-10.881571769714355,-5.850306510925293
1761400362525855500,8.21785546875,2.6977415084838867,-9.1708402633667,-4.322432041168213
1761400362535925000,8.227925048828125,3.444732427597046,-7.276577472686768,-3.068917751312256
1761400362546004200,8.238004150390625,2.0679168701171875,-5.615525245666504,-3.4573020935058594
1761400362556073200,8.2480732421875,-1.101706862449646,-3.105429172515869,-2.995370864868164
1761400362566168300,8.258168212890626,-3.730764865875244,-1.0636988878250122,-1.5704467296600342
1761400362576249000,8.2682490234375,-4.615123271942139,0.8088660836219788,0.5522375702857971
1761400362586305500,8.278305419921875,-3.13932204246521,2.8568062782287598,3.036147117614746
1761400362596399000,8.288399169921876,-0.5172972083091736,3.4613423347473145,3.967865467071533
1761400362606477800,8.298477783203126,2.7648539543151855,3.1980550289154053,3.4246811866760254
1761400362616560000,8.30856005859375,4.131494522094727,2.828824043273926,2.044423818588257
1761400362626649000,8.318649169921875,2.4133553504943848,1.4897172451019287,1.469366431236267
1761400362636736300,8.328736328125,0.7567173838615417,0.034416649490594864,2.219200611114502
1761400362646822000,8.33882177734375,0.8956558704376221,-0.9928455352783203,2.67716646194458
1761400362656898600,8.348898681640625,1.2505214214324951,-1.6543933153152466,3.8080525398254395
1761400362666979300,8.358979248046875,1.6586580276489258,-2.548403263092041,4.870853900909424
1761400362677058600,8.36905859375,2.021678924560547,-2.9385085105895996,4.997971057891846
1761400362687137500,8.379137451171875,1.8024598360061646,-3.3734302520751953,4.080692291259766
1761400362697223200,8.38922314453125,0.8506149649620056,-3.673752784729004,2.0702362060546875
1761400362707304400,8.399304443359375,0.4661959707736969,-2.8938417434692383,0.4622305631637573
1761400362717398000,8.40939794921875,0.6078279614448547,-2.0014030933380127,-0.5518634915351868
1761400362727466500,8.419466552734375,0.21458032727241516,-1.169343113899231,-0.9081506133079529
1761400362737545700,8.429545654296875,-0.46582186222076416,-0.8190414309501648,-1.8139818906784058
1761400362747624700,8.439624755859375,-0.5357774496078491,-0.621968686580658,-2.968061923980713
1761400362757709600,8.44970947265625,-0.5859060287475586,-0.4614075720310211,-3.838054895401001
1761400362767790600,8.45979052734375,-0.9970353841781616,0.46335285902023315,-4.224344253540039
1761400362777859000,8.469859130859374,-1.521889328956604,1.533486247062683,-4.330586910247803
1761400362787953200,8.479953125,-1.6755671501159668,2.443582057952881,-4.022183895111084
1761400362797999900,8.489999755859374,-1.059808373451233,2.530895709991455,-3.788524866104126
1761400362808097500,8.50009765625,-0.5305401086807251,1.934814214706421,-3.6554970741271973
1761400362818196500,8.510196533203125,-0.40057986974716187,1.5165022611618042,-3.0296378135681152
1761400362828277200,8.52027734375,-0.5247042775154114,1.0140941143035889,-2.622324228286743
1761400362838359000,8.530359130859376,-0.5569511651992798,0.828393816947937,-2.230797529220581
1761400362848439300,8.540439208984376,-0.16841712594032288,1.2954875230789185,-0.7754220962524414
1761400362858520800,8.550520751953124,0.33174657821655273,1.1106103658676147,0.9996540546417236
1761400362868581000,8.5605810546875,0.541987419128418,-0.7288099527359009,2.5882067680358887
1761400362878683100,8.57068310546875,0.4819827377796173,-2.216357469558716,2.933720111846924
1761400362888765400,8.580765380859376,0.9044845104217529,-2.2804770469665527,3.1955111026763916
1761400362898820000,8.590820068359376,2.550722599029541,-2.5808746814727783,3.238456964492798
1761400362908901000,8.600901123046874,4.79625940322876,-4.076801776885986,2.4090158939361572
1761400362919008000,8.611008056640625,8.59885025024414,-6.954707145690918,-0.5832874178886414
1761400362929084400,8.62108447265625,15.737462043762207,-11.222296714782715,-2.4454526901245117
1761400362939185000,8.631184814453125,6.772149085998535,-15.033641815185547,5.513023376464844
1761400362949251300,8.641251220703126,-6.998850345611572,-16.50637435913086,9.02367115020752
1761400362959331600,8.65133154296875,-9.492635726928711,-17.7641544342041,0.39294835925102234
1761400362969413600,8.66141357421875,8.452505111694336,-22.91677474975586,-10.06971263885498
1761400362979469300,8.67146923828125,18.634370803833008,-25.689186096191406,-22.615554809570312
1761400362989600500,8.6816005859375,13.423465728759766,-23.66054916381836,-25.212963104248047
1761400362999652400,8.69165234375,4.908562183380127,-15.09454345703125,-17.242067337036133
1761400363009737200,8.7017373046875,7.191882610321045,-13.081543922424316,-9.98180103302002
1761400363019818200,8.711818359375,7.7865424156188965,-13.311387062072754,-10.554614067077637
1761400363029862700,8.721862548828126,6.085686683654785,-13.989320755004883,-14.102072715759277
1761400363039980800,8.731980712890625,5.6612396240234375,-15.85806941986084,-14.070873260498047
1761400363050039000,8.7420390625,8.44322681427002,-16.781333923339844,-13.497386932373047
1761400363060139000,8.752138916015625,17.799917221069336,-19.382932662963867,-13.420846939086914
1761400363070199300,8.76219921875,21.12441635131836,-20.458677291870117,-15.754670143127441
1761400363080305400,8.772305419921874,13.538836479187012,-18.208053588867188,-20.365079879760742
1761400363090386200,8.78238623046875,15.18769359588623,-17.750835418701172,-22.130130767822266
1761400363100443000,8.79244287109375,12.945748329162598,-17.033174514770508,-15.8856782913208
1761400363110549200,8.80254931640625,8.965986251831055,-16.93920135498047,-12.22195053100586
1761400363120626200,8.812626220703125,10.034547805786133,-18.819398880004883,-13.742493629455566
1761400363130685700,8.822685791015624,8.052448272705078,-20.178855895996094,-14.263456344604492
1761400363140791800,8.832791748046875,5.169455528259277,-20.009016036987305,-12.93153190612793
1761400363150873000,8.842873046875,3.8242135047912598,-19.49156951904297,-12.005799293518066
1761400363160955100,8.852955078125,1.655590534210205,-18.160694122314453,-11.328614234924316
1761400363171035400,8.863035400390626,-0.061201781034469604,-16.25984764099121,-11.479598999023438
1761400363181091800,8.873091796875,0.6540659666061401,-15.511658668518066,-13.466561317443848
1761400363191193600,8.883193603515625,2.520944833755493,-14.454544067382812,-14.921038627624512
1761400363201279700,8.89327978515625,3.3221044540405273,-12.68395709991455,-13.208511352539062
1761400363211360800,8.90336083984375,3.053056001663208,-10.255188941955566,-8.077886581420898
1761400363221415700,8.913415771484376,2.244115114212036,-8.601543426513672,-2.2099978923797607
1761400363231523300,8.9235234375,1.641599416732788,-6.765564918518066,2.1712417602539062
1761400363241590300,8.93359033203125,1.243264079093933,-5.175291538238525,3.5475335121154785
1761400363251680500,8.943680419921876,-0.2602197825908661,-4.0656538009643555,3.7888240814208984
1761400363261765400,8.953765380859375,-1.4939818382263184,-3.5358617305755615,3.2012720108032227
1761400363271847200,8.96384716796875,-1.6994342803955078,-2.4029555320739746,2.7082910537719727
1761400363281927700,8.973927734375,-0.5765537023544312,-0.5872527956962585,2.897507905960083
1761400363292009000,8.984009033203124,2.9654433727264404,1.2189478874206543,3.195286512374878
1761400363302065200,8.994065185546875,3.9787142276763916,1.5959599018096924,0.45183074474334717
1761400363312172000,9.004172119140625,1.5325134992599487,1.915810227394104,-2.395623207092285
1761400363322248400,9.01424853515625,-0.23171383142471313,2.2123172283172607,-2.5813236236572266
1761400363332333600,9.02433349609375,-0.510339081287384,2.077418804168701,-0.7725041508674622
1761400363342385200,9.03438525390625,-0.08274959772825241,1.677811622619629,1.3657424449920654
1761400363352496000,9.04449609375,0.18121114373207092,1.3241431713104248,3.632228374481201
1761400363362577400,9.054577392578125,0.13916297256946564,0.9287257790565491,4.777853965759277
1761400363372622800,9.064622802734375,0.009127894416451454,-0.08791209012269974,3.8102223873138428
1761400363382735000,9.074735107421875,0.28064534068107605,-1.1679962873458862,1.8951603174209595
1761400363392820000,9.084820068359376,0.6243628859519958,-1.806574821472168,0.19026421010494232
1761400363402875100,9.094875244140624,1.3762918710708618,-1.8480992317199707,-0.9623942375183105
1761400363412982800,9.104982666015625,2.6069862842559814,-1.6675615310668945,-1.7122282981872559
1761400363423063000,9.11506298828125,2.0534019470214844,-1.5526398420333862,-2.1365256309509277
1761400363433144800,9.125144775390625,-0.12217910587787628,-1.2244096994400024,-2.413879156112671
1761400363443221800,9.1352216796875,-1.3659669160842896,-0.5888239741325378,-2.3227498531341553
1761400363453307400,9.145307373046874,-1.058611273765564,0.1149216815829277,-1.648632287979126
1761400363463388400,9.155388427734374,-0.5291934013366699,0.8271218538284302,-1.0853215456008911
1761400363473470000,9.165469970703125,-0.44434887170791626,1.5238345861434937,-0.7237222790718079
1761400363483525000,9.175525146484375,-0.8195651769638062,1.1708394289016724,-1.2161048650741577
1761400363493587700,9.185587646484375,-1.1251251697540283,1.3710545301437378,-1.6231939792633057
1761400363503712800,9.195712646484376,-1.147720456123352,1.8618658781051636,-2.08864164352417
1761400363513785600,9.20578564453125,-1.1306617259979248,2.1104888916015625,-2.629506826400757
1761400363523875300,9.215875244140625,-1.5633388757705688,2.3878421783447266,-2.163086414337158
1761400363533955800,9.225955810546875,-1.992724061012268,1.89284086227417,-1.133205533027649
1761400363544037600,9.23603759765625,-1.7553987503051758,0.8057236671447754,-0.3811269700527191
1761400363554122500,9.24612255859375,-1.2515689134597778,-0.0702548548579216,0.46918871998786926
1761400363564199000,9.256198974609376,-1.105522632598877,-0.655188262462616,1.2232874631881714
1761400363574298400,9.26629833984375,-1.1169699430465698,-1.1854290962219238,1.649829387664795
1761400363584361500,9.276361572265625,-0.8618378043174744,-1.9278560876846313,1.7589900493621826
1761400363594417400,9.28641748046875,-0.37551558017730713,-2.739490509033203,1.774552345275879
1761400363604524000,9.29652392578125,-0.15008652210235596,-3.970334529876709,1.9023429155349731
1761400363614605300,9.306605224609376,0.5303905010223389,-5.95138692855835,1.6974890232086182
1761400363624660500,9.316660400390624,1.5208418369293213,-7.28346061706543,1.3399299383163452
1761400363634767600,9.326767578125,4.122441291809082,-7.30074405670166,1.0784382820129395
1761400363644844500,9.336844482421874,14.863204002380371,-7.775693893432617,-0.7615057826042175
1761400363654929000,9.346928955078125,18.799570083618164,-11.25102710723877,-3.9368906021118164
1761400363665011000,9.357010986328126,6.5476179122924805,-14.725762367248535,-1.1827356815338135
1761400363675089400,9.36708935546875,-4.327220439910889,-15.8048734664917,-6.6985273361206055
1761400363685172700,9.3771728515625,8.164676666259766,-21.67336082458496,-19.826608657836914
1761400363695254300,9.387254150390625,13.341988563537598,-22.956802368164062,-26.942625045776367
1761400363705336000,9.397336181640625,15.180061340332031,-22.176143646240234,-24.544832229614258
1761400363715415800,9.407415771484375,14.862081527709961,-21.497386932373047,-19.645322799682617
1761400363725497600,9.41749755859375,10.282872200012207,-23.378631591796875,-18.046594619750977
1761400363735579100,9.4275791015625,10.965892791748047,-25.66928482055664,-23.722274780273438
1761400363745660200,9.43766015625,9.995942115783691,-23.725116729736328,-25.654619216918945
1761400363755741000,9.447740966796875,9.970354080200195,-20.719945907592773,-21.646650314331055
1761400363765822500,9.457822509765625,14.347328186035156,-24.01369285583496,-17.380632400512695
1761400363775901000,9.46790087890625,15.801656723022461,-26.10270881652832,-13.377601623535156
1761400363785984000,9.47798388671875,17.945064544677734,-26.67140769958496,-11.128698348999023
1761400363796065800,9.488065673828125,16.494104385375977,-26.102933883666992,-12.501623153686523
1761400363806126300,9.498126220703124,12.541426658630371,-25.063400268554688,-13.903129577636719
1761400363816228000,9.50822802734375,9.818621635437012,-20.841825485229492,-12.428674697875977
1761400363826308000,9.51830810546875,7.474323749542236,-16.140884399414062,-11.895441055297852
1761400363836390400,9.528390380859374,5.245471477508545,-13.285948753356934,-12.00295639038086
1761400363846470400,9.538470458984374,3.1762077808380127,-11.930830955505371,-12.11009693145752
1761400363856571100,9.548571044921875,1.7405098676681519,-11.064204216003418,-12.400243759155273
1761400363866633500,9.558633544921875,1.0819547176361084,-9.360580444335938,-13.286397933959961
1761400363876689000,9.56868896484375,1.7042975425720215,-7.000795364379883,-12.790947914123535
1761400363886771700,9.578771728515624,1.8440589904785156,-6.012513637542725,-9.49690055847168
1761400363896851500,9.5888515625,0.7146692276000977,-7.478139400482178,-4.008193016052246
1761400363906957600,9.59895751953125,-0.7811083197593689,-8.89258861541748,4.330961227416992
1761400363917038300,9.609038330078125,-2.891597032546997,-8.169764518737793,8.217872619628906
1761400363927129300,9.61912939453125,-5.154790878295898,-6.786738872528076,7.2206130027771
1761400363937177600,9.629177490234374,-7.199963092803955,-6.508637428283691,5.146111965179443
1761400363947282000,9.639281982421876,-6.680121898651123,-5.090446949005127,2.065298318862915
1761400363957340000,9.64933984375,-1.1708394289016724,-3.546785354614258,-0.6708253622055054
1761400363967445200,9.6594453125,7.384765625,-3.1851112842559814,-1.178022027015686
1761400363977500200,9.669500244140625,15.097162246704102,-2.181267499923706,-0.2041056901216507
1761400363987607000,9.67960693359375,14.420202255249023,-1.2343605756759644,2.4270472526550293
1761400363997688000,9.68968798828125,7.55280876159668,-1.063474416732788,6.2650275230407715
1761400364007768600,9.6997685546875,-1.3337199687957764,0.05304653197526932,4.712836265563965
1761400364017850400,9.709850341796875,-4.1693525314331055,-0.15913958847522736,-0.3422960340976715
1761400364027930600,9.7199306640625,-4.107552528381348,0.16235680878162384,-1.3251157999038696
1761400364038008600,9.730008544921875,-1.3816040754318237,1.8760067224502563,0.2207154631614685
1761400364048089300,9.74008935546875,-1.6324714422225952,2.553715467453003,2.5650877952575684
1761400364058171600,9.750171630859375,-2.2344634532928467,3.282076358795166,2.6511294841766357
1761400364068255000,9.7602548828125,-1.2742390632629395,4.233771800994873,2.124704360961914
1761400364078311200,9.770311279296875,-1.477072834968567,4.491896629333496,0.8632593750953674
1761400364088418300,9.780418212890625,-0.9888052940368652,4.319813251495361,-0.4316296875476837
1761400364098486300,9.790486328125,-0.5090671181678772,3.6046202182769775,-1.663147211074829
1761400364108579800,9.800579833984376,-1.200766921043396,2.632424831390381,-2.9987375736236572
1761400364118660600,9.81066064453125,-2.0947020053863525,1.709834098815918,-2.5325417518615723
1761400364128742700,9.82074267578125,-1.568725824356079,0.35651159286499023,-1.9209728240966797
1761400364138804500,9.830804443359375,-0.4869207739830017,-0.7906103134155273,-2.0590133666992188
1761400364148900600,9.840900634765624,0.13213001191616058,-1.298929214477539,-2.624868154525757
1761400364158985200,9.850985107421875,0.5823895931243896,-0.8886229395866394,-2.6065375804901123
1761400364169067300,9.8610673828125,1.4003087282180786,-0.12988543510437012,-2.506504774093628
1761400364179122400,9.871122314453125,1.7738041877746582,0.3423708379268646,-2.6566660404205322
1761400364189229600,9.8812294921875,1.0051906108856201,1.7981951236724854,-1.8521394729614258
1761400364199285000,9.891284912109375,-0.1528548151254654,2.9956700801849365,-0.6902034878730774
1761400364209387000,9.901386962890625,-1.07611882686615,2.7889456748962402,0.17140987515449524
1761400364219472000,9.911471923828126,-2.2679076194763184,1.746794581413269,1.775899052619934
1761400364229553700,9.9215537109375,-2.7735331058502197,0.40851065516471863,3.085752010345459
1761400364239614200,9.9316142578125,-2.2714240550994873,-0.5041291117668152,3.2846951484680176
1761400364249716500,9.941716552734375,-0.6968623399734497,-1.4910639524459839,1.30042564868927
1761400364259760600,9.9517607421875,0.12307693064212799,-1.477072834968567,-0.2834136188030243
1761400364269882600,9.961882568359375,-0.8464251160621643,-0.9352350234985352,0.18944120407104492
1761400364279933700,9.97193359375,-1.6546926498413086,-0.6711246371269226,0.7936030626296997
1761400364290014700,9.9820146484375,-0.9672574996948242,-0.927453875541687,0.8749310970306396
1761400364300096300,9.99209619140625,-0.298302561044693,-2.3400328159332275,-0.24069209396839142
1761400364310160600,10.00216064453125,-0.42437225580215454,-3.935394287109375,-1.9300258159637451
1761400364330365200,10.022365234375,-0.37985506653785706,-6.265401363372803,-4.623054027557373
1761400364340404700,10.03240478515625,15.578845977783203,-9.38437271118164,-9.27379035949707
1761400364350527500,10.042527587890625,24.532861709594727,-15.602264404296875,-5.351340293884277
1761400364360607700,10.052607666015625,9.29541301727295,-19.9888916015625,-4.265345096588135
1761400364370689800,10.062689697265625,4.339415550231934,-21.83452033996582,-13.89654541015625
1761400364380769800,10.072769775390626,10.454132080078125,-22.53662109375,-25.767745971679688
1761400364390850600,10.0828505859375,17.565210342407227,-25.781661987304688,-32.48093795776367
1761400364400925200,10.09292529296875,12.176461219787598,-29.669546127319336,-27.928064346313477
1761400364411000600,10.10300048828125,7.365985870361328,-29.710546493530273,-16.197223663330078
1761400364421074000,10.113073974609375,11.947665214538574,-28.42635726928711,-17.49226188659668
1761400364431175700,10.12317578125,12.950910568237305,-30.300867080688477,-19.253870010375977
1761400364441239000,10.133239013671876,11.46291446685791,-34.21867752075195,-20.315399169921875
1761400364451338200,10.143338134765624,11.433585166931152,-37.1630973815918,-22.847043991088867
1761400364461419000,10.1534189453125,10.609979629516602,-38.85153579711914,-24.388385772705078
1761400364471494700,10.16349462890625,9.6571626663208,-34.446128845214844,-22.375761032104492
1761400364481560000,10.17356005859375,12.28779125213623,-26.12769889831543,-17.543737411499023
1761400364491662600,10.18366259765625,11.36849308013916,-21.310789108276367,-15.055264472961426
1761400364501731300,10.1937314453125,10.264616012573242,-17.622371673583984,-13.47411823272705
1761400364511797200,10.20379736328125,7.914183139801025,-16.141334533691406,-12.380117416381836
1761400364521895400,10.2138955078125,6.910638809204102,-13.101370811462402,-10.553791046142578
1761400364531973400,10.223973388671874,6.607772350311279,-10.911648750305176,-10.754903793334961
1761400364542054100,10.23405419921875,5.255646705627441,-9.264213562011719,-12.053234100341797
1761400364552149500,10.2441494140625,2.68951153755188,-8.321422576904297,-12.929661750793457
1761400364562230500,10.25423046875,0.6838438510894775,-6.1467390060424805,-11.529278755187988
1761400364572287000,10.264286865234375,-0.7996633648872375,-3.8545150756835938,-7.34391450881958
1761400364582382800,10.2743828125,-2.542567491531372,-1.8583494424819946,-1.4282909631729126
1761400364592472300,10.284472412109375,-2.5317935943603516,-0.8172457814216614,3.1436617374420166
1761400364602552800,10.294552734375,-0.9059808850288391,-2.1648073196411133,4.179453372955322
1761400364612636000,10.304635986328124,-0.04085106775164604,-2.418368101119995,3.4956841468811035
1761400364622717200,10.31471728515625,-1.2458827495574951,-0.7050924301147461,3.685424566268921
1761400364632798200,10.324798095703125,-3.2883613109588623,0.30204349756240845,4.441169261932373
1761400364642864400,10.334864501953126,-4.851849555969238,0.6280290484428406,4.609137535095215
1761400364652960800,10.344960693359376,-5.194295406341553,1.1549030542373657,6.024559497833252
1761400364663027200,10.355027099609375,-3.010409355163574,1.8278981447219849,6.351368427276611
1761400364673110300,10.3651103515625,0.480935275554657,1.1981483697891235,6.085911273956299
1761400364683203600,10.37520361328125,1.9728221893310547,-0.10033201426267624,4.787954330444336
1761400364693277000,10.38527685546875,2.1467010974884033,-1.278877854347229,1.7568951845169067
1761400364703366700,10.39536669921875,2.36651873588562,-2.5335891246795654,-0.7518541812896729
1761400364713447200,10.405447265625,1.8350807428359985,-3.8325183391571045,-2.6256911754608154
1761400364723513900,10.415513916015625,0.9097966551780701,-4.534692764282227,-3.7427358627319336
1761400364733588200,10.425588134765626,0.4884171485900879,-4.673930644989014,-4.160748481750488
1761400364743690200,10.435690185546875,-0.1587654948234558,-3.21675968170166,-3.6891655921936035
1761400364753771800,10.445771728515625,0.13018471002578735,-0.8848071694374084,-1.9788076877593994
1761400364763852800,10.455852783203126,0.8426093459129333,2.4479215145111084,0.9290250539779663
1761400364773934000,10.46593408203125,0.8106617331504822,3.6827311515808105,1.2641384601593018
1761400364784015000,10.47601513671875,0.23448212444782257,2.5386767387390137,0.12861351668834686
1761400364794077000,10.486076904296874,0.6049100160598755,2.2076783180236816,-0.25251346826553345
1761400364804177400,10.496177490234375,1.4110077619552612,1.768641710281372,-0.6673837304115295
1761400364814245600,10.50624560546875,1.2575544118881226,1.6774375438690186,-1.5556325912475586
1761400364824348000,10.516347900390626,1.050755262374878,1.8609681129455566,-1.5972318649291992
1761400364834420700,10.526420654296874,0.8694692850112915,1.6165350675582886,-0.7809586524963379
1761400364844501500,10.53650146484375,0.1835305243730545,0.958054780960083,-0.47584760189056396
1761400364854563300,10.546563232421875,-0.38224926590919495,0.41546881198883057,-0.08170213550329208
1761400364864663800,10.556663818359375,-0.720280647277832,0.762104332447052,0.4661211371421814
1761400364874744600,10.56674462890625,-0.7717559337615967,1.0426000356674194,0.8756792545318604
1761400364884826600,10.57682666015625,-0.9424924850463867,1.2606968879699707,1.5714941024780273
1761400364894895000,10.58689501953125,-0.8594436049461365,0.8946084380149841,1.6478092670440674
1761400364904988400,10.596988525390625,-0.9036614894866943,0.017881693318486214,1.139639973640442
1761400364915059500,10.6070595703125,-0.7497591972351074,-0.29718029499053955,0.49889177083969116
1761400364925149000,10.61714892578125,-0.3191770017147064,-0.46978726983070374,-0.019153613597154617
1761400364935220500,10.627220458984375,-0.30294132232666016,-0.5655553340911865,-0.3042880594730377
1761400364945313000,10.63731298828125,-0.5351788997650146,-1.0409539937973022,-0.16273090243339539
1761400364955394300,10.647394287109375,-0.6857143044471741,-1.2624176740646362,0.46986207365989685
1761400364965462000,10.6574619140625,-0.8711153268814087,-0.8624363541603088,1.094374656677246
1761400364975554300,10.66755419921875,-0.19213469326496124,-0.7631517648696899,1.5973814725875854
1761400364985633300,10.67763330078125,1.4856021404266357,-1.5542110204696655,1.062651515007019
1761400364995714300,10.68771435546875,1.347037672996521,-5.075857162475586,-0.8490437865257263
1761400365005799400,10.69779931640625,1.021501064300537,-6.83245325088501,-2.1680245399475098
1761400365015881000,10.707880859375,4.4176764488220215,-8.973841667175293,-4.097526550292969
1761400365025938400,10.7179384765625,13.00051498413086,-12.714781761169434,-8.372822761535645
1761400365036018000,10.728017822265626,9.07873821258545,-15.047332763671875,-12.316970825195312
1761400365046122200,10.738122314453125,7.48614501953125,-17.444826126098633,-16.854581832885742
1761400365056205300,10.748205322265624,9.079261779785156,-22.865524291992188,-17.512163162231445
1761400365066271200,10.758271240234375,8.198644638061523,-26.319459915161133,-12.485761642456055
1761400365076368000,10.768367919921875,9.958457946777344,-26.916288375854492,-10.775927543640137
1761400365086448600,10.77844873046875,8.637606620788574,-24.318880081176758,-9.868226051330566
1761400365096528600,10.788528564453125,5.864896297454834,-16.39332389831543,-10.407370567321777
1761400365106605000,10.79860498046875,7.0831708908081055,-18.087745666503906,-13.014206886291504
1761400365116690000,10.80868994140625,9.885957717895508,-18.894515991210938,-13.819257736206055
1761400365126773200,10.818773193359375,10.33906078338623,-18.184635162353516,-12.935647010803223
1761400365136854300,10.828854248046875,10.552892684936523,-16.705467224121094,-13.205144882202148
1761400365146922500,10.838922607421875,9.287931442260742,-15.613487243652344,-13.904999732971191
1761400365157016600,10.8490166015625,8.33264446258545,-13.84103012084961,-15.301342964172363
1761400365167085000,10.8590849609375,8.091130256652832,-13.008445739746094,-16.693496704101562
1761400365177179000,10.869178955078125,7.89315938949585,-12.98427963256836,-15.760431289672852
1761400365187248000,10.879248046875,6.372018337249756,-11.880851745605469,-12.738948822021484
1761400365197341200,10.889341064453125,4.920982360839844,-10.194062232971191,-10.129717826843262
1761400365207422000,10.899421875,3.9012019634246826,-9.987936019897461,-7.271639347076416
1761400365217503000,10.9095029296875,3.533318042755127,-9.928605079650879,-5.198709487915039
1761400365227584800,10.919584716796875,3.9298577308654785,-10.658312797546387,-4.490325450897217
1761400365237653200,10.9296533203125,4.784811973571777,-11.0887451171875,-5.08378791809082
1761400365247721700,10.9397216796875,5.108627796173096,-11.205462455749512,-5.859434604644775
1761400365257827800,10.949827880859376,4.500949382781982,-10.756699562072754,-6.095861911773682
1761400365267896000,10.95989599609375,3.489698648452759,-9.232340812683105,-5.151573657989502
1761400365277977300,10.969977294921875,2.3993642330169678,-9.328333854675293,-4.32871675491333
1761400365288058000,10.98005810546875,2.7945570945739746,-7.941342353820801,-2.915090322494507
1761400365298150100,10.990150146484375,3.542520761489868,-6.789656639099121,-2.3267152309417725
1761400365308221200,11.00022119140625,3.851447582244873,-5.8122239112854,-2.1977274417877197
1761400365318289400,11.010289306640624,4.024727821350098,-4.648342609405518,-1.958980679512024
1761400365328370000,11.020369873046874,3.980285406112671,-3.6756980419158936,-1.8222119808197021
1761400365338451200,11.030451171875,3.7883005142211914,-2.650306463241577,-1.5566799640655518
1761400365348532500,11.040532470703125,3.6157681941986084,-1.698162317276001,-1.3594576120376587
1761400365358613500,11.050613525390625,3.8733694553375244,-1.7845780849456787,-1.9829975366592407
1761400365368694000,11.060694091796876,4.028992652893066,-2.6286089420318604,-3.063530683517456
1761400365378785000,11.070784912109374,3.8961892127990723,-3.163937568664551,-3.982081174850464
1761400365388866300,11.0808662109375,3.0832080841064453,-2.2818238735198975,-4.420070648193359
1761400365398963500,11.09096337890625,2.5194482803344727,-2.622997522354126,-5.090446949005127
1761400365409044500,11.10104443359375,2.1261258125305176,-4.807257652282715,-5.322385311126709
1761400365419114000,11.111114013671875,1.8777275085449219,-7.2275710105896,-5.137657642364502
1761400365439287600,11.13128759765625,1.5094693899154663,-6.474071025848389,-3.724405288696289
1761400365449357300,11.141357421875,1.9078046083450317,-6.74962854385376,-2.909703254699707
1761400365459450000,11.1514501953125,2.1867291927337646,-7.488314628601074,-2.3401825428009033
1761400365469518600,11.1615185546875,2.838550567626953,-8.098835945129395,-1.868973731994629
1761400365479612700,11.17161279296875,3.507505416870117,-8.609997749328613,-2.340257406234741
1761400365489681200,11.18168115234375,3.5619735717773438,-9.05359935760498,-3.4705450534820557
1761400365499744000,11.191743896484375,3.0854525566101074,-9.233537673950195,-5.080346584320068
1761400365509855500,11.20185546875,2.1075708866119385,-9.468170166015625,-6.018125057220459
1761400365519935200,11.211935302734375,1.4541782140731812,-9.548824310302734,-5.974206447601318
1761400365530018300,11.222018310546876,1.2308441400527954,-9.37704086303711,-5.6915411949157715
1761400365540099300,11.232099365234374,1.2393734455108643,-9.18625259399414,-5.253925800323486
1761400365550180600,11.2421806640625,1.4963760375976562,-8.918176651000977,-4.918962001800537
1761400365560249900,11.252249755859374,1.9323452711105347,-8.307355880737305,-4.5906572341918945
1761400365570342400,11.26234228515625,2.326864719390869,-7.702970027923584,-4.179976940155029
1761400365580423400,11.27242333984375,2.443582057952881,-7.4759697914123535,-4.044779300689697
1761400365590515500,11.282515380859374,2.785578966140747,-7.440206050872803,-3.916165828704834
1761400365600584200,11.292584228515626,2.6791865825653076,-7.432275295257568,-3.95873761177063
1761400365610665200,11.302665283203124,2.2928969860076904,-7.290792942047119,-4.040739059448242
1761400365620726800,11.312726806640624,1.9491046667099,-7.530961513519287,-4.217610836029053
1761400365630807800,11.322807861328124,1.84001886844635,-7.677830696105957,-4.404433250427246
1761400365640890000,11.33289013671875,1.8350807428359985,-7.832855224609375,-4.581305027008057
1761400365650991400,11.342991455078124,1.8491467237472534,-8.055590629577637,-4.991910457611084
1761400365661072600,11.35307275390625,2.0281882286071777,-8.292542457580566,-5.33817195892334
1761400365671153700,11.363153564453125,2.2579567432403564,-8.31910228729248,-5.275548458099365
1761400365681230300,11.373230224609374,2.335843086242676,-8.380229949951172,-5.198934078216553
1761400365691303400,11.383303466796875,2.360234022140503,-8.534056663513184,-5.104288578033447
1761400365701406200,11.39340625,2.3931541442871094,-8.714221000671387,-5.125911235809326
1761400365711478500,11.403478515625,2.439467191696167,-8.912790298461914,-5.063961029052734
1761400365721559000,11.41355908203125,2.4356513023376465,-8.849268913269043,-4.841524600982666
1761400365731628000,11.4236279296875,2.369511604309082,-8.606107711791992,-4.62470006942749
1761400365741701000,11.433701171875,2.2300491333007812,-8.238597869873047,-4.294225215911865
1761400365751798500,11.443798583984375,2.1571757793426514,-7.963339328765869,-4.204592227935791
1761400365761871400,11.453871337890625,1.886930227279663,-8.01032543182373,-4.216039657592773
1761400365771964700,11.463964599609374,1.7232266664505005,-8.200963973999023,-4.148179054260254
1761400365782049500,11.474049560546876,1.729287028312683,-8.421829223632812,-4.083311080932617
1761400365822357800,11.514357666015625,1.5493477582931519,-8.56540584564209,-4.374655246734619
1761400365832451300,11.524451416015625,1.4692916870117188,-8.550592422485352,-4.176609992980957
1761400365842532900,11.534532958984375,1.4710873365402222,-8.514155387878418,-4.091166973114014
1761400365852601300,11.544601318359375,1.596782922744751,-8.475025177001953,-4.024503231048584
1761400365862695000,11.55469482421875,1.7256208658218384,-8.428038597106934,-4.088697910308838
1761400365872765700,11.564765625,1.7307833433151245,-8.39384651184082,-4.423063278198242
1761400365882846700,11.5748466796875,1.6402525901794434,-8.417040824890137,-4.768426895141602
1761400365892938200,11.584938232421875,1.499967336654663,-8.507122039794922,-4.964003086090088
1761400365903019000,11.59501904296875,1.499967336654663,-8.663568496704102,-4.978742599487305
1761400365913088000,11.605087890625,1.5523405075073242,-8.691326141357422,-4.975749492645264
1761400365923181000,11.61518115234375,1.6004489660263062,-8.731279373168945,-4.945373058319092
1761400365933262300,11.625262451171874,1.6557401418685913,-8.653617858886719,-4.79513692855835
1761400365943335400,11.63533544921875,1.6456395387649536,-8.626383781433105,-4.579209804534912
1761400365953425000,11.6454248046875,1.6189292669296265,-8.523358345031738,-4.329838752746582
1761400365963506000,11.655505859375,1.6356137990951538,-8.440309524536133,-4.091466426849365
1761400365973561900,11.665561767578126,1.735422134399414,-8.384718894958496,-4.032135009765625
1761400365983657200,11.6756572265625,1.660004734992981,-8.399008750915527,-4.091391563415527
1761400365993749500,11.68574951171875,1.5758336782455444,-8.446818351745605,-4.202272891998291
1761400366003828000,11.695827880859374,1.5206173658370972,-8.656086921691895,-4.421940803527832
1761400366013899300,11.705899169921874,1.6124948263168335,-8.708983421325684,-4.523619651794434
1761400366023992800,11.715992919921876,1.7362451553344727,-8.633565902709961,-4.491297721862793
1761400366034056200,11.72605615234375,1.8011130094528198,-8.545804023742676,-4.554444789886475
1761400366044139300,11.73613916015625,1.8285715579986572,-8.42736530303955,-4.629787445068359
1761400366054236000,11.74623583984375,1.8026841878890991,-8.321646690368652,-4.591330528259277
1761400366064304400,11.756304443359374,1.7731307744979858,-8.286781311035156,-4.474089622497559
1761400366074397200,11.766397216796875,1.7504607439041138,-8.358083724975586,-4.411990165710449
1761400366084468000,11.776468017578125,1.7533786296844482,-8.454449653625488,-4.391414642333984
1761400366094549200,11.78654931640625,1.7781436443328857,-8.40649127960205,-4.518456935882568
1761400366104642000,11.79664208984375,1.7871218919754028,-8.32561206817627,-4.592752456665039
1761400366114710000,11.8067099609375,1.7251719236373901,-8.281094551086426,-4.679990768432617
1761400366124804000,11.81680419921875,1.6255881786346436,-8.426392555236816,-4.860902786254883
1761400366134883000,11.826883056640625,1.6433950662612915,-8.571616172790527,-4.807557106018066
1761400366144957700,11.836957763671874,1.6571617126464844,-8.588226318359375,-4.572925090789795
1761400366155047000,11.847046875,1.6757915019989014,-8.538321495056152,-4.4223151206970215
1761400366165129500,11.85712939453125,1.6823008060455322,-8.478766441345215,-4.359093189239502
1761400366175212800,11.867212890625,1.6428712606430054,-8.31790542602539,-4.341136455535889
1761400366185290000,11.8772900390625,1.7221044301986694,-8.190488815307617,-4.4403462409973145
1761400366195360800,11.88736083984375,1.8451064825057983,-8.193182945251465,-4.607266902923584
1761400366205451000,11.897450927734376,1.8827403783798218,-8.08626651763916,-4.857685565948486
1761400366215532000,11.907531982421874,1.763179898262024,-8.111854553222656,-4.799177169799805
1761400366225612800,11.91761279296875,1.6831238269805908,-8.192434310913086,-4.742614269256592
1761400366235694800,11.92769482421875,1.6267852783203125,-8.399831771850586,-4.831499099731445
1761400366245777200,11.937777099609375,1.5536872148513794,-8.599373817443848,-4.674005508422852
1761400366255852000,11.94785205078125,1.4723591804504395,-8.558897018432617,-4.502969741821289
1761400366265938000,11.95793798828125,1.352349877357483,-8.298677444458008,-4.3954548835754395
1761400366276020500,11.9680205078125,1.234061360359192,-8.12173080444336,-4.46630859375
1761400366286101800,11.978101806640625,1.1173440217971802,-7.922114372253418,-4.4764838218688965
1761400366296172000,11.988172119140625,0.9701005816459656,-7.8034515380859375,-4.286818027496338
1761400366306264300,11.998264404296876,0.7808838486671448,-7.465045928955078,-3.992555856704712
1761400366316333000,12.0083330078125,0.5396680235862732,-7.210512638092041,-3.6927568912506104
1761400366326423800,12.018423828125,0.21525369584560394,-6.811279296875,-3.399242639541626
1761400366336494000,12.028494140625,-0.20934301614761353,-6.004882335662842,-3.101463794708252
1761400366346575600,12.03857568359375,-0.4959738552570343,-5.639542102813721,-2.9112744331359863
1761400366356662000,12.048662109375,-0.6584054827690125,-5.55245304107666,-2.8235867023468018
1761400366366737700,12.058737548828125,-0.706139862537384,-4.744858741760254,-2.0103063583374023
1761400366376820200,12.0688203125,-0.8208370804786682,-3.2078561782836914,-1.9179052114486694
1761400366386911000,12.078910888671874,0.5553051829338074,-3.6040217876434326,-1.665242075920105
1761400366396968700,12.08896875,2.2275803089141846,-4.512321949005127,-0.7827543020248413
1761400366407075300,12.099075439453125,4.170848846435547,-6.264877796173096,-1.0958709716796875
1761400366417143600,12.1091435546875,5.5942769050598145,-6.559813499450684,-0.8264485001564026
1761400366427238000,12.11923779296875,6.511555194854736,-6.872256755828857,-1.9689316749572754
1761400366437318700,12.129318603515625,6.809109687805176,-6.925228595733643,-4.322656154632568
1761400366447389700,12.1393896484375,7.647603988647461,-6.95119047164917,-6.334534168243408
1761400366457462800,12.149462890625,9.018284797668457,-6.454019546508789,-6.346654415130615
1761400366467561700,12.159561767578126,7.008950710296631,-6.600888729095459,-4.153865337371826
1761400366477631000,12.169630859375,1.3836989402770996,-5.049147129058838,-2.2700772285461426
1761400366487724300,12.179724365234375,-3.806032419204712,-3.178976058959961,-1.6519991159439087
1761400366497794800,12.189794921875,-2.9970169067382812,-2.57234525680542,-1.6424223184585571
1761400366507885800,12.1998857421875,-0.5291185975074768,-1.9003227949142456,-2.0412065982818604
1761400366517965600,12.209965576171875,5.807660102844238,-2.499022960662842,-6.582782745361328
1761400366528048400,12.22004833984375,6.860734462738037,-3.0698153972625732,-7.478363990783691
1761400366538130000,12.2301298828125,2.9652187824249268,-3.078644037246704,-6.843526363372803
1761400366548209400,12.24020947265625,3.592798948287964,-4.8377838134765625,-8.146346092224121
1761400366558292000,12.2502919921875,9.113229751586914,-8.839616775512695,-9.792434692382812
1761400366568360000,12.26035986328125,9.266532897949219,-13.978397369384766,-10.734627723693848
1761400366578441200,12.270441162109375,10.144906044006348,-19.470470428466797,-13.662885665893555
1761400366588522800,12.280522705078125,7.224279403686523,-21.160552978515625,-17.825504302978516
1761400366598616300,12.2906162109375,7.942389965057373,-20.17571258544922,-19.216835021972656
1761400366608697600,12.300697509765625,10.486004829406738,-21.79501724243164,-16.96463966369629
1761400366618781400,12.310781494140626,10.737845420837402,-19.366548538208008,-16.04810905456543
1761400366628860000,12.32085986328125,12.227113723754883,-19.414655685424805,-17.36319923400879
1761400366638938600,12.330938720703125,12.130821228027344,-20.35333251953125,-18.410663604736328
1761400366649022000,12.34102197265625,10.772934913635254,-19.909358978271484,-17.947385787963867
1761400366659101200,12.35110107421875,10.707019805908203,-21.6616153717041,-18.124406814575195
1761400366669171500,12.36117138671875,10.119767189025879,-23.17041015625,-17.502511978149414
1761400366679240400,12.371240478515626,8.937629699707031,-20.706851959228516,-14.162302017211914
1761400366689333800,12.381333740234375,6.814047813415527,-16.55208969116211,-11.597213745117188
1761400366699427300,12.39142724609375,6.122796535491943,-13.576919555664062,-10.676942825317383
1761400366709506300,12.40150634765625,5.48384428024292,-10.303522109985352,-10.997016906738281
1761400366719590000,12.41158984375,3.0033016204833984,-9.18468189239502,-12.000262260437012
1761400366729671000,12.4216708984375,1.5269769430160522,-8.790236473083496,-11.756952285766602
1761400366739752200,12.431752197265626,1.7946038246154785,-8.222810745239258,-10.381183624267578
1761400366749828400,12.441828369140625,2.5223662853240967,-8.01616096496582,-8.613964080810547
1761400366759914000,12.4519140625,3.2353146076202393,-7.419406414031982,-4.400243282318115
1761400366769985500,12.461985595703124,1.580397605895996,-7.550189971923828,0.4825064539909363
1761400366780076000,12.472075927734375,-1.3664158582687378,-7.782502174377441,3.3518075942993164
1761400366790157800,12.48215771484375,-4.079046249389648,-6.496142387390137,4.211101531982422
1761400366800216600,12.492216552734375,-6.754117965698242,-4.25778865814209,4.53723669052124
1761400366810320000,12.50231982421875,-7.508665561676025,-3.6301333904266357,3.0401124954223633
1761400366820400600,12.512400634765624,-6.3961100578308105,-2.9153146743774414,1.2283750772476196
1761400366830482400,12.522482421875,-2.5737667083740234,-1.567079782485962,-1.323395013809204
1761400366840559600,12.5325595703125,4.830077648162842,-0.23455694317817688,-4.451793670654297
1761400366850633000,12.542633056640625,10.7279691696167,0.9735422730445862,-3.9305310249328613
1761400366860712000,12.5527119140625,5.9928364753723145,1.122057557106018,2.755875825881958
1761400366870806300,12.56280615234375,-0.4165162742137909,1.8583494424819946,6.163947105407715
1761400366880887300,12.57288720703125,-5.1606268882751465,1.7702877521514893,4.868683815002441
1761400366890956000,12.5829560546875,-3.7461025714874268,0.009950900450348854,2.8278515338897705
1761400366901037300,12.593037353515625,1.0519523620605469,-3.159298896789551,0.8549544811248779
1761400366911131000,12.603130859375,3.314846992492676,-3.526808738708496,0.04324526712298393
1761400366921199600,12.61319970703125,2.0492870807647705,-1.2798504829406738,0.6641665101051331
1761400366931271200,12.623271240234375,0.29216742515563965,1.4064438343048096,0.42871174216270447
1761400366941354200,12.633354248046874,-1.1561750173568726,1.5402199029922485,-1.3468880653381348
1761400366951455500,12.64345556640625,-0.5333832502365112,-0.33997663855552673,-0.9728689193725586
1761400366961532700,12.65353271484375,0.7994388937950134,-0.5366004705429077,-1.1315596103668213
1761400366971617300,12.6636171875,-0.2016366720199585,1.3743466138839722,-1.1665748357772827
1761400366981699300,12.67369921875,-2.128894329071045,2.1844844818115234,-0.9113678336143494
1761400366991754500,12.68375439453125,-2.785130023956299,1.753229022026062,-0.7871686220169067
1761400367001861000,12.693861083984375,-2.4286184310913086,1.1176432371139526,-0.4490624666213989
1761400367011942400,12.7039423828125,-1.3559411764144897,0.7953987121582031,0.0071826050989329815
1761400367022010600,12.7140107421875,-0.19610008597373962,0.7793126702308655,0.5117605924606323
1761400367032103000,12.72410302734375,0.7443722486495972,0.885480523109436,0.5660790801048279
1761400367042185200,12.734185302734375,1.3152397871017456,1.3250410556793213,0.3396773636341095
1761400367052266800,12.744266845703125,1.3390321731567383,1.6193782091140747,0.32516252994537354
1761400367062323000,12.754322998046876,0.5762544274330139,2.1167736053466797,0.6701520085334778
1761400367072416300,12.764416259765625,-0.23859716951847076,2.2293758392333984,1.1490671634674072
1761400367082497800,12.774497802734375,-0.3381809890270233,2.5007436275482178,1.495927095413208
1761400367092589000,12.784589111328126,-0.31132104992866516,2.2037878036499023,1.8675521612167358
1761400367102672400,12.79467236328125,-0.634762704372406,1.1890952587127686,2.3623290061950684
1761400367112753200,12.804753173828125,-0.6624456644058228,0.4097077548503876,2.522067070007324
1761400367122823700,12.81482373046875,0.17140987515449524,-0.381052166223526,1.7471686601638794
1761400367132915200,12.824915283203126,2.1641337871551514,-0.737788200378418,0.4887164235115051
1761400367142996700,12.834996826171874,3.52628493309021,-0.9041852355003357,-0.047734394669532776
1761400367163157000,12.855156982421875,2.3052420616149902,-2.126500129699707,-1.1418845653533936
1761400367173220000,12.86522021484375,3.6355953216552734,-3.236511707305908,-3.287388563156128
1761400367183321300,12.8753212890625,3.5504515171051025,-5.810802459716797,-5.427131652832031
1761400367193402400,12.88540234375,1.1941081285476685,-8.453926086425781,-8.368184089660645
1761400367203483600,12.895483642578125,2.665644407272339,-13.473519325256348,-13.026776313781738
1761400367213549600,12.905549560546875,22.314857482910156,-22.514324188232422,-15.54472827911377
1761400367223631400,12.91563134765625,19.756053924560547,-23.41940689086914,0.28977322578430176
1761400367233726500,12.9257265625,-4.900257587432861,-18.687641143798828,-6.625205039978027
1761400367243774000,12.93577392578125,0.6216694116592407,-20.04500389099121,-22.48349952697754
1761400367253889000,12.945888916015624,23.169363021850586,-23.16607093811035,-39.79425048828125
1761400367263970000,12.955969970703125,10.702829360961914,-19.73772430419922,-28.156335830688477
1761400367274051300,12.96605126953125,7.916577339172363,-23.955184936523438,-12.111967086791992
1761400367284120600,12.97612060546875,7.69346809387207,-27.614049911499023,-10.617461204528809
1761400367294213600,12.986213623046876,13.21135425567627,-26.88089942932129,-16.11013412475586
1761400367304282400,12.996282470703125,15.228469848632812,-26.32349967956543,-19.695825576782227
