time,seconds_elapsed,z,y,x
1761315282088706000,0.2437060546875,0,0,0
1761315282145470700,0.300470703125,-0.012765169143676758,0.02062511444091797,-0.039830684661865234
1761315282164392400,0.319392333984375,-0.016509532928466797,0.018937110900878906,-0.031755924224853516
1761315282183314000,0.33831396484375,-0.0323641300201416,0.003696441650390625,-0.03177833557128906
1761315282202235600,0.357235595703125,-0.004151105880737305,-0.010087013244628906,0.04411458969116211
1761315282221157000,0.3761572265625,0.018206357955932617,-0.009778022766113281,0.04847145080566406
1761315282240078800,0.395078857421875,0.023581266403198242,0.02244091033935547,-0.017403602600097656
1761315282259000300,0.414000244140625,0.011587858200073242,-0.015408515930175781,-0.03169393539428711
1761315282277922000,0.432922119140625,-0.03790712356567383,0.011450767517089844,0.016407489776611328
1761315282296843800,0.45184375,0.013868570327758789,0.018523216247558594,-0.003215789794921875
1761315282315765200,0.47076513671875,0.012100696563720703,0.009499549865722656,-0.030799388885498047
1761315282334686700,0.489686767578125,-0.02222919464111328,0.02438831329345703,-0.053862571716308594
1761315282353608400,0.5086083984375,-0.016684293746948242,-0.0070552825927734375,-0.021771907806396484
1761315282372530200,0.5275302734375,-0.011380434036254883,-0.04830455780029297,0.0973973274230957
1761315282410373000,0.565373046875,-0.027623891830444336,-0.012447357177734375,0.029406070709228516
1761315282429294800,0.584294921875,-0.035744428634643555,0.059093475341796875,-0.013529300689697266
1761315282448216600,0.603216552734375,-0.022537708282470703,0.05113506317138672,-0.037352561950683594
1761315282467138000,0.622137939453125,-0.026683568954467773,-0.0294952392578125,-0.06238555908203125
1761315282486059500,0.6410595703125,-0.027672529220581055,-0.01707744598388672,-0.01275777816772461
1761315282504981200,0.659981201171875,-0.019956350326538086,-0.021126747131347656,0.013077259063720703
1761315282523903000,0.678903076171875,0.0060236454010009766,0.09885406494140625,-0.041574954986572266
1761315282542824400,0.697824462890625,-0.011405706405639648,-0.0014190673828125,0.0011968612670898438
1761315282561746200,0.71674609375,-0.014432191848754883,0.021139144897460938,0.032027244567871094
1761315282580667600,0.735667724609375,-0.003571748733520508,0.028893470764160156,-0.012309551239013672
1761315282599589400,0.75458935546875,-0.0014944076538085938,0.04396629333496094,-0.05523204803466797
1761315282618510800,0.7735107421875,0.009725093841552734,-0.006377220153808594,0.024035930633544922
1761315282637432600,0.7924326171875,0.0044574737548828125,-0.03234672546386719,0.059238433837890625
1761315282656354000,0.81135400390625,-0.04275798797607422,0.005123138427734375,0.02823162078857422
1761315282675275800,0.83027587890625,0.039229631423950195,-0.0814666748046875,0.10729598999023438
1761315282694197200,0.849197265625,0.02954268455505371,-0.018978118896484375,0.04079008102416992
1761315282713119000,0.868118896484375,-0.030928611755371094,-0.0020360946655273438,0.011806964874267578
1761315282732040400,0.88704052734375,-0.04065132141113281,-0.021089553833007812,0.0048503875732421875
1761315282750962200,0.905962158203125,-0.009447097778320312,0.013550758361816406,-0.0012187957763671875
1761315282769883600,0.924883544921875,0.023737430572509766,-0.019303321838378906,0.03601503372192383
1761315282788805400,0.943805419921875,0.0006234645843505859,0.019753456115722656,0.023895740509033203
1761315282807726800,0.962726806640625,0.03669619560241699,-0.03769683837890625,-0.0297393798828125
1761315282826648600,0.981648681640625,0.0224151611328125,0.04295825958251953,-0.03355121612548828
1761315282845570000,1.000570068359375,0.01381826400756836,0.11339378356933594,-0.08960437774658203
1761315282864491800,1.01949169921875,0.015746116638183594,0.10215568542480469,-0.027254104614257812
1761315282883413200,1.038413330078125,0.024707794189453125,-0.0018320083618164062,-0.04419898986816406
1761315282902335000,1.0573349609375,0.04738211631774902,-0.029771804809570312,-0.019207000732421875
1761315282921256400,1.07625634765625,0.004549980163574219,-0.02899646759033203,0.02369546890258789
1761315282940178200,1.09517822265625,-0.018411636352539062,0.015299797058105469,0.06121969223022461
1761315282959099600,1.114099609375,0.027632474899291992,0.011447906494140625,0.04619026184082031
1761315282978021400,1.133021484375,0.03955864906311035,-0.006003379821777344,-0.008406639099121094
1761315282996942800,1.15194287109375,0.027561426162719727,0.03568840026855469,-0.04765892028808594
1761315283015864600,1.170864501953125,-0.0206143856048584,0.05990028381347656,-0.05295610427856445
1761315283034786000,1.1897861328125,-0.012136697769165039,0.025478363037109375,-0.013415336608886719
1761315283053707800,1.208707763671875,0.03550267219543457,-0.010221481323242188,0.019733905792236328
1761315283072629200,1.227629150390625,0.06034564971923828,-0.03104877471923828,0.024096012115478516
1761315283091551000,1.246551025390625,0.024944782257080078,-0.011359214782714844,-0.01361846923828125
1761315283110472400,1.265472412109375,-0.01684880256652832,0.028406143188476562,-0.04613971710205078
1761315283129394200,1.284394287109375,-0.007931709289550781,0.059075355529785156,-0.07393360137939453
1761315283148315600,1.303315673828125,-0.015086650848388672,0.032917022705078125,-0.04742002487182617
1761315283167237400,1.3222373046875,-0.005588054656982422,0.017264366149902344,-0.05925607681274414
1761315283186158800,1.341158935546875,0.02609109878540039,0.018335342407226562,-0.019169330596923828
1761315283205080600,1.36008056640625,0.03508472442626953,0.014949798583984375,-0.029648303985595703
1761315283224002000,1.379001953125,0.02440476417541504,-0.023181915283203125,0.044341087341308594
1761315283242923800,1.397923828125,-0.016318559646606445,-0.041088104248046875,0.037786006927490234
1761315283261845200,1.41684521484375,-0.03672432899475098,-0.025969505310058594,0.01957559585571289
1761315283280767000,1.43576708984375,-0.028135299682617188,0.03338050842285156,-0.011565685272216797
1761315283299688400,1.4546884765625,-0.0033638477325439453,0.03485679626464844,0.016869544982910156
1761315283318610200,1.473610107421875,0.0252530574798584,-0.02439594268798828,0.005012989044189453
1761315283337531600,1.49253173828125,-0.031711578369140625,-0.018950462341308594,-0.02283620834350586
1761315283356453400,1.511453369140625,-0.0027985572814941406,-0.018836021423339844,-0.01617288589477539
1761315283375374800,1.530374755859375,0.039276838302612305,0.020966529846191406,0.027339935302734375
1761315283394296600,1.549296630859375,0.004894733428955078,0.0483551025390625,-0.006028175354003906
1761315283413218000,1.568218017578125,0.01828169822692871,0.019209861755371094,-0.07653474807739258
1761315283432139800,1.587139892578125,0.024097204208374023,0.05437660217285156,-0.03496980667114258
1761315283451061200,1.606061279296875,0.01505589485168457,0.05928611755371094,-0.022081851959228516
1761315283469983000,1.62498291015625,-0.03711819648742676,-0.0243377685546875,-0.031502723693847656
1761315283488904400,1.643904541015625,-0.05053997039794922,-0.012051582336425781,0.008919239044189453
1761315283507826200,1.662826171875,-0.0045719146728515625,-0.07619476318359375,0.09232473373413086
1761315283526747600,1.68174755859375,-0.0050656795501708984,-0.04812908172607422,0.11986207962036133
1761315283545669400,1.70066943359375,-0.007039546966552734,0.0111083984375,0.09504175186157227
1761315283564590800,1.7195908203125,0.028392314910888672,0.0019006729125976562,0.020492076873779297
1761315283583512600,1.7385126953125,0.08591437339782715,0.02577495574951172,-0.011286258697509766
1761315283602434300,1.757434326171875,-0.031001806259155273,0.06294727325439453,-0.05395078659057617
1761315283621355800,1.776355712890625,-0.033330440521240234,0.02423572540283203,-0.059737205505371094
1761315283640277500,1.795277587890625,0.025516033172607422,-0.013440132141113281,-0.01639413833618164
1761315283659199000,1.814198974609375,0.053603172302246094,-0.02870655059814453,0.03722715377807617
1761315283678120700,1.83312060546875,0.01486349105834961,0.03566741943359375,-0.04613924026489258
1761315283697042200,1.852042236328125,0.017745494842529297,0.03947162628173828,-0.05416393280029297
1761315283715964000,1.8709638671875,-0.003818988800048828,0.001007080078125,-0.033762454986572266
1761315283734885400,1.889885498046875,-0.006844758987426758,-0.012895584106445312,0.05364227294921875
1761315283753807000,1.90880712890625,-0.007965803146362305,0.0014104843139648438,0.0681619644165039
1761315283772728600,1.927728515625,0.050290822982788086,0.05481529235839844,-0.09009218215942383
1761315283791650300,1.946650390625,0.045136451721191406,-0.004627227783203125,-0.03108978271484375
1761315283810571800,1.96557177734375,0.002586841583251953,-0.024784088134765625,0.06249427795410156
1761315283829493500,1.984493408203125,-0.014487743377685547,-0.086212158203125,0.03572416305541992
1761315283848415000,2.0034150390625,-0.026851177215576172,-0.026291847229003906,0.07286310195922852
1761315283867336700,2.022336669921875,0.006213665008544922,-0.003940582275390625,0.0394439697265625
1761315283886258200,2.041258056640625,0.0001304149627685547,-0.030923843383789062,-0.006672859191894531
1761315283905180000,2.060179931640625,0.019875049591064453,-0.015333175659179688,0.060718536376953125
1761315283924101400,2.079101318359375,0.010970354080200195,0.020826339721679688,0.007164955139160156
1761315283943023000,2.098023193359375,-0.03367328643798828,0.0018329620361328125,-0.07746219635009766
1761315283961944600,2.116944580078125,-0.015546083450317383,0.02070903778076172,-0.042821407318115234
1761315283980866300,2.1358662109375,-0.018552541732788086,0.02484607696533203,0.007670879364013672
1761315283999787800,2.154787841796875,0.022556304931640625,-0.0014286041259765625,0.019422054290771484
1761315284018709500,2.17370947265625,0.0030565261840820312,-0.04293537139892578,0.042199134826660156
1761315284037631000,2.192630859375,-0.018279552459716797,-0.02720355987548828,0.02429676055908203
1761315284056552700,2.211552734375,-0.007236003875732422,0.0018558502197265625,-0.004596710205078125
1761315284075474200,2.23047412109375,0.032610177993774414,0.055922508239746094,-0.07677984237670898
1761315284094396000,2.24939599609375,0.06055092811584473,0.050574302673339844,-0.1006765365600586
1761315284113317600,2.268317626953125,0.05982708930969238,0.039020538330078125,-0.09812259674072266
1761315284132239000,2.287239013671875,0.035797834396362305,0.0462799072265625,-0.08246040344238281
1761315284151160600,2.30616064453125,-0.0325779914855957,-0.002307891845703125,-0.06927680969238281
1761315284170082300,2.325082275390625,-0.010350942611694336,-0.09659194946289062,0.07846403121948242
1761315284189004000,2.344004150390625,0.015950918197631836,-0.08479118347167969,0.12795686721801758
1761315284207925500,2.362925537109375,-0.02091670036315918,-0.03422355651855469,0.1039113998413086
1761315284226847200,2.38184716796875,-0.06188249588012695,0.044341087341308594,0.045937538146972656
1761315284245768700,2.400768798828125,-0.058971405029296875,-0.018156051635742188,0.006927013397216797
1761315284264690400,2.4196904296875,-0.03283381462097168,-0.03370857238769531,0.05160093307495117
1761315284283612000,2.43861181640625,-0.0031938552856445312,-0.04185962677001953,0.03130960464477539
1761315284302533600,2.45753369140625,-0.0024137496948242188,-0.004965782165527344,-0.01180267333984375
1761315284321455000,2.476455078125,0.009917974472045898,0.03987693786621094,-0.08371973037719727
1761315284340376800,2.495376953125,0.03413701057434082,0.10441112518310547,-0.09058523178100586
1761315284359298300,2.51429833984375,0.003530740737915039,0.07043933868408203,-0.06847047805786133
1761315284378220000,2.533219970703125,-0.0007901191711425781,0.025658607482910156,-0.020915985107421875
1761315284397141500,2.5521416015625,0.013146400451660156,-0.05580711364746094,0.005352020263671875
1761315284416063200,2.571063232421875,0.02312755584716797,-0.08246040344238281,0.07921600341796875
1761315284434985000,2.58998486328125,-0.025783061981201172,-0.05033588409423828,0.09128999710083008
1761315284453906400,2.608906494140625,-0.05182600021362305,0.03456592559814453,0.009659290313720703
1761315284472828000,2.627827880859375,-0.07568931579589844,0.006966590881347656,-0.029087543487548828
1761315284491749600,2.64674951171875,-0.10319924354553223,-0.08251285552978516,-0.013252735137939453
1761315284510671400,2.66567138671875,-0.06428861618041992,-0.10761451721191406,0.1434636116027832
1761315284529592800,2.6845927734375,-0.03603219985961914,-0.11110973358154297,0.11761951446533203
1761315284548514600,2.7035146484375,-0.02037644386291504,-0.03721427917480469,0.06494283676147461
1761315284567436000,2.72243603515625,0.00524449348449707,-0.029123306274414062,0.042412757873535156
1761315284586357800,2.741357666015625,0.011454343795776367,0.041970252990722656,-0.023743152618408203
1761315284605279200,2.760279296875,-0.00574493408203125,0.108245849609375,-0.15292739868164062
1761315284624201000,2.779200927734375,0.0014224052429199219,0.09706974029541016,-0.16789484024047852
1761315284643122700,2.798122802734375,0.05757570266723633,0.11908435821533203,-0.09423828125
1761315284662044200,2.817044189453125,0.038857460021972656,0.05658245086669922,-0.08762454986572266
1761315284680966000,2.8359658203125,0.059403419494628906,0.09168720245361328,-0.0178375244140625
1761315284699887400,2.854887451171875,0.04842376708984375,0.01860523223876953,-0.022763729095458984
1761315284718809000,2.87380908203125,0.036490678787231445,-0.10877609252929688,0.07724428176879883
1761315284737730600,2.89273046875,-0.029681682586669922,-0.12252521514892578,0.11773681640625
1761315284756652300,2.91165234375,-0.02387070655822754,-0.0640411376953125,0.1529102325439453
1761315284775573800,2.93057373046875,0.015347003936767578,0.011090278625488281,0.10271930694580078
1761315284794495500,2.94949560546875,0.03186488151550293,-0.05341815948486328,0.016750812530517578
1761315284813417000,2.9684169921875,-0.03397035598754883,-0.017004013061523438,0.023154258728027344
1761315284832338700,2.987338623046875,-0.09702157974243164,0.009069442749023438,-0.0035338401794433594
1761315284851260200,3.00626025390625,-0.05967593193054199,0.038178443908691406,-0.04500007629394531
1761315284870182000,3.025181884765625,0.007501125335693359,0.055327415466308594,-0.06369209289550781
1761315284889103600,3.044103515625,0.07138967514038086,0.09991073608398438,-0.04400777816772461
1761315284908025000,3.063025146484375,0.14722132682800293,0.08723258972167969,-0.13034868240356445
1761315284926946800,3.08194677734375,0.11210823059082031,0.054589271545410156,-0.13794469833374023
1761315284945868300,3.100868408203125,0.05234408378601074,0.10026264190673828,-0.15871572494506836
1761315284964790000,3.1197900390625,-0.04197835922241211,0.12802791595458984,-0.14034318923950195
1761315284983711500,3.13871142578125,0.049775123596191406,0.1190805435180664,-0.039490699768066406
1761315285002633200,3.15763330078125,0.08489513397216797,0.0734567642211914,0.007077693939208984
1761315285021554700,3.1765546875,0.03192734718322754,-0.012784004211425781,-0.027016639709472656
1761315285040476400,3.195476318359375,0.022075176239013672,-0.07567119598388672,0.04026365280151367
1761315285059398100,3.214398193359375,0.01813507080078125,-0.0947723388671875,0.08412837982177734
1761315285078319600,3.233319580078125,-0.02844715118408203,-0.131866455078125,0.12914228439331055
1761315285097241300,3.252241455078125,-0.05753326416015625,-0.035003662109375,0.14437150955200195
1761315285116162800,3.271162841796875,-0.04262948036193848,0.0043659210205078125,0.0987997055053711
1761315285135084500,3.29008447265625,0.0017735958099365234,-0.07110595703125,0.045862674713134766
1761315285154006000,3.309006103515625,-0.045592308044433594,0.0009260177612304688,0.0495762825012207
1761315285172927700,3.327927734375,-0.05248117446899414,-0.04835033416748047,0.03660011291503906
1761315285191849500,3.346849365234375,-0.012126922607421875,-0.07220745086669922,0.07806634902954102
1761315285210771000,3.36577099609375,0.01569080352783203,-0.03196430206298828,0.10811853408813477
1761315285229692700,3.384692626953125,0.01819634437561035,-0.07048606872558594,0.07439899444580078
1761315285248614100,3.4036142578125,0.017609119415283203,-0.05424690246582031,0.09810686111450195
1761315285267536000,3.422535888671875,0.032837867736816406,-0.03633594512939453,0.06755638122558594
1761315285286457300,3.441457275390625,0.02410125732421875,-0.014985084533691406,-0.015073299407958984
1761315285305379000,3.460379150390625,0.04654121398925781,-0.013230323791503906,-0.059945106506347656
1761315285324300800,3.47930078125,0.04236888885498047,-0.02318286895751953,0.00690460205078125
1761315285343222300,3.49822216796875,0.030523061752319336,-0.030300140380859375,0.08994722366333008
1761315285362144000,3.51714404296875,0.013537406921386719,-0.007191658020019531,0.037007808685302734
1761315285381065500,3.5360654296875,0.031768798828125,-0.004256248474121094,-0.0045490264892578125
1761315285399987200,3.5549873046875,0.02320098876953125,-0.022073745727539062,-0.007258892059326172
1761315285418908700,3.57390869140625,-0.024554014205932617,0.04009532928466797,-0.007945060729980469
1761315285437830400,3.592830322265625,-0.021060943603515625,0.07240867614746094,-0.09260129928588867
1761315285456751900,3.611751953125,-0.012122154235839844,0.08533000946044922,-0.08099985122680664
1761315285475673600,3.630673583984375,-0.005538225173950195,0.025737762451171875,-0.03460216522216797
1761315285494595300,3.64959521484375,0.005471944808959961,0.047458648681640625,-0.00146484375
1761315285513516800,3.668516845703125,0.019312381744384766,0.07526302337646484,-0.033101558685302734
1761315285532438500,3.6874384765625,0.01641368865966797,0.06328582763671875,-0.10582876205444336
1761315285551360000,3.706360107421875,-0.0023050308227539062,0.1037893295288086,-0.12738752365112305
1761315285570281700,3.72528173828125,0.0094451904296875,0.13364696502685547,-0.08979368209838867
1761315285589203500,3.744203369140625,0.03797292709350586,0.10461711883544922,-0.07253360748291016
1761315285608125000,3.763125,0.0571131706237793,0.05853462219238281,-0.09174585342407227
1761315285627046700,3.782046630859375,0.021922588348388672,0.03282928466796875,-0.043356895446777344
1761315285645968100,3.800968017578125,0.030341148376464844,0.003772735595703125,0.045905113220214844
1761315285664889900,3.819889892578125,0.011995315551757812,-0.03858661651611328,0.06376028060913086
1761315285683811300,3.838811279296875,0.0025534629821777344,-0.04483318328857422,0.0834665298461914
1761315285702733000,3.857733154296875,0.011532068252563477,-0.03240394592285156,0.030080795288085938
1761315285721654800,3.87665478515625,0.008068561553955078,-0.020231246948242188,-0.01686859130859375
1761315285740576300,3.895576171875,0.013576745986938477,0.014514923095703125,-0.07462882995605469
1761315285759498000,3.914498046875,-0.036779165267944336,0.08761024475097656,-0.1539449691772461
1761315285778419500,3.93341943359375,-0.02827906608581543,0.09567737579345703,-0.1435680389404297
1761315285797341200,3.952341064453125,0.02036142349243164,0.0900735855102539,-0.06138801574707031
1761315285816262700,3.9712626953125,0.03680276870727539,0.03073883056640625,-0.03809976577758789
1761315285835184400,3.990184326171875,-0.008588314056396484,-0.0009059906005859375,-0.051113128662109375
1761315285854106000,4.009106201171875,-0.03175020217895508,-0.052819252014160156,0.015937328338623047
1761315285873027600,4.028027587890625,-0.0638728141784668,-0.040130615234375,0.07601451873779297
1761315285891949300,4.04694921875,-0.05806708335876465,-0.0940389633178711,0.10473155975341797
1761315285910870800,4.065870849609375,-0.05739235877990723,-0.11425971984863281,0.09294652938842773
1761315285929792500,4.08479248046875,-0.05524921417236328,-0.11925792694091797,0.13358354568481445
1761315285948714200,4.10371435546875,-0.004288196563720703,-0.0961008071899414,0.15610218048095703
1761315285967635700,4.1226357421875,-0.029915571212768555,-0.045920372009277344,0.05640077590942383
1761315285986557400,4.141557373046875,-0.037392616271972656,0.02160167694091797,-0.056478023529052734
1761315286005479000,4.16047900390625,-0.021623611450195312,0.07076644897460938,-0.0976858139038086
1761315286024400600,4.179400634765625,-0.02664327621459961,0.020097732543945312,-0.029544353485107422
1761315286043322400,4.198322265625,0.008733034133911133,-0.012436866760253906,0.02250194549560547
1761315286062243800,4.217243896484375,0.04640364646911621,-0.02582073211669922,0.030681133270263672
1761315286081165600,4.23616552734375,0.007271528244018555,-0.034481048583984375,0.01763153076171875
1761315286100087000,4.255087158203125,-0.024721860885620117,-0.05491161346435547,0.05745410919189453
1761315286119008800,4.2740087890625,-0.06029081344604492,-0.05454730987548828,0.06391096115112305
1761315286137930500,4.292930419921875,-0.03403067588806152,-0.05837440490722656,0.13741540908813477
1761315286156852000,4.31185205078125,-0.04354119300842285,-0.04329872131347656,0.07532596588134766
1761315286175773700,4.330773681640625,-0.019976377487182617,-0.007575035095214844,0.0009851455688476562
1761315286194695200,4.349695068359375,-0.0356287956237793,0.027181625366210938,-0.03104114532470703
1761315286213617000,4.368616943359375,0.003606081008911133,0.040337562561035156,-0.012969493865966797
1761315286232538600,4.38753857421875,0.023026227951049805,-0.014679908752441406,-0.01451253890991211
1761315286251460000,4.406460205078125,-0.0052797794342041016,-0.009716033935546875,-0.04435014724731445
1761315286270381800,4.4253818359375,0.042429447174072266,-0.034682273864746094,0.020716190338134766
1761315286289303300,4.44430322265625,0.07673287391662598,-0.013085365295410156,0.11253118515014648
1761315286308225000,4.46322509765625,0.06900930404663086,-0.06457805633544922,0.0889444351196289
1761315286327146800,4.482146728515625,0.07204246520996094,-0.06322574615478516,0.0372920036315918
1761315286346068200,4.501068115234375,0.0016224384307861328,-0.04599189758300781,0.022809505462646484
1761315286364990000,4.519989990234375,-0.024000883102416992,0.0027399063110351562,0.017124652862548828
1761315286383911400,4.538911376953125,0.026703834533691406,0.05013751983642578,-0.018819332122802734
1761315286402833200,4.557833251953125,0.06862711906433105,0.03300762176513672,-0.060938358306884766
1761315286421755000,4.5767548828125,0.06015801429748535,0.009715080261230469,-0.07407283782958984
1761315286440676400,4.59567626953125,0.012150049209594727,0.019952774047851562,0.0018453598022460938
1761315286459598000,4.61459814453125,0.013447284698486328,0.06769561767578125,-0.006309986114501953
1761315286478519800,4.633519775390625,0.026455163955688477,0.08613204956054688,-0.06788825988769531
1761315286497441300,4.652441162109375,0.013335227966308594,0.05056285858154297,-0.05059194564819336
1761315286516363000,4.671363037109375,0.019631624221801758,-0.02645587921142578,-0.009129524230957031
1761315286535284500,4.690284423828125,0.03503894805908203,-0.0018110275268554688,-0.018255233764648438
1761315286554206200,4.709206298828125,-0.01471567153930664,0.07578468322753906,-0.03691530227661133
1761315286573128000,4.7281279296875,0.018033266067504883,0.09970664978027344,-0.05673933029174805
1761315286592049400,4.74704931640625,0.03972601890563965,0.041309356689453125,-0.027348041534423828
1761315286610971100,4.76597119140625,0.06981301307678223,-0.00167083740234375,0.0035982131958007812
1761315286629892600,4.784892578125,0.03745293617248535,-0.01711750030517578,-0.00858926773071289
1761315286648814300,4.803814453125,0.024143218994140625,-0.022726058959960938,-0.0065174102783203125
1761315286667736000,4.822736083984375,0.02505016326904297,0.022101402282714844,-0.001789093017578125
1761315286686657500,4.841657470703125,-0.013885736465454102,0.03251934051513672,-0.01975727081298828
1761315286705579300,4.860579345703125,0.01591968536376953,0.00521087646484375,0.04923057556152344
1761315286724500700,4.879500732421875,-0.0089569091796875,0.011400222778320312,0.03162431716918945
1761315286743422500,4.89842236328125,-0.004334211349487305,0.015954017639160156,0.009474754333496094
1761315286762344200,4.91734423828125,-0.027541637420654297,0.022622108459472656,-0.017062664031982422
1761315286781265700,4.936265625,-0.003168344497680664,-0.012751579284667969,0.0013742446899414062
1761315286800187400,4.9551875,-0.015003681182861328,-0.051532745361328125,0.023899555206298828
1761315286819109000,4.974109130859375,-0.01218724250793457,-0.00934600830078125,0.024941444396972656
1761315286838030600,4.993030517578125,-0.056531667709350586,0.05450725555419922,-0.020992755889892578
1761315286856952300,5.011952392578125,-0.03619647026062012,0.019692420959472656,-0.029610157012939453
1761315286875873800,5.030873779296875,-0.03704071044921875,-0.006626129150390625,-0.026108741760253906
1761315286894795500,5.04979541015625,-0.009423494338989258,-0.014811515808105469,0.02115345001220703
1761315286913717200,5.06871728515625,-0.01057887077331543,0.0069980621337890625,0.04128122329711914
1761315286932638700,5.087638671875,-0.008987188339233398,0.011982917785644531,0.018439769744873047
1761315286951560400,5.106560546875,0.02551126480102539,-0.003787994384765625,-0.004273891448974609
1761315286970482000,5.12548193359375,0.05144906044006348,-0.0002155303955078125,-0.01941680908203125
1761315286989403600,5.144403564453125,0.03664851188659668,0.012294769287109375,-0.020148277282714844
1761315287008325400,5.163325439453125,0.02693653106689453,0.02662944793701172,0.005597114562988281
1761315287027246800,5.182246826171875,0.03836560249328613,0.04029273986816406,-0.02801513671875
1761315287046168600,5.20116845703125,0.07662653923034668,0.0025682449340820312,-0.06288814544677734
1761315287065090300,5.22009033203125,0.006641864776611328,0.05005455017089844,-0.003120899200439453
1761315287084011800,5.23901171875,-0.015878677368164062,0.016182899475097656,0.044999122619628906
1761315287102933500,5.25793359375,0.014508247375488281,-0.01583576202392578,0.03334760665893555
1761315287121855200,5.276855224609375,0.027248144149780273,0.021246910095214844,0.023805618286132812
1761315287140776700,5.295776611328125,-0.028749942779541016,0.02693462371826172,-0.04673480987548828
1761315287159698400,5.314698486328125,-0.07244181632995605,0.0022602081298828125,-0.005212306976318359
1761315287178620000,5.333619873046875,-0.055596351623535156,0.00202178955078125,-0.012041568756103516
1761315287197541600,5.352541748046875,-0.02756977081298828,-0.02852916717529297,-0.018261432647705078
1761315287216463400,5.37146337890625,-0.013103485107421875,-0.033072471618652344,-0.029538631439208984
1761315287235384800,5.390384765625,-0.009219884872436523,-0.011888504028320312,-0.006806850433349609
1761315287254306600,5.409306640625,-0.048224449157714844,-0.022380828857421875,0.004171848297119141
1761315287273228300,5.428228271484375,-0.0329439640045166,-0.028894424438476562,0.04173088073730469
1761315287292149800,5.447149658203125,-0.006767988204956055,-0.0396728515625,0.026192188262939453
1761315287311071500,5.466071533203125,-0.02546834945678711,0.03396892547607422,0.027640819549560547
1761315287329993000,5.484992919921875,-0.003526449203491211,0.01917266845703125,0.008059024810791016
1761315287348914700,5.503914794921875,0.02313399314880371,-0.00666046142578125,0.03557634353637695
1761315287367836400,5.52283642578125,0.04000425338745117,-0.026381492614746094,0.04509449005126953
1761315287386758000,5.5417578125,0.05641031265258789,-0.014820098876953125,0.01670551300048828
1761315287405679600,5.5606796875,0.03289198875427246,0.014824867248535156,-0.00861501693725586
1761315287424601300,5.579601318359375,0.031227588653564453,0.04078197479248047,-0.009579658508300781
1761315287443522800,5.598522705078125,0.032067060470581055,0.02655792236328125,0.017661571502685547
1761315287462444500,5.617444580078125,0.04644441604614258,-0.033514976501464844,0.004218578338623047
1761315287481366300,5.6363662109375,0.05605888366699219,-0.009802818298339844,0.03542757034301758
1761315287500287700,5.655287841796875,0.011261224746704102,-0.010487556457519531,0.0867915153503418
1761315287519209500,5.67420947265625,-0.011223316192626953,-0.023248672485351562,0.06956100463867188
1761315287538131000,5.693130859375,0.007654428482055664,-0.05252361297607422,0.027544021606445312
1761315287557052700,5.712052734375,-0.030551671981811523,-0.05701446533203125,-0.015267372131347656
1761315287575974400,5.730974365234375,-0.0607752799987793,0.012475967407226562,-0.005881786346435547
1761315287594896000,5.749895751953125,-0.04272103309631348,-0.025208473205566406,-0.015051841735839844
1761315287613817600,5.768817626953125,-0.027301549911499023,0.010705947875976562,-0.007636070251464844
1761315287632739300,5.7877392578125,-0.03784799575805664,0.024410247802734375,-0.04054880142211914
1761315287651660800,5.806660888671875,-0.016644716262817383,0.04043006896972656,-0.022620677947998047
1761315287670609400,5.825609375,0.01270914077758789,-0.00734710693359375,0.0037822723388671875
1761315287689532400,5.844532470703125,0.03632164001464844,-0.027327537536621094,-0.017861366271972656
1761315287708455400,5.863455322265625,0.009680747985839844,0.04441261291503906,-0.062310218811035156
1761315287727347700,5.88234765625,0.01258230209350586,0.05523872375488281,-0.07010793685913086
1761315287746270700,5.901270751953125,0.04118013381958008,0.025777816772460938,-0.023163318634033203
1761315287765193500,5.920193359375,0.04777169227600098,0.05301856994628906,-0.0015149116516113281
1761315287784116500,5.939116455078125,-0.009281396865844727,-0.0017757415771484375,-0.03676557540893555
1761315287803039500,5.95803955078125,-0.02982187271118164,0.007832527160644531,-0.003330707550048828
1761315287821962200,5.976962158203125,-0.016655921936035156,-0.024822235107421875,0.017961502075195312
1761315287840885200,5.99588525390625,0.027187108993530273,-0.04905223846435547,0.06106758117675781
1761315287859808300,6.014808349609375,0.02584671974182129,0.014348983764648438,0.03232765197753906
1761315287878731000,6.03373095703125,0.0113372802734375,0.052948951721191406,-0.0003237724304199219
1761315287897654000,6.052654052734375,-0.014199256896972656,0.04869365692138672,0.018955707550048828
1761315287916576800,6.07157666015625,0.005907773971557617,0.0027399063110351562,0.02119922637939453
1761315287935499800,6.090499755859375,0.02077651023864746,0.00018787384033203125,0.011107444763183594
1761315287954422800,6.1094228515625,-0.0001838207244873047,0.009583473205566406,-0.07606267929077148
1761315287973345500,6.128345458984375,-0.020233869552612305,-0.007038116455078125,-0.03869152069091797
1761315287992268500,6.1472685546875,-0.01416921615600586,0.004895210266113281,-0.004578590393066406
1761315288011191600,6.166191650390625,0.04969501495361328,-0.04729461669921875,0.017213821411132812
1761315288030114300,6.1851142578125,0.054535865783691406,-0.016317367553710938,0.0361332893371582
1761315288049037300,6.204037353515625,0.05854201316833496,-0.03366851806640625,0.0645909309387207
1761315288067960300,6.222960205078125,0.0732734203338623,-0.04136180877685547,0.09966707229614258
1761315288086883000,6.241883056640625,0.07460403442382812,-0.004746437072753906,0.05853605270385742
1761315288105806000,6.26080615234375,0.02695178985595703,0.04195213317871094,-0.027891159057617188
1761315288124729000,6.27972900390625,0.011692285537719727,0.05287933349609375,-0.07638216018676758
1761315288143651800,6.29865185546875,-0.018422603607177734,0.05870246887207031,-0.07261419296264648
1761315288162574800,6.317574951171875,-0.02293848991394043,0.04886341094970703,-0.07415246963500977
1761315288181467100,6.336467041015625,-0.009760856628417969,0.07016277313232422,-0.022068023681640625
1761315288200390100,6.35539013671875,0.051207780838012695,0.105560302734375,-0.04248046875
1761315288219313200,6.374313232421875,0.019881725311279297,0.056774139404296875,-0.046402931213378906
1761315288238236000,6.39323583984375,0.029645919799804688,0.03991889953613281,-0.06444358825683594
1761315288257159000,6.412158935546875,0.03246045112609863,-0.00018978118896484375,-0.019402027130126953
1761315288276081700,6.43108154296875,0.06563735008239746,-0.034264564514160156,-0.01267385482788086
1761315288295004700,6.450004638671875,0.031999826431274414,0.007807731628417969,0.011894702911376953
1761315288313927700,6.468927734375,0.04387044906616211,0.010325431823730469,-0.010346412658691406
1761315288332850400,6.487850341796875,0.040406227111816406,-0.014702796936035156,0.02769184112548828
1761315288351773400,6.5067734375,0.05166053771972656,-0.03940773010253906,0.06692361831665039
1761315288370696400,6.525696533203125,0.03847384452819824,-0.02170562744140625,0.08118247985839844
1761315288389619200,6.544619140625,0.04123091697692871,-0.05124664306640625,0.05118370056152344
1761315288408542200,6.563542236328125,0.022440433502197266,-0.04730796813964844,0.028676986694335938
1761315288427465200,6.58246533203125,-0.007784366607666016,-0.004244804382324219,0.0517888069152832
1761315288446388000,6.601387939453125,-0.05341529846191406,-0.016722679138183594,0.05529212951660156
1761315288465311000,6.62031103515625,-0.09509038925170898,-0.04222869873046875,0.03128957748413086
1761315288484234000,6.63923388671875,-0.09043216705322266,-0.02663898468017578,0.06299114227294922
1761315288503156700,6.65815673828125,-0.0837857723236084,-0.030048370361328125,0.00977182388305664
1761315288522079700,6.677079833984375,-0.10306048393249512,-0.04309272766113281,0.018993377685546875
1761315288541002500,6.69600244140625,-0.05415964126586914,-0.04483604431152344,0.03109884262084961
1761315288559925500,6.714925537109375,-0.007398366928100586,-0.0584259033203125,0.003943443298339844
1761315288578848500,6.7338486328125,-0.02897787094116211,-0.0017833709716796875,-0.03193092346191406
1761315288597771300,6.752771240234375,-0.05684232711791992,0.02238178253173828,-0.04811906814575195
1761315288616694300,6.7716943359375,-0.009440422058105469,0.022426605224609375,-0.030895233154296875
1761315288635586600,6.790586669921875,-0.0433659553527832,0.0015211105346679688,-0.046759605407714844
1761315288654509600,6.809509521484375,-0.001531839370727539,-0.03556251525878906,-0.03385162353515625
1761315288673432600,6.8284326171875,-0.010007619857788086,-0.012749671936035156,0.027569293975830078
1761315288692355300,6.847355224609375,-0.043991804122924805,0.0020170211791992188,0.028363704681396484
1761315288711278300,6.8662783203125,0.0050411224365234375,0.014211654663085938,0.0077056884765625
1761315288730201300,6.885201416015625,-0.022031068801879883,0.017177581787109375,-0.01907205581665039
1761315288749124000,6.9041240234375,-0.019877195358276367,0.036602020263671875,0.00835561752319336
1761315288768047000,6.923047119140625,0.010692596435546875,0.04881095886230469,-0.03819465637207031
1761315288786970000,6.94197021484375,0.01242685317993164,0.013675689697265625,-0.062108516693115234
1761315288805892900,6.960892822265625,0.013689994812011719,-0.02072429656982422,-0.006855964660644531
1761315288824815900,6.97981591796875,0.053641557693481445,-0.02425384521484375,0.0725560188293457
1761315288843739000,6.99873876953125,0.05400276184082031,-0.048783302307128906,0.0680074691772461
1761315288862661600,7.01766162109375,0.02978801727294922,0.0015134811401367188,0.0378875732421875
1761315288881584600,7.036584716796875,0.010394811630249023,-0.013349533081054688,-0.0020160675048828125
1761315288900507400,7.05550732421875,0.006133317947387695,0.019147872924804688,0.019995689392089844
1761315288919430400,7.074430419921875,0.023343324661254883,0.019926071166992188,0.02679920196533203
1761315288938353400,7.093353515625,0.01946711540222168,0.006855010986328125,-0.027092933654785156
1761315288957276200,7.112276123046875,-0.0070209503173828125,0.020494461059570312,-0.0495905876159668
1761315288976199200,7.13119921875,-0.025202035903930664,-0.017391204833984375,-0.025343894958496094
1761315288995122200,7.1501220703125,0.006673574447631836,-0.0024204254150390625,0.031084060668945312
1761315289014045000,7.169044921875,0.019311189651489258,-0.030084609985351562,0.057544708251953125
1761315289032968000,7.187968017578125,0.012549161911010742,-0.009873390197753906,0.0622096061706543
1761315289051891000,7.206890869140625,-0.022124767303466797,-0.03656578063964844,0.033301353454589844
1761315289070813700,7.225813720703125,-0.020643234252929688,0.016753196716308594,-0.015950679779052734
1761315289089706200,7.244706298828125,0.00390934944152832,0.023786544799804688,-0.03448629379272461
1761315289108629000,7.26362890625,-0.002565622329711914,0.018952369689941406,-0.02435016632080078
1761315289127552000,7.282552001953125,-0.001711130142211914,0.0070400238037109375,-0.009469032287597656
1761315289146475000,7.30147509765625,0.024654388427734375,0.007084846496582031,-0.01602792739868164
1761315289165397800,7.320397705078125,0.03990817070007324,0.0023851394653320312,-0.015494823455810547
1761315289184320800,7.33932080078125,0.03809952735900879,-0.016427040100097656,0.013415813446044922
1761315289203243800,7.358243896484375,-0.015332460403442383,0.0021219253540039062,0.0508723258972168
1761315289222166500,7.37716650390625,0.0007333755493164062,-0.0077075958251953125,0.0584259033203125
1761315289241089500,7.396089599609375,0.005629539489746094,-0.03064441680908203,0.04458761215209961
1761315289260012300,7.41501220703125,-0.0015451908111572266,-0.012999534606933594,-0.008942127227783203
1761315289278935300,7.433935302734375,-0.04098868370056152,0.01821136474609375,-0.04420661926269531
1761315289297858300,7.4528583984375,-0.024913787841796875,0.019887924194335938,-0.042700767517089844
1761315289316781000,7.471781005859375,0.02579641342163086,-0.03650951385498047,0.019635677337646484
1761315289335704000,7.4907041015625,0.029275894165039062,-0.0330352783203125,0.05626249313354492
1761315289354627000,7.509626953125,0.03849434852600098,-0.01380157470703125,0.017394542694091797
1761315289373549800,7.5285498046875,0.0023398399353027344,0.011659622192382812,-0.024284839630126953
1761315289392472800,7.547472900390625,-0.0481417179107666,0.03104686737060547,-0.00862741470336914
1761315289411395800,7.566395751953125,-0.01713418960571289,0.03380775451660156,-0.009699344635009766
1761315289430318600,7.585318603515625,0.018478870391845703,0.02982330322265625,-0.023029804229736328
1761315289449241600,7.60424169921875,0.006494045257568359,0.0027284622192382812,-0.031130313873291016
1761315289468164600,7.62316455078125,0.0159304141998291,-0.02536487579345703,0.0034322738647460938
1761315289487087400,7.64208740234375,0.0033028125762939453,-0.010510444641113281,0.0313267707824707
1761315289506010400,7.66101025390625,-0.03441643714904785,-0.0050106048583984375,0.013895034790039062
1761315289524933000,7.67993310546875,-0.012189626693725586,0.008896827697753906,-0.025979995727539062
1761315289543825700,7.69882568359375,0.0092315673828125,0.0317230224609375,0.022596359252929688
1761315289562748700,7.717748779296875,0.022319555282592773,-0.026166915893554688,0.029643535614013672
1761315289581671400,7.73667138671875,-0.021746158599853516,-0.019075393676757812,0.0062007904052734375
1761315289600594400,7.755594482421875,0.0006988048553466797,0.013594627380371094,-0.021013259887695312
1761315289619517200,7.77451708984375,-0.0009241104125976562,0.054144859313964844,-0.051601409912109375
1761315289638440200,7.793440185546875,-0.01593184471130371,0.044155120849609375,-0.06976127624511719
1761315289657363200,7.81236328125,-0.023548364639282227,0.00009059906005859375,-0.0509343147277832
1761315289676286000,7.831285888671875,-0.0420839786529541,0.0000209808349609375,-0.009128570556640625
1761315289695209000,7.850208984375,-0.03574228286743164,0.01172637939453125,-0.017929553985595703
1761315289714132000,7.869132080078125,0.009849786758422852,0.03463268280029297,-0.012470245361328125
1761315289733054700,7.8880546875,-0.004283428192138672,-0.008493423461914062,0.01669454574584961
1761315289751977700,7.906977783203125,0.012671947479248047,-0.012766838073730469,0.06769227981567383
1761315289770900700,7.925900634765625,0.01694798469543457,0.006561279296875,-0.004879951477050781
1761315289789823500,7.944823486328125,0.004764080047607422,0.025455474853515625,-0.023222923278808594
1761315289808746500,7.96374658203125,0.05621600151062012,0.012948036193847656,0.010764122009277344
1761315289827669500,7.98266943359375,0.04686141014099121,0.012591361999511719,0.01300668716430664
1761315289846592300,8.00159228515625,0.009910345077514648,0.027912139892578125,-0.04265308380126953
1761315289865515300,8.020515380859376,0.037590742111206055,0.030981063842773438,-0.02187061309814453
1761315289884438000,8.03943798828125,0.04996800422668457,-0.0029973983764648438,-0.0016016960144042969
1761315289903361000,8.058361083984375,0.05452322959899902,-0.01965808868408203,0.02524566650390625
1761315289922284000,8.077283935546875,0.04012656211853027,0.0034656524658203125,0.006730079650878906
1761315289941206800,8.096206787109375,0.02161264419555664,0.019596099853515625,0.016540050506591797
1761315289960129800,8.1151298828125,0.008731365203857422,0.016176223754882812,0.009415626525878906
1761315289979052800,8.134052734375,0.01999640464782715,-0.0030698776245117188,0.025350570678710938
1761315289997945000,8.152945068359376,-0.004004716873168945,-0.014639854431152344,-0.012735366821289062
1761315290016868000,8.1718681640625,-0.03876543045043945,-0.0003566741943359375,-0.026267528533935547
1761315290035790800,8.190790771484375,0.006437778472900391,0.02303791046142578,-0.0016703605651855469
1761315290054713900,8.2097138671875,-0.019502878189086914,-0.005847930908203125,0.04275083541870117
1761315290073636900,8.228636962890626,-0.03692984580993652,0.010966300964355469,0.016022205352783203
1761315290092553000,8.247552978515625,0.009169816970825195,-0.005585670471191406,-0.0031304359436035156
1761315290111482600,8.266482666015625,0.0490870475769043,0.038931846618652344,-0.02617931365966797
1761315290130405600,8.285405517578125,0.02663898468017578,0.04487895965576172,-0.04203224182128906
1761315290149328400,8.304328369140626,0.0074007511138916016,0.013178825378417969,-0.010210037231445312
1761315290168251400,8.32325146484375,0.0005044937133789062,-0.012360572814941406,0.008968830108642578
1761315290187174400,8.34217431640625,0.014403104782104492,-0.0000324249267578125,-0.005555152893066406
1761315290206097200,8.36109716796875,0.025375843048095703,-0.011906623840332031,-0.024440288543701172
1761315290225020200,8.380020263671875,-0.02021503448486328,-0.02767658233642578,-0.017046451568603516
1761315290243943000,8.39894287109375,-0.05442547798156738,0.047959327697753906,0.034090518951416016
1761315290262866000,8.417865966796874,-0.02383136749267578,-0.00965118408203125,0.032948970794677734
1761315290281789000,8.436788818359375,-0.018029212951660156,-0.013789176940917969,0.008538246154785156
1761315290300711700,8.455711669921875,0.0155029296875,-0.024474143981933594,-0.02265167236328125
1761315290319634700,8.474634765625,0.009710073471069336,-0.04218482971191406,0.002811908721923828
1761315290338557700,8.4935576171875,0.0017545223236083984,-0.03104114532470703,0.022156238555908203
1761315290357480400,8.51248046875,-0.04806089401245117,0.014593124389648438,0.02005481719970703
1761315290376403500,8.531403564453125,-0.02097153663635254,0.0027875900268554688,-0.02819967269897461
1761315290395326500,8.550326416015626,-0.017804861068725586,0.02881336212158203,-0.03725862503051758
1761315290414249200,8.569249267578124,0.013090133666992188,0.0071868896484375,-0.0038881301879882812
1761315290433172200,8.588172119140625,0.02197575569152832,0.004817962646484375,0.025979042053222656
1761315290452064500,8.607064453125,0.03998255729675293,0.009734153747558594,0.003895282745361328
1761315290470987500,8.625987548828125,0.02557373046875,0.04072380065917969,-0.03469705581665039
1761315290489910500,8.64491064453125,0.03275346755981445,0.033107757568359375,-0.025153636932373047
1761315290508833300,8.663833251953125,0.030021190643310547,0.011506080627441406,-0.022914409637451172
1761315290527756300,8.68275634765625,0.029417037963867188,-0.011473655700683594,0.014070510864257812
1761315290546679300,8.70167919921875,0.014942169189453125,-0.035964012145996094,0.02666187286376953
1761315290565602000,8.72060205078125,0.009204626083374023,0.00019741058349609375,0.0110015869140625
1761315290584525000,8.739525146484375,-0.01490330696105957,0.004886627197265625,-0.01569223403930664
1761315290603447800,8.75844775390625,0.0016982555389404297,-0.025457382202148438,-0.021934986114501953
1761315290622370800,8.777370849609374,0.05050301551818848,-0.008477210998535156,0.04184770584106445
1761315290641293800,8.7962939453125,0.014506816864013672,0.0060138702392578125,0.07495832443237305
1761315290660216600,8.815216552734375,0.02205681800842285,0.03751087188720703,-0.007841110229492188
1761315290679139600,8.8341396484375,0.023621559143066406,0.045731544494628906,-0.03762197494506836
1761315290698062600,8.8530625,0.034935951232910156,0.0858612060546875,-0.06441640853881836
1761315290716985300,8.8719853515625,-0.00804591178894043,0.005344390869140625,-0.06728458404541016
1761315290735908400,8.890908447265625,-0.015127420425415039,-0.051766395568847656,-0.03169393539428711
1761315290754831400,8.909831298828125,-0.09612822532653809,-0.04739189147949219,0.00968027114868164
1761315290773754000,8.928754150390626,-0.05031871795654297,-0.0792379379272461,0.05861663818359375
1761315290792677000,8.947677001953124,-0.09460592269897461,-0.13163471221923828,0.10661697387695312
1761315290811600100,8.96660009765625,-0.15748047828674316,-0.07351970672607422,0.06443405151367188
1761315290830523000,8.98552294921875,-0.19681859016418457,-0.010175704956054688,0.0026502609252929688
1761315290849446000,9.00444580078125,-0.24857187271118164,-0.0049037933349609375,-0.07146024703979492
1761315290868368600,9.02336865234375,-0.2171611785888672,-0.08765220642089844,0.014254093170166016
1761315290887291600,9.042291748046875,-0.11250925064086914,-0.09456348419189453,0.16309404373168945
1761315290906184200,9.06118408203125,0.002170085906982422,-0.104522705078125,0.1724557876586914
1761315290925107000,9.08010693359375,0.020110368728637695,-0.04736804962158203,0.09304428100585938
1761315290944030000,9.099030029296875,0.017521381378173828,0.03898811340332031,-0.06939172744750977
1761315290962952700,9.11795263671875,0.020432710647583008,0.12065982818603516,-0.14754533767700195
1761315290981875700,9.136875732421874,0.051766395568847656,0.1410989761352539,-0.11523723602294922
1761315291000798700,9.155798828125,0.10008811950683594,0.09094429016113281,-0.0785531997680664
1761315291019721500,9.174721435546875,0.14571094512939453,0.013643264770507812,-0.0776968002319336
1761315291038644500,9.19364453125,0.10159993171691895,0.02425670623779297,-0.05919361114501953
1761315291057567500,9.2125673828125,0.0959169864654541,0.049643516540527344,-0.04054832458496094
1761315291076490200,9.231490234375,0.07623100280761719,0.03158855438232422,-0.016735076904296875
1761315291095400700,9.250400634765626,0.08230304718017578,0.021376609802246094,-0.0010361671447753906
1761315291114336300,9.269336181640625,0.0830538272857666,-0.00467681884765625,0.044367313385009766
1761315291133259000,9.288259033203126,0.07745027542114258,0.0033979415893554688,0.031940460205078125
1761315291152182000,9.30718212890625,0.07017374038696289,0.018260955810546875,0.03133964538574219
1761315291171105000,9.32610498046875,0.05672430992126465,0.051329612731933594,-0.018085956573486328
1761315291190027800,9.34502783203125,0.027272701263427734,0.03242015838623047,-0.005643367767333984
1761315291208950800,9.36395068359375,0.019906282424926758,-0.007658958435058594,0.0018477439880371094
1761315291227873500,9.38287353515625,-0.008466720581054688,-0.03687286376953125,0.030148029327392578
1761315291246796500,9.401796630859375,-0.002554178237915039,-0.027425765991210938,0.02815389633178711
1761315291265719600,9.420719482421875,0.019437789916992188,0.051311492919921875,0.06659507751464844
1761315291284642300,9.439642333984375,0.07251548767089844,0.03767585754394531,0.11305809020996094
1761315291303565300,9.4585654296875,0.10943102836608887,-0.02179431915283203,0.0367121696472168
1761315291322488300,9.47748828125,0.0857234001159668,-0.009406089782714844,-0.015605926513671875
1761315291341411000,9.4964111328125,0.051294803619384766,0.005499839782714844,-0.030169963836669922
1761315291360334000,9.515333984375,0.04361224174499512,0.06311321258544922,-0.05728578567504883
1761315291379226400,9.534226318359375,0.0434720516204834,0.024932861328125,-0.05463361740112305
1761315291398149400,9.5531494140625,0.061792850494384766,0.017818450927734375,-0.05107545852661133
1761315291417072400,9.572072265625,0.07440733909606934,0.02011871337890625,-0.01494455337524414
1761315291435995100,9.5909951171875,0.03209352493286133,-0.010912895202636719,0.00457763671875
1761315291454918100,9.609918212890625,0.0415191650390625,-0.011515617370605469,0.019221782684326172
1761315291473841200,9.628841064453125,0.031991004943847656,-0.03790760040283203,0.010347366333007812
1761315291492764000,9.647763916015625,-0.007848978042602539,-0.028474807739257812,0.05072975158691406
1761315291511687000,9.66668701171875,0.009734630584716797,-0.040042877197265625,0.039684295654296875
1761315291530610000,9.68560986328125,-0.03788137435913086,-0.013113021850585938,0.047554969787597656
1761315291549532700,9.70453271484375,-0.05981040000915527,0.01569366455078125,0.03798484802246094
1761315291568455700,9.72345556640625,-0.04534769058227539,0.006730079650878906,0.005349159240722656
1761315291587378400,9.74237841796875,-0.012218713760375977,-0.008607864379882812,-0.044916629791259766
1761315291606301400,9.761301513671874,-0.019529342651367188,0.00919342041015625,-0.04219865798950195
1761315291625224400,9.780224365234375,-0.0032982826232910156,0.01732921600341797,-0.049259185791015625
1761315291644147200,9.799147216796875,0.008389711380004883,0.055092811584472656,-0.053759098052978516
1761315291663070200,9.8180703125,-0.022801876068115234,0.06347179412841797,-0.11153030395507812
1761315291681993200,9.8369931640625,-0.014019966125488281,0.03140544891357422,-0.1106863021850586
1761315291700916000,9.855916015625,0.008144855499267578,-0.0489501953125,-0.048811912536621094
1761315291719839000,9.8748388671875,-0.022314071655273438,-0.0006132125854492188,0.017972469329833984
1761315291738762000,9.893761962890625,-0.03282475471496582,0.03905963897705078,-0.022170066833496094
1761315291757684700,9.912684814453126,-0.047461748123168945,0.0005340576171875,-0.016036510467529297
1761315291776607700,9.931607666015625,-0.06434035301208496,-0.039038658142089844,0.05516481399536133
1761315291795530800,9.95053076171875,-0.021992921829223633,-0.07247734069824219,0.08808159828186035
1761315291814453500,9.96945361328125,0.0023925304412841797,-0.04869365692138672,0.05920124053955078
1761315291833346000,9.988345947265625,-0.014226675033569336,-0.04670524597167969,0.09415411949157715
1761315291852268800,10.007268798828125,-0.05775094032287598,-0.03799724578857422,0.08541679382324219
1761315291871191800,10.02619189453125,-0.053357601165771484,-0.03174781799316406,0.040059566497802734
1761315291890114800,10.04511474609375,-0.02800583839416504,-0.016271591186523438,0.01233673095703125
1761315291909037600,10.06403759765625,0.029229402542114258,-0.033812522888183594,0.021151065826416016
1761315291927960600,10.082960693359375,0.01869487762451172,-0.05588245391845703,0.01100015640258789
1761315291946883300,10.10188330078125,-0.02093219757080078,-0.038158416748046875,0.02263021469116211
1761315291965806300,10.120806396484374,-0.015315055847167969,0.01834583282470703,-0.005239963531494141
1761315291984729300,10.139729248046875,0.015136003494262695,-0.013980865478515625,0.0027709007263183594
1761315292003652000,10.158652099609375,0.0068514347076416016,-0.014828681945800781,-0.0011692047119140625
1761315292022575000,10.1775751953125,-0.02911996841430664,0.009989738464355469,0.010862350463867188
1761315292041498000,10.196498046875,-0.046784400939941406,0.008374214172363281,-0.026332378387451172
1761315292060420900,10.2154208984375,-0.01888251304626465,0.00026607513427734375,-0.03174734115600586
1761315292079343900,10.23434375,-0.005836963653564453,-0.00043010711669921875,-0.03698301315307617
1761315292098248400,10.25324853515625,0.00004410743713378906,0.0007028579711914062,-0.016033649444580078
1761315292117189600,10.272189697265626,-0.024373769760131836,-0.0051116943359375,0.00421905517578125
1761315292136112600,10.291112548828124,-0.00152587890625,0.0009450912475585938,0.03072977066040039
1761315292155035600,10.31003564453125,0.02745652198791504,-0.011790275573730469,0.037891387939453125
1761315292173958400,10.32895849609375,0.018150806427001953,0.001758575439453125,0.011768817901611328
1761315292192881400,10.34788134765625,0.01144552230834961,0.03388023376464844,-0.0019044876098632812
1761315292211804200,10.36680419921875,0.007950305938720703,0.05322265625,-0.01701498031616211
1761315292230727200,10.38572705078125,0.006665706634521484,0.01364898681640625,-0.008945941925048828
1761315292249650200,10.404650146484375,0.02896571159362793,-0.015272140502929688,-0.024494647979736328
1761315292268573000,10.423572998046875,0.022254228591918945,-0.03386116027832031,-0.0133514404296875
1761315292287465500,10.442465576171875,0.01774907112121582,-0.017313003540039062,0.01836395263671875
1761315292306388200,10.46138818359375,-0.0030069351196289062,0.021749496459960938,0.035517215728759766
1761315292325311200,10.480311279296876,-0.002386808395385742,-0.0032892227172851562,0.021407604217529297
1761315292344234200,10.499234130859374,0.005258798599243164,0.012126922607421875,-0.04585599899291992
1761315292363157000,10.518156982421875,-0.02893972396850586,0.07370948791503906,-0.04096698760986328
1761315292382080000,10.537080078125,-0.0075185298919677734,0.0259552001953125,-0.0429844856262207
1761315292401003000,10.5560029296875,0.030412912368774414,-0.033684730529785156,0.01570415496826172
1761315292419916500,10.57491650390625,0.0223236083984375,-0.014110565185546875,0.023169994354248047
1761315292438848800,10.593848876953125,0.002675294876098633,0.056420326232910156,-0.011710166931152344
1761315292457771800,10.612771728515625,-0.0007319450378417969,0.019494056701660156,-0.0455470085144043
1761315292476694500,10.631694580078126,-0.013316154479980469,0.0018453598022460938,-0.017601966857910156
1761315292495617500,10.650617431640624,0.021493911743164062,0.001155853271484375,0.018700599670410156
1761315292514540500,10.66954052734375,0.01809978485107422,0.03333854675292969,0.028385162353515625
1761315292533463300,10.68846337890625,0.0074214935302734375,0.010659217834472656,-0.02561664581298828
1761315292552386300,10.70738623046875,-0.009534835815429688,0.026500701904296875,-0.03102588653564453
1761315292571309000,10.72630908203125,-0.021595239639282227,0.029801368713378906,-0.020225048065185547
1761315292590232000,10.745232177734374,0.025418758392333984,-0.011567115783691406,0.0120697021484375
1761315292609155000,10.764155029296875,0.04259133338928223,-0.016332626342773438,0.04576539993286133
1761315292628077800,10.783077880859375,0.03338932991027832,-0.012350082397460938,0.036119937896728516
1761315292647000800,10.802000732421876,0.019464492797851562,-0.008551597595214844,0.034212589263916016
1761315292665923800,10.820923828125,0.026583194732666016,-0.0117034912109375,0.022918701171875
1761315292684846600,10.8398466796875,0.021253347396850586,-0.005352973937988281,-0.009523391723632812
1761315292703769600,10.85876953125,-0.04365968704223633,-0.0037298202514648438,0.034173011779785156
1761315292722692600,10.877692626953126,-0.03577828407287598,-0.009564399719238281,0.02748250961303711
1761315292741585000,10.8965849609375,-0.009746313095092773,-0.01697254180908203,-0.0027337074279785156
1761315292760508000,10.9155078125,0.0035278797149658203,0.0015554428100585938,-0.029634952545166016
1761315292779430700,10.9344306640625,-0.02532505989074707,0.008097648620605469,-0.06069135665893555
1761315292798353700,10.953353759765625,-0.036862850189208984,0.014071464538574219,-0.03162813186645508
1761315292817276700,10.972276611328125,-0.03600049018859863,0.010762214660644531,0.042826175689697266
1761315292836199400,10.991199462890625,0.002422809600830078,-0.0035305023193359375,0.061048030853271484
1761315292855122400,11.010122314453126,0.01600790023803711,0.033431053161621094,-0.0037789344787597656
1761315292874045400,11.02904541015625,0.029572486877441406,0.053310394287109375,-0.07573986053466797
1761315292892968200,11.04796826171875,0.012456893920898438,0.016744613647460938,-0.08445978164672852
1761315292911891200,11.06689111328125,0.008308649063110352,0.0019006729125976562,-0.020313262939453125
1761315292930814000,11.08581396484375,0.04529380798339844,-0.015054702758789062,0.025412559509277344
1761315292949737000,11.104737060546874,0.05530977249145508,0.022284507751464844,-0.009571552276611328
1761315292968660000,11.123659912109375,0.06204104423522949,-0.019229888916015625,-0.04550933837890625
1761315292987582700,11.142582763671875,0.05395913124084473,-0.02239513397216797,0.006813526153564453
1761315293006505700,11.161505615234375,0.03334641456604004,-0.034529685974121094,0.05733346939086914
1761315293025428700,11.1804287109375,0.004687070846557617,0.04936504364013672,0.005278110504150391
1761315293044351500,11.1993515625,-0.017854928970336914,0.039847373962402344,-0.014638423919677734
1761315293063274500,11.2182744140625,-0.025214195251464844,0.03308391571044922,-0.0320892333984375
1761315293082197500,11.237197509765625,-0.011069297790527344,0.012834548950195312,-0.03074502944946289
1761315293101150700,11.256150634765625,-0.03836774826049805,0.007678031921386719,-0.04376363754272461
1761315293120043300,11.275043212890624,-0.018014192581176758,-0.022920608520507812,-0.014236927032470703
1761315293138966300,11.29396630859375,0.008784770965576172,-0.008136749267578125,0.019075393676757812
1761315293157889000,11.312888916015625,-0.012497425079345703,0.00386810302734375,0.03994274139404297
1761315293176812000,11.33181201171875,-0.012369871139526367,-0.006146430969238281,0.010951519012451172
1761315293195734800,11.35073486328125,0.011608600616455078,0.024263381958007812,0.0037126541137695312
1761315293214627300,11.36962744140625,-0.004658937454223633,0.016913414001464844,-0.005685329437255859
1761315293233550300,11.38855029296875,0.014622211456298828,-0.016233444213867188,0.011257171630859375
1761315293252473000,11.40747314453125,0.03746938705444336,-0.038471221923828125,0.03884410858154297
1761315293271396000,11.42639599609375,0.02013850212097168,-0.03240013122558594,0.05609893798828125
1761315293290318800,11.44531884765625,-0.010883331298828125,0.0061702728271484375,0.009831428527832031
1761315293309241900,11.464241943359376,-0.015676021575927734,0.012454986572265625,-0.030341148376464844
1761315293328164900,11.483164794921874,-0.008177518844604492,0.00257110595703125,-0.014925003051757812
1761315293347087600,11.502087646484375,0.029907703399658203,-0.039338111877441406,0.0628652572631836
1761315293366010600,11.5210107421875,0.02716660499572754,-0.00514984130859375,0.07756519317626953
1761315293384933600,11.53993359375,0.02882862091064453,0.013577461242675781,0.05395174026489258
1761315293403856400,11.5588564453125,0.030372142791748047,-0.005633354187011719,0.0028228759765625
1761315293422779400,11.577779296875,-0.014739990234375,-0.0005083084106445312,0.007483959197998047
1761315293441702400,11.596702392578125,0.002860546112060547,0.0041217803955078125,0.005293369293212891
1761315293460625200,11.615625244140626,0.0030050277709960938,-0.012305259704589844,-0.004141807556152344
1761315293479548200,11.634548095703124,0.0337376594543457,-0.011376380920410156,0.016729354858398438
1761315293498471200,11.65347119140625,-0.002101898193359375,0.021920204162597656,-0.0032095909118652344
1761315293517394000,11.672393798828125,-0.01827239990234375,0.028230667114257812,-0.03359174728393555
1761315293536317000,11.69131689453125,-0.0033245086669921875,-0.0030679702758789062,-0.030341148376464844
1761315293555239700,11.71023974609375,-0.0025908946990966797,-0.0027217864990234375,0.010492324829101562
1761315293574162700,11.72916259765625,0.002468585968017578,0.037407875061035156,-0.013150215148925781
1761315293593085700,11.748085693359375,-0.011552810668945312,0.008647918701171875,-0.08081722259521484
1761315293612008400,11.767008544921875,-0.0061719417572021484,0.02001476287841797,-0.08347558975219727
1761315293630931500,11.785931396484376,0.0044612884521484375,-0.0013942718505859375,0.00533294677734375
1761315293649854500,11.8048544921875,0.0006911754608154297,0.045654296875,0.005016326904296875
1761315293668746800,11.823746826171876,-0.002658367156982422,0.007246971130371094,-0.037100791931152344
1761315293687669800,11.842669677734374,-0.0013849735260009766,-0.011676788330078125,-0.03580141067504883
1761315293706592500,11.861592529296875,0.0017435550689697266,0.01686382293701172,0.0045375823974609375
1761315293725515500,11.880515625,-0.0003731250762939453,-0.03265094757080078,0.03002643585205078
1761315293744438500,11.8994384765625,-0.009529352188110352,0.012953758239746094,0.024250507354736328
1761315293763361300,11.918361328125,-0.01096963882446289,0.008030891418457031,-0.011615753173828125
1761315293782284300,11.9372841796875,0.006067752838134766,0.012392044067382812,-0.02303457260131836
1761315293801207300,11.956207275390625,0.003908634185791016,-0.013092994689941406,-0.006219387054443359
1761315293820130000,11.975130126953125,-0.04487276077270508,-0.030803680419921875,0.014426231384277344
1761315293839053000,11.994052978515626,0.01121211051940918,-0.006413459777832031,0.0371861457824707
1761315293857976000,12.01297607421875,-0.019007444381713867,0.0035228729248046875,0.013004779815673828
1761315293876898800,12.03189892578125,0.005036354064941406,-0.031815528869628906,-0.01058197021484375
1761315293895821800,12.05082177734375,0.028820276260375977,-0.014386177062988281,0.07865333557128906
1761315293914744600,12.06974462890625,0.03800535202026367,-0.0017671585083007812,0.07101917266845703
1761315293933667600,12.08866748046875,0.028079509735107422,0.03860759735107422,0.02132701873779297
1761315293952590600,12.107590576171875,-0.0008120536804199219,0.009825706481933594,-0.033937931060791016
1761315293971513300,12.126513427734375,0.002127408981323242,0.012393951416015625,-0.07067298889160156
1761315293990436400,12.145436279296876,0.015045881271362305,0.02174854278564453,-0.008101940155029297
1761315294009359400,12.164359375,0.038640499114990234,-0.009085655212402344,0.00824117660522461
1761315294028282000,12.1832822265625,0.0492246150970459,-0.025045394897460938,0.020896434783935547
1761315294047205000,12.202205078125,0.003050565719604492,-0.017185211181640625,0.005911350250244141
1761315294066128100,12.221128173828125,-0.01140284538269043,0.012874603271484375,0.0031785964965820312
1761315294085051000,12.24005078125,0.002803802490234375,-0.02502918243408203,0.008051872253417969
1761315294103974000,12.258973876953124,0.005049467086791992,-0.012531280517578125,-0.0036606788635253906
1761315294122866200,12.2778662109375,0.012251615524291992,0.020421981811523438,0.01040792465209961
1761315294141789200,12.2967890625,0.014892339706420898,0.010730743408203125,-0.006569385528564453
1761315294160712200,12.315712158203125,0.008563518524169922,0.03886985778808594,-0.01575756072998047
1761315294179635000,12.334635009765625,0.0024182796478271484,-0.013056755065917969,-0.0017652511596679688
1761315294198558000,12.353557861328126,0.016907691955566406,-0.08440399169921875,0.028191566467285156
1761315294217481000,12.37248095703125,0.011813640594482422,-0.059925079345703125,0.06818819046020508
1761315294236403700,12.39140380859375,-0.012234210968017578,-0.03468608856201172,0.07488822937011719
1761315294255326700,12.41032666015625,-0.010187625885009766,-0.0056934356689453125,0.040030479431152344
1761315294274249500,12.42924951171875,0.005602359771728516,0.010676383972167969,0.006221294403076172
1761315294293172500,12.44817236328125,-0.023275375366210938,0.00992584228515625,-0.013965129852294922
1761315294312095500,12.467095458984375,-0.012851953506469727,0.04917621612548828,0.01969623565673828
1761315294331018200,12.486018310546875,-0.01873016357421875,0.02500629425048828,-0.03432464599609375
1761315294349941200,12.504941162109375,0.017768383026123047,0.010715484619140625,-0.05014991760253906
1761315294368864300,12.5238642578125,-0.005248546600341797,0.010586738586425781,-0.03033733367919922
1761315294387787000,12.542787109375,0.0021817684173583984,0.0035867691040039062,-0.020680904388427734
1761315294406710000,12.5617099609375,0.018759965896606445,-0.01733684539794922,-0.029543399810791016
1761315294425633000,12.580633056640625,0.002237081527709961,-0.021704673767089844,-0.054009437561035156
1761315294444555800,12.5995556640625,-0.03564119338989258,0.01818370819091797,-0.04050874710083008
1761315294463478800,12.618478759765624,0.01698756217956543,0.010107994079589844,0.0027875900268554688
1761315294482401800,12.63740185546875,0.02190852165222168,0.026655197143554688,0.0473790168762207
1761315294501324500,12.656324462890625,0.01988053321838379,0.033225059509277344,-0.0035529136657714844
1761315294520247600,12.67524755859375,0.029790163040161133,0.011843681335449219,-0.01526498794555664
1761315294539170300,12.69417041015625,-0.009827375411987305,0.03791522979736328,-0.047881126403808594
1761315294558093300,12.71309326171875,-0.04342770576477051,0.020821571350097656,-0.03974580764770508
1761315294577016300,12.732016357421875,-0.031929731369018555,-0.012221336364746094,-0.016937255859375
1761315294595908600,12.75090869140625,0.04521632194519043,-0.02986621856689453,0.04938173294067383
1761315294614831600,12.76983154296875,0.04877972602844238,-0.03346729278564453,0.036253929138183594
1761315294633754400,12.78875439453125,0.009819269180297852,-0.008946418762207031,0.0026869773864746094
1761315294652677400,12.807677490234376,0.00034308433532714844,0.00040531158447265625,0.002964019775390625
1761315294671600400,12.826600341796874,-0.0015614032745361328,0.011893272399902344,0.026459693908691406
1761315294690523100,12.845523193359375,0.006134748458862305,0.0001850128173828125,0.04436922073364258
1761315294709446100,12.864446044921875,0.009154081344604492,-0.008587837219238281,0.023710250854492188
1761315294728369200,12.883369140625,-0.0421297550201416,-0.005297660827636719,0.010890007019042969
1761315294747292000,12.9022919921875,-0.01604175567626953,-0.027791976928710938,0.012737751007080078
1761315294766215000,12.92121484375,-0.01665782928466797,-0.0005350112915039062,0.01950836181640625
1761315294785138000,12.940137939453125,0.02445507049560547,-0.01702117919921875,0.03751230239868164
1761315294804060700,12.959060791015625,0.0003528594970703125,-0.01886463165283203,0.008603572845458984
1761315294822983700,12.977983642578126,-0.020804882049560547,0.002750396728515625,-0.01464986801147461
1761315294841906700,12.99690673828125,-0.04604339599609375,-0.0021352767944335938,-0.02081155776977539
1761315294860829400,13.015829345703125,-0.01882004737854004,-0.006755828857421875,0.0017566680908203125
1761315294879752400,13.03475244140625,-0.0023336410522460938,-0.013987541198730469,0.0097808837890625
1761315294898675200,13.05367529296875,0.004282236099243164,-0.03473091125488281,0.010214805603027344
1761315294917598200,13.07259814453125,-0.01773834228515625,-0.034071922302246094,0.02692127227783203
1761315294936521200,13.091521240234375,-0.059641122817993164,0.010733604431152344,0.03645181655883789
1761315294955444000,13.11044384765625,-0.03016209602355957,-0.020544052124023438,0.09288644790649414
1761315294974367000,13.129366943359376,0.000015974044799804688,-0.02059650421142578,0.05898141860961914
1761315294993290000,13.1482900390625,0.01514434814453125,-0.039043426513671875,0.014101028442382812
1761315295012212700,13.167212646484375,-0.03593087196350098,0.001453399658203125,-0.034616947174072266
1761315295031135700,13.1861357421875,-0.06606841087341309,0.05029487609863281,-0.0353703498840332
1761315295050028000,13.205028076171875,-0.04314899444580078,0.06728363037109375,-0.03607368469238281
1761315295068951000,13.223950927734375,-0.020019054412841797,0.060428619384765625,-0.04589128494262695
1761315295087874000,13.2428740234375,0.011478424072265625,0.03230094909667969,-0.06420421600341797
1761315295106796800,13.261796875,0.013674497604370117,0.0028772354125976562,-0.035422325134277344
1761315295125719800,13.2807197265625,0.015523672103881836,-0.03969383239746094,-0.017383575439453125
1761315295144642800,13.299642822265625,0.04062771797180176,0.0010251998901367188,-0.02063131332397461
1761315295163565600,13.318565673828125,0.05347585678100586,0.016653060913085938,0.02054595947265625
1761315295182488600,13.337488525390626,0.0536952018737793,-0.0006160736083984375,0.004107475280761719
1761315295201411600,13.35641162109375,0.032157182693481445,0.010179519653320312,-0.010917186737060547
1761315295220334300,13.375334228515625,0.05791974067687988,0.025114059448242188,0.030422687530517578
1761315295239257300,13.39425732421875,0.04554390907287598,-0.00025844573974609375,0.006712913513183594
1761315295258180000,13.41318017578125,0.006036043167114258,0.02274608612060547,-0.013553142547607422
1761315295277103000,13.43210302734375,-0.0014226436614990234,0.03340339660644531,-0.02688884735107422
1761315295296026000,13.451026123046875,0.010406017303466797,0.032222747802734375,0.025908470153808594
1761315295314948900,13.469948974609375,-0.013215065002441406,0.0008554458618164062,0.03940773010253906
1761315295333871900,13.488871826171875,-0.0011470317840576172,-0.03677558898925781,0.006290435791015625
1761315295352795000,13.507794921875,0.012500762939453125,-0.021978378295898438,0.004505634307861328
1761315295371717600,13.526717529296874,0.006605625152587891,0.006239891052246094,-0.0019893646240234375
1761315295390640600,13.545640625,0.0003895759582519531,0.0029172897338867188,0.024975299835205078
1761315295409563600,13.564563720703125,-0.0054874420166015625,-0.007955551147460938,0.023523330688476562
1761315295428486400,13.583486328125,-0.030137300491333008,-0.0044918060302734375,0.0246429443359375
1761315295447409400,13.602409423828124,0.006738424301147461,-0.015256881713867188,0.02324676513671875
1761315295466332400,13.62133251953125,0.01641106605529785,-0.05096149444580078,0.007479190826416016
1761315295485255200,13.640255126953125,-0.016679048538208008,-0.012736320495605469,-0.024573326110839844
1761315295504147700,13.659147705078125,-0.05976247787475586,0.03554248809814453,-0.011538505554199219
1761315295523070500,13.678070556640625,-0.01684427261352539,0.04258251190185547,-0.017112255096435547
1761315295541993500,13.696993408203125,0.008187055587768555,0.005188941955566406,0.005903720855712891
1761315295560916500,13.71591650390625,-0.019211769104003906,-0.03131389617919922,-0.04399299621582031
1761315295579839200,13.734839111328125,-0.02504706382751465,0.0011301040649414062,-0.013180732727050781
1761315295598762200,13.75376220703125,-0.009780645370483398,0.011480331420898438,-0.009175777435302734
1761315295617685000,13.77268505859375,-0.006003141403198242,0.02432727813720703,0.017766475677490234
1761315295636610800,13.79161083984375,-0.004930734634399414,0.031769752502441406,-0.02115774154663086
1761315295655533800,13.810533935546875,0.005736112594604492,0.02952861785888672,-0.03012847900390625
1761315295674456800,13.829456787109375,0.011005878448486328,-0.017108917236328125,-0.010891437530517578
1761315295693379600,13.848379638671876,0.02326655387878418,-0.008337020874023438,0.0026221275329589844
1761315295712302600,13.867302490234374,0.03943943977355957,0.0000743865966796875,0.005982398986816406
1761315295731225600,13.8862255859375,0.024982929229736328,0.036589622497558594,-0.01870250701904297
1761315295750148400,13.9051484375,0.032631874084472656,0.022979736328125,-0.005255222320556641
1761315295769071400,13.9240712890625,-0.004494190216064453,0.03997516632080078,-0.008807182312011719
1761315295787994400,13.942994384765624,0.0038309097290039062,0.002971649169921875,-0.009849071502685547
1761315295806917000,13.961917236328125,0.019528865814208984,0.021096229553222656,-0.018889427185058594
1761315295825840000,13.980840087890625,-0.013922691345214844,-0.016892433166503906,0.009882450103759766
1761315295844763100,13.99976318359375,-0.027212142944335938,0.020538330078125,-0.0015935897827148438
1761315295863686000,14.018685791015624,0.0019085407257080078,-0.0057220458984375,0.017825603485107422
1761315295882609000,14.03760888671875,0.07005739212036133,-0.038407325744628906,0.10226011276245117
1761315295901531600,14.05653173828125,0.07413220405578613,-0.051339149475097656,0.0879983901977539
1761315295920454700,14.07545458984375,0.039997100830078125,-0.04088592529296875,0.0509791374206543
1761315295939377700,14.094377685546876,0.020788192749023438,0.024898529052734375,-0.00106048583984375
1761315295958270000,14.11327001953125,0.002298116683959961,0.03251838684082031,-0.01392507553100586
1761315295977193000,14.13219287109375,0.027268171310424805,0.05179119110107422,-0.01711130142211914
1761315295996115700,14.15111572265625,0.031020164489746094,0.0076503753662109375,0.004949092864990234
1761315296015038700,14.170038818359375,0.02988457679748535,-0.020601272583007812,-0.018364906311035156
1761315296033961700,14.188961669921875,0.005616664886474609,0.0127410888671875,-0.03635597229003906
1761315296052884500,14.207884521484376,-0.02227783203125,0.07079124450683594,-0.027842044830322266
1761315296071807500,14.226807373046874,-0.03814125061035156,-0.00638580322265625,-0.03340959548950195
1761315296090730500,14.24573046875,0.0011138916015625,-0.006604194641113281,0.024277210235595703
1761315296109653200,14.2646533203125,0.031943321228027344,-0.034768104553222656,0.01480245590209961
1761315296128576300,14.283576171875,-0.008378744125366211,0.006060600280761719,-0.024697303771972656
1761315296147499300,14.302499267578124,-0.03379702568054199,0.003437042236328125,0.0020885467529296875
1761315296166422000,14.321422119140625,0.009544610977172852,-0.005718231201171875,0.011321544647216797
1761315296185345000,14.340344970703125,0.021556377410888672,0.022857666015625,-0.029227256774902344
1761315296204268000,14.35926806640625,0.0002446174621582031,0.050415992736816406,-0.0543818473815918
1761315296223190800,14.378190673828126,-0.012877225875854492,0.037535667419433594,-0.06879329681396484
1761315296242113800,14.39711376953125,0.009618282318115234,0.017879486083984375,-0.029407024383544922
1761315296261036500,14.41603662109375,0.04051923751831055,-0.04079627990722656,-0.009874820709228516
1761315296279959600,14.43495947265625,0.0461583137512207,-0.03002643585205078,-0.014519691467285156
1761315296298882600,14.453882568359376,-0.00206756591796875,0.022142410278320312,-0.02822113037109375
1761315296317805300,14.472805419921874,-0.02094721794128418,0.032947540283203125,-0.02484273910522461
1761315296336728300,14.491728271484375,0.01432490348815918,0.008425712585449219,-0.0004391670227050781
1761315296355651300,14.5106513671875,0.02567291259765625,-0.010556221008300781,0.004824161529541016
1761315296374574000,14.529573974609375,-0.0005338191986083984,0.00390625,-0.004622459411621094
1761315296393497000,14.5484970703125,-0.023500919342041016,0.0344390869140625,-0.0023241043090820312
1761315296412420000,14.567420166015625,-0.007900714874267578,0.02879047393798828,0.0020542144775390625
1761315296431312400,14.5863125,-0.016069650650024414,-0.0022001266479492188,0.003989219665527344
1761315296450235400,14.6052353515625,-0.01257014274597168,-0.04374217987060547,0.022229671478271484
1761315296469158100,14.624158203125,-0.006773233413696289,-0.01636028289794922,0.054551124572753906
1761315296488081200,14.6430810546875,0.012383460998535156,-0.03946399688720703,0.07436370849609375
1761315296507004200,14.662004150390626,0.016356229782104492,-0.04731941223144531,0.03951549530029297
1761315296525927000,14.680927001953124,0.03178572654724121,-0.04820060729980469,0.025784015655517578
1761315296544850000,14.699849853515625,-0.009784460067749023,-0.02302265167236328,-0.013263702392578125
1761315296563773000,14.71877294921875,-0.04652523994445801,0.040648460388183594,-0.0017676353454589844
