time,seconds_elapsed,z,y,x
1761315282107627500,0.26262744140625,0.011529741808772087,-0.019394399598240852,-0.010766183026134968
1761315282145470700,0.300470703125,0.006032116711139679,-0.010842538438737392,-0.008322793990373611
1761315282164392400,0.319392333984375,0.008475505746901035,-0.018783552572131157,-0.011377030052244663
1761315282183314000,0.33831396484375,0.008475505746901035,-0.020005248486995697,-0.011987877078354359
1761315282202235600,0.357235595703125,0.006642963737249374,-0.012064233422279358,-0.010766183026134968
1761315282221157000,0.3761572265625,0.007253811229020357,-0.009009997360408306,-0.008933641016483307
1761315282240078800,0.395078857421875,0.006032116711139679,-0.013285927474498749,-0.007101099472492933
1761315282259000300,0.414000244140625,0.00786465872079134,-0.013285927474498749,-0.00038177953683771193
1761315282277922000,0.432922119140625,0.008475505746901035,-0.0022906772792339325,-0.0009926267666742206
1761315282296843800,0.45184375,0.00786465872079134,-0.004123218823224306,-0.00038177953683771193
1761315282315765200,0.47076513671875,0.007253811229020357,-0.009620844386518002,0.002061609411612153
1761315282334686700,0.489686767578125,0.007253811229020357,-0.016340164467692375,-0.0034360159188508987
1761315282353608400,0.5086083984375,0.010918894782662392,-0.019394399598240852,-0.007101099472492933
1761315282372530200,0.5275302734375,0.011529741808772087,-0.008399149402976036,-0.0009926267666742206
1761315282391451600,0.54645166015625,0.0017561858985573053,0.0038177953101694584,0.005726693198084831
1761315282410373000,0.565373046875,-0.0037414394319057465,0.008093725889921188,0.01122431829571724
1761315282429294800,0.584294921875,-0.00129805039614439,0.012980503961443901,0.010002624243497849
1761315282448216600,0.603216552734375,0.0017561858985573053,0.00992626789957285,0.004504998680204153
1761315282467138000,0.622137939453125,0.0023670331574976444,-0.0010689827613532543,0.0008399150101467967
1761315282486059500,0.6410595703125,0.0017561858985573053,-0.004123218823224306,0.0008399150101467967
1761315282504981200,0.659981201171875,0.0017561858985573053,0.00015271181473508477,0.0014507622690871358
1761315282523903000,0.678903076171875,0.0023670331574976444,-0.008399149402976036,-0.0009926267666742206
1761315282542824400,0.697824462890625,0.0029778804164379835,0.001985253533348441,0.008170082233846188
1761315282561746200,0.71674609375,0.006032116711139679,-0.0004581354442052543,0.006337540224194527
1761315282580667600,0.735667724609375,0.006032116711139679,-0.004734066314995289,0.002672456670552492
1761315282599589400,0.75458935546875,0.007253811229020357,-0.014507622458040714,-0.0028251686599105597
1761315282618510800,0.7735107421875,0.00786465872079134,-0.012675080448389053,-0.0016034740256145597
1761315282637432600,0.7924326171875,0.006032116711139679,-0.007177455350756645,0.002061609411612153
1761315282656354000,0.81135400390625,0.006032116711139679,0.00992626789957285,0.008780929259955883
1761315282675275800,0.83027587890625,0.0005344913806766272,0.012369656935334206,0.010002624243497849
1761315282694197200,0.849197265625,-0.000687203137204051,0.0050394898280501366,0.011835165321826935
1761315282713119000,0.868118896484375,-0.00129805039614439,0.007482878863811493,0.011835165321826935
1761315282732040400,0.88704052734375,-0.00007635590736754239,0.0068720318377017975,0.010613471269607544
1761315282750962200,0.905962158203125,0.0023670331574976444,0.015423892997205257,0.011835165321826935
1761315282769883600,0.924883544921875,-0.0025197449140250683,0.01847812905907631,0.017332790419459343
1761315282788805400,0.943805419921875,-0.004352286923676729,0.02641914412379265,0.022219568490982056
1761315282807726800,0.962726806640625,-0.004963133949786425,0.024586603045463562,0.02160872146487236
1761315282826648600,0.981648681640625,-0.004963133949786425,0.02214321307837963,0.018554486334323883
1761315282845570000,1.000570068359375,-0.00007635590736754239,0.014813045971095562,0.010002624243497849
1761315282864491800,1.01949169921875,0.004199574701488018,0.009315420873463154,0.002672456670552492
1761315282883413200,1.038413330078125,0.0035887276753783226,-0.0010689827613532543,-0.0022143214009702206
1761315282902335000,1.0573349609375,0.0023670331574976444,-0.004734066314995289,-0.00038177953683771193
1761315282921256400,1.07625634765625,0.0035887276753783226,-0.0016798300202935934,0.007559234742075205
1761315282940178200,1.09517822265625,0.006032116711139679,0.008093725889921188,0.0130568603053689
1761315282959099600,1.114099609375,0.0035887276753783226,0.012369656935334206,0.014889402315020561
1761315282978021400,1.133021484375,-0.000687203137204051,0.010537114925682545,0.011835165321826935
1761315282996942800,1.15194287109375,-0.00129805039614439,0.001374406274408102,0.007559234742075205
1761315283015864600,1.170864501953125,-0.000687203137204051,0.001374406274408102,0.0014507622690871358
1761315283034786000,1.1897861328125,0.0011453386396169662,0.004428642801940441,-0.0028251686599105597
1761315283053707800,1.208707763671875,-0.000687203137204051,0.005650337319821119,-0.0016034740256145597
1761315283072629200,1.227629150390625,-0.000687203137204051,0.007482878863811493,0.0051158457063138485
1761315283091551000,1.246551025390625,-0.000687203137204051,0.010537114925682545,0.012446013279259205
1761315283110472400,1.265472412109375,-0.000687203137204051,0.010537114925682545,0.011835165321826935
1761315283129394200,1.284394287109375,0.0035887276753783226,0.005650337319821119,0.010002624243497849
1761315283148315600,1.303315673828125,0.005421269219368696,0.001374406274408102,0.0051158457063138485
1761315283167237400,1.3222373046875,0.006032116711139679,-0.0022906772792339325,-0.00038177953683771193
1761315283186158800,1.341158935546875,0.006642963737249374,-0.0029015245381742716,-0.007101099472492933
1761315283205080600,1.36008056640625,0.004810422193259001,-0.010231691412627697,-0.008322793990373611
1761315283224002000,1.379001953125,0.006032116711139679,-0.017561858519911766,-0.007711946498602629
1761315283242923800,1.397923828125,0.0023670331574976444,-0.013896775431931019,-0.005268557462841272
1761315283261845200,1.41684521484375,0.0005344913806766272,-0.0004581354442052543,-0.0009926267666742206
1761315283280767000,1.43576708984375,-0.000687203137204051,0.001985253533348441,-0.0022143214009702206
1761315283299688400,1.4546884765625,0.0011453386396169662,0.001985253533348441,-0.0028251686599105597
1761315283318610200,1.473610107421875,0.0011453386396169662,0.004428642801940441,-0.0016034740256145597
1761315283337531600,1.49253173828125,0.0011453386396169662,0.011147962883114815,0.0038941511884331703
1761315283356453400,1.511453369140625,0.005421269219368696,0.0038177953101694584,0.0014507622690871358
1761315283375374800,1.530374755859375,0.004199574701488018,0.00259610079228878,0.0038941511884331703
1761315283394296600,1.549296630859375,0.0017561858985573053,-0.0010689827613532543,0.002061609411612153
1761315283413218000,1.568218017578125,-0.00007635590736754239,-0.014507622458040714,-0.004046862944960594
1761315283432139800,1.587139892578125,0.0017561858985573053,-0.017561858519911766,-0.007101099472492933
1761315283451061200,1.606061279296875,0.006642963737249374,-0.020616095513105392,-0.01382041908800602
1761315283469983000,1.62498291015625,0.0035887276753783226,-0.027946261689066887,-0.018707197159528732
1761315283488904400,1.643904541015625,0.005421269219368696,-0.02367033064365387,-0.010766183026134968
1761315283507826200,1.662826171875,0.0011453386396169662,-0.004734066314995289,-0.0028251686599105597
1761315283526747600,1.68174755859375,0.0005344913806766272,0.001985253533348441,0.004504998680204153
1761315283545669400,1.70066943359375,-0.000687203137204051,0.01847812905907631,0.010002624243497849
1761315283564590800,1.7195908203125,-0.005573981441557407,0.01969982497394085,0.008170082233846188
1761315283583512600,1.7385126953125,-0.00862821750342846,0.008093725889921188,0.0051158457063138485
1761315283602434300,1.757434326171875,-0.007406522985547781,0.001374406274408102,-0.00038177953683771193
1761315283621355800,1.776355712890625,-0.004352286923676729,0.00259610079228878,-0.007101099472492933
1761315283640277500,1.795277587890625,-0.0037414394319057465,0.006261184345930815,-0.007101099472492933
1761315283659199000,1.814198974609375,-0.004352286923676729,0.00259610079228878,-0.004046862944960594
1761315283678120700,1.83312060546875,-0.0037414394319057465,-0.0010689827613532543,-0.0034360159188508987
1761315283697042200,1.852042236328125,-0.0025197449140250683,-0.0004581354442052543,-0.004657710436731577
1761315283715964000,1.8709638671875,0.0011453386396169662,-0.005955760832875967,-0.004046862944960594
1761315283734885400,1.889885498046875,0.0017561858985573053,-0.0016798300202935934,0.002061609411612153
1761315283753807000,1.90880712890625,0.0005344913806766272,0.006261184345930815,-0.004046862944960594
1761315283772728600,1.927728515625,0.0011453386396169662,0.001374406274408102,-0.008322793990373611
1761315283791650300,1.946650390625,0.0029778804164379835,-0.010231691412627697,-0.011377030052244663
1761315283810571800,1.96557177734375,-0.00129805039614439,-0.01511846948415041,-0.013209572061896324
1761315283829493500,1.984493408203125,-0.006184828467667103,-0.005955760832875967,-0.008933641016483307
1761315283848415000,2.0034150390625,-0.007406522985547781,0.00992626789957285,-0.004046862944960594
1761315283867336700,2.022336669921875,-0.007406522985547781,0.012369656935334206,-0.0034360159188508987
1761315283886258200,2.041258056640625,-0.005573981441557407,0.00992626789957285,0.00022906772210262716
1761315283905180000,2.060179931640625,-0.004963133949786425,0.014202198944985867,0.002061609411612153
1761315283924101400,2.079101318359375,-0.004963133949786425,0.010537114925682545,-0.00038177953683771193
1761315283943023000,2.098023193359375,-0.0025197449140250683,-0.0022906772792339325,-0.0028251686599105597
1761315283961944600,2.116944580078125,-0.000687203137204051,-0.004123218823224306,-0.005879404954612255
1761315283980866300,2.1358662109375,0.0029778804164379835,-0.0035123717971146107,-0.009544488042593002
1761315283999787800,2.154787841796875,0.0029778804164379835,-0.004123218823224306,-0.008933641016483307
1761315284018709500,2.17370947265625,0.0023670331574976444,-0.005344913341104984,-0.004046862944960594
1761315284037631000,2.192630859375,0.0011453386396169662,-0.005955760832875967,-0.004657710436731577
1761315284056552700,2.211552734375,0.0011453386396169662,-0.0029015245381742716,-0.007101099472492933
1761315284075474200,2.23047412109375,0.0023670331574976444,-0.004123218823224306,-0.018096350133419037
1761315284094396000,2.24939599609375,0.0011453386396169662,-0.01695101149380207,-0.03092414326965809
1761315284113317600,2.268317626953125,0.0029778804164379835,-0.031000498682260513,-0.03764346241950989
1761315284132239000,2.287239013671875,0.008475505746901035,-0.05115845799446106,-0.04680617153644562
1761315284151160600,2.30616064453125,0.012140588834881783,-0.06581879407167435,-0.05047125369310379
1761315284170082300,2.325082275390625,0.009697199799120426,-0.051769305020570755,-0.043141089379787445
1761315284189004000,2.344004150390625,0.0035887276753783226,-0.032222192734479904,-0.032756682485342026
1761315284207925500,2.362925537109375,0.0017561858985573053,-0.023059483617544174,-0.01626380905508995
1761315284226847200,2.38184716796875,0.0023670331574976444,-0.01511846948415041,-0.009544488042593002
1761315284245768700,2.400768798828125,0.0023670331574976444,-0.005955760832875967,-0.008933641016483307
1761315284264690400,2.4196904296875,0.0017561858985573053,0.0038177953101694584,-0.004046862944960594
1761315284283612000,2.43861181640625,-0.00129805039614439,0.005650337319821119,-0.0016034740256145597
1761315284302533600,2.45753369140625,-0.004352286923676729,0.010537114925682545,0.0008399150101467967
1761315284321455000,2.476455078125,-0.005573981441557407,0.012980503961443901,-0.00038177953683771193
1761315284340376800,2.495376953125,-0.0019088976550847292,0.001374406274408102,-0.005268557462841272
1761315284359298300,2.51429833984375,0.008475505746901035,-0.011453386396169662,-0.009544488042593002
1761315284378220000,2.533219970703125,0.013362283818423748,-0.020616095513105392,-0.011987877078354359
1761315284397141500,2.5521416015625,0.018249060958623886,-0.019394399598240852,-0.008322793990373611
1761315284416063200,2.571063232421875,0.014583977870643139,-0.01817270554602146,-0.0009926267666742206
1761315284434985000,2.58998486328125,0.008475505746901035,-0.007788302376866341,0.005726693198084831
1761315284453906400,2.608906494140625,0.00786465872079134,-0.007177455350756645,0.002061609411612153
1761315284472828000,2.627827880859375,0.009697199799120426,-0.01511846948415041,-0.0064902519807219505
1761315284491749600,2.64674951171875,0.008475505746901035,-0.02244863659143448,-0.011987877078354359
1761315284510671400,2.66567138671875,0.004810422193259001,-0.014507622458040714,-0.008933641016483307
1761315284529592800,2.6845927734375,-0.0025197449140250683,0.006261184345930815,-0.00038177953683771193
1761315284548514600,2.7035146484375,-0.0067956759594380856,0.02764083817601204,0.012446013279259205
1761315284567436000,2.72243603515625,-0.006184828467667103,0.03008422814309597,0.017332790419459343
1761315284586357800,2.741357666015625,-0.006184828467667103,0.02764083817601204,0.016111096367239952
1761315284605279200,2.760279296875,-0.0031305921729654074,0.016034740954637527,0.010613471269607544
1761315284624201000,2.779200927734375,0.006032116711139679,-0.0010689827613532543,0.0008399150101467967
1761315284643122700,2.798122802734375,0.013362283818423748,-0.023059483617544174,-0.011987877078354359
1761315284662044200,2.817044189453125,0.017027366906404495,-0.033443886786699295,-0.016874656081199646
1761315284680966000,2.8359658203125,0.022524992004036903,-0.0328330397605896,-0.02053973823785782
1761315284699887400,2.854887451171875,0.0231358390301466,-0.042606595903635025,-0.021150587126612663
1761315284718809000,2.87380908203125,0.021914144977927208,-0.041384901851415634,-0.011987877078354359
1761315284737730600,2.89273046875,0.01763821393251419,-0.02367033064365387,0.00022906772210262716
1761315284756652300,2.91165234375,0.012751436792314053,-0.0029015245381742716,0.012446013279259205
1761315284775573800,2.93057373046875,0.008475505746901035,0.01847812905907631,0.017332790419459343
1761315284794495500,2.94949560546875,0.0005344913806766272,0.01847812905907631,0.017332790419459343
1761315284813417000,2.9684169921875,-0.0067956759594380856,0.01969982497394085,0.02038702741265297
1761315284832338700,2.987338623046875,-0.00862821750342846,0.028251685202121735,0.020997874438762665
1761315284851260200,3.00626025390625,-0.006184828467667103,0.03008422814309597,0.019776180386543274
1761315284870182000,3.025181884765625,-0.0031305921729654074,0.02641914412379265,0.0130568603053689
1761315284889103600,3.044103515625,-0.00129805039614439,0.025808297097682953,0.0038941511884331703
1761315284908025000,3.063025146484375,-0.000687203137204051,0.0068720318377017975,-0.0028251686599105597
1761315284926946800,3.08194677734375,-0.00007635590736754239,-0.018783552572131157,-0.009544488042593002
1761315284945868300,3.100868408203125,0.0017561858985573053,-0.03588727489113808,-0.021150587126612663
1761315284964790000,3.1197900390625,0.010918894782662392,-0.04749337583780289,-0.030313294380903244
1761315284983711500,3.13871142578125,0.021303297951817513,-0.04688252881169319,-0.03336753323674202
1761315285002633200,3.15763330078125,0.02435753494501114,-0.052990999072790146,-0.03886515647172928
1761315285021554700,3.1765546875,0.02802261710166931,-0.06581879407167435,-0.039476003497838974
1761315285040476400,3.195476318359375,0.02924431301653385,-0.06642963737249374,-0.03336753323674202
1761315285059398100,3.214398193359375,0.024968381971120834,-0.06032116711139679,-0.024815669283270836
1761315285078319600,3.233319580078125,0.020692450925707817,-0.0462716780602932,-0.010155336000025272
1761315285097241300,3.252241455078125,0.0164165198802948,-0.029167955741286278,-0.00038177953683771193
1761315285116162800,3.271162841796875,0.017027366906404495,-0.019394399598240852,-0.0009926267666742206
1761315285135084500,3.29008447265625,0.012751436792314053,-0.01817270554602146,0.00022906772210262716
1761315285154006000,3.309006103515625,0.00786465872079134,-0.016340164467692375,-0.0064902519807219505
1761315285172927700,3.327927734375,0.005421269219368696,-0.009620844386518002,-0.011377030052244663
1761315285191849500,3.346849365234375,0.004810422193259001,-0.005344913341104984,-0.011987877078354359
1761315285210771000,3.36577099609375,0.0017561858985573053,-0.0004581354442052543,-0.011377030052244663
1761315285229692700,3.384692626953125,-0.00129805039614439,0.0068720318377017975,-0.0016034740256145597
1761315285248614100,3.4036142578125,0.0005344913806766272,0.008704573847353458,0.0038941511884331703
1761315285267536000,3.422535888671875,0.0023670331574976444,0.008704573847353458,0.0051158457063138485
1761315285286457300,3.441457275390625,0.004810422193259001,0.0068720318377017975,0.007559234742075205
1761315285305379000,3.460379150390625,0.007253811229020357,0.00015271181473508477,0.002061609411612153
1761315285324300800,3.47930078125,0.011529741808772087,-0.004123218823224306,0.0008399150101467967
1761315285343222300,3.49822216796875,0.012140588834881783,-0.004123218823224306,0.007559234742075205
1761315285362144000,3.51714404296875,0.010308047756552696,0.001374406274408102,0.015500249341130257
1761315285381065500,3.5360654296875,0.008475505746901035,0.006261184345930815,0.01916533336043358
1761315285399987200,3.5549873046875,0.006032116711139679,0.016645587980747223,0.027717193588614464
1761315285418908700,3.57390869140625,0.004199574701488018,0.01725643500685692,0.025273805484175682
1761315285437830400,3.592830322265625,0.004810422193259001,0.010537114925682545,0.017332790419459343
1761315285456751900,3.611751953125,0.006032116711139679,0.011147962883114815,0.010002624243497849
1761315285475673600,3.630673583984375,0.00786465872079134,0.0068720318377017975,0.008780929259955883
1761315285494595300,3.64959521484375,0.006032116711139679,0.005650337319821119,0.008170082233846188
1761315285513516800,3.668516845703125,0.0035887276753783226,0.0068720318377017975,0.005726693198084831
1761315285532438500,3.6874384765625,0.0023670331574976444,0.001985253533348441,0.0008399150101467967
1761315285551360000,3.706360107421875,0.0023670331574976444,-0.0035123717971146107,-0.008322793990373611
1761315285570281700,3.72528173828125,0.005421269219368696,-0.008399149402976036,-0.019928891211748123
1761315285589203500,3.744203369140625,0.005421269219368696,-0.01511846948415041,-0.029091600328683853
1761315285608125000,3.763125,0.0023670331574976444,-0.0261137206107378,-0.03886515647172928
1761315285627046700,3.782046630859375,-0.00007635590736754239,-0.027946261689066887,-0.03886515647172928
1761315285645968100,3.800968017578125,-0.000687203137204051,-0.020005248486995697,-0.0364217683672905
1761315285664889900,3.819889892578125,-0.006184828467667103,-0.011453386396169662,-0.027259059250354767
1761315285683811300,3.838811279296875,-0.011682453565299511,0.005650337319821119,-0.01382041908800602
1761315285702733000,3.857733154296875,-0.014125842601060867,0.014813045971095562,-0.0064902519807219505
1761315285721654800,3.87665478515625,-0.01901262067258358,0.019088976085186005,-0.0009926267666742206
1761315285740576300,3.895576171875,-0.020845163613557816,0.010537114925682545,-0.0009926267666742206
1761315285759498000,3.914498046875,-0.015958385542035103,0.0032069480512291193,-0.007101099472492933
1761315285778419500,3.93341943359375,-0.011682453565299511,0.00015271181473508477,-0.018096350133419037
1761315285797341200,3.952341064453125,-0.009849912486970425,-0.009009997360408306,-0.027259059250354767
1761315285816262700,3.9712626953125,-0.005573981441557407,-0.02367033064365387,-0.032756682485342026
1761315285835184400,3.990184326171875,-0.000687203137204051,-0.042606595903635025,-0.0364217683672905
1761315285854106000,4.009106201171875,-0.00129805039614439,-0.0456608310341835,-0.03336753323674202
1761315285873027600,4.028027587890625,-0.000687203137204051,-0.03771981969475746,-0.028480753302574158
1761315285891949300,4.04694921875,0.0023670331574976444,-0.021226942539215088,-0.018707197159528732
1761315285910870800,4.065870849609375,0.0005344913806766272,-0.010842538438737392,-0.012598725035786629
1761315285929792500,4.08479248046875,-0.0031305921729654074,-0.004734066314995289,-0.0028251686599105597
1761315285948714200,4.10371435546875,-0.008017370477318764,0.00992626789957285,0.004504998680204153
1761315285967635700,4.1226357421875,-0.012293301522731781,0.02092151902616024,0.010002624243497849
1761315285986557400,4.141557373046875,-0.012904148548841476,0.016034740954637527,0.004504998680204153
1761315286005479000,4.16047900390625,-0.009239064529538155,0.00259610079228878,-0.0034360159188508987
1761315286024400600,4.179400634765625,-0.0037414394319057465,-0.0029015245381742716,-0.011377030052244663
1761315286043322400,4.198322265625,-0.00129805039614439,-0.005955760832875967,-0.01382041908800602
1761315286062243800,4.217243896484375,0.0005344913806766272,-0.013896775431931019,-0.010155336000025272
1761315286081165600,4.23616552734375,0.004810422193259001,-0.01817270554602146,-0.004657710436731577
1761315286100087000,4.255087158203125,0.008475505746901035,-0.013896775431931019,0.0014507622690871358
1761315286119008800,4.2740087890625,0.009697199799120426,-0.005344913341104984,0.006948387715965509
1761315286137930500,4.292930419921875,0.004199574701488018,0.0068720318377017975,0.011835165321826935
1761315286156852000,4.31185205078125,-0.000687203137204051,0.01175880990922451,0.012446013279259205
1761315286175773700,4.330773681640625,-0.00129805039614439,0.009315420873463154,0.009391776286065578
1761315286194695200,4.349695068359375,0.004199574701488018,0.004428642801940441,0.0014507622690871358
1761315286213617000,4.368616943359375,0.0035887276753783226,0.00259610079228878,-0.004046862944960594
1761315286232538600,4.38753857421875,0.004199574701488018,-0.005955760832875967,-0.007711946498602629
1761315286251460000,4.406460205078125,0.005421269219368696,-0.012064233422279358,-0.008933641016483307
1761315286270381800,4.4253818359375,0.00786465872079134,-0.008399149402976036,-0.008933641016483307
1761315286289303300,4.44430322265625,0.00908635277301073,0.0007635590736754239,-0.0034360159188508987
1761315286308225000,4.46322509765625,0.006642963737249374,0.0032069480512291193,0.0051158457063138485
1761315286327146800,4.482146728515625,0.004199574701488018,0.00015271181473508477,0.014278554357588291
1761315286346068200,4.501068115234375,0.005421269219368696,0.011147962883114815,0.022219568490982056
1761315286364990000,4.519989990234375,0.00786465872079134,0.020310672000050545,0.02160872146487236
1761315286383911400,4.538911376953125,0.006642963737249374,0.023364907130599022,0.019776180386543274
1761315286402833200,4.557833251953125,0.004199574701488018,0.014813045971095562,0.016111096367239952
1761315286421755000,4.5767548828125,0.004810422193259001,0.008704573847353458,0.014889402315020561
1761315286440676400,4.59567626953125,0.004810422193259001,0.0068720318377017975,0.012446013279259205
1761315286459598000,4.61459814453125,0.0035887276753783226,0.008093725889921188,0.006337540224194527
1761315286478519800,4.633519775390625,0.004199574701488018,0.001374406274408102,0.002061609411612153
1761315286497441300,4.652441162109375,0.006032116711139679,-0.004123218823224306,0.0014507622690871358
1761315286516363000,4.671363037109375,0.004199574701488018,-0.005955760832875967,-0.00038177953683771193
1761315286535284500,4.690284423828125,0.0017561858985573053,-0.012064233422279358,-0.007711946498602629
1761315286554206200,4.709206298828125,-0.000687203137204051,-0.008399149402976036,-0.009544488042593002
1761315286573128000,4.7281279296875,-0.000687203137204051,-0.004123218823224306,-0.013209572061896324
1761315286592049400,4.74704931640625,-0.000687203137204051,-0.007788302376866341,-0.015042114071547985
1761315286610971100,4.76597119140625,0.0017561858985573053,-0.01511846948415041,-0.014431266114115715
1761315286629892600,4.784892578125,-0.000687203137204051,-0.013285927474498749,-0.007101099472492933
1761315286648814300,4.803814453125,-0.0019088976550847292,-0.005344913341104984,-0.0009926267666742206
1761315286667736000,4.822736083984375,0.0005344913806766272,-0.0022906772792339325,0.0032833039294928312
1761315286686657500,4.841657470703125,0.004199574701488018,0.0007635590736754239,0.006337540224194527
1761315286705579300,4.860579345703125,0.0029778804164379835,0.0007635590736754239,0.007559234742075205
1761315286724500700,4.879500732421875,0.0029778804164379835,0.0032069480512291193,0.006337540224194527
1761315286743422500,4.89842236328125,-0.000687203137204051,0.001374406274408102,0.0032833039294928312
1761315286762344200,4.91734423828125,-0.004352286923676729,0.00259610079228878,0.0014507622690871358
1761315286781265700,4.936265625,-0.005573981441557407,0.0038177953101694584,0.00022906772210262716
1761315286800187400,4.9551875,-0.005573981441557407,0.0038177953101694584,0.002672456670552492
1761315286819109000,4.974109130859375,-0.007406522985547781,0.008093725889921188,0.005726693198084831
1761315286838030600,4.993030517578125,-0.004352286923676729,0.0068720318377017975,0.0051158457063138485
1761315286856952300,5.011952392578125,-0.00129805039614439,0.0032069480512291193,0.002061609411612153
1761315286875873800,5.030873779296875,-0.00129805039614439,0.001374406274408102,-0.0016034740256145597
1761315286894795500,5.04979541015625,-0.004963133949786425,0.001374406274408102,-0.004046862944960594
1761315286913717200,5.06871728515625,-0.006184828467667103,0.0038177953101694584,-0.004657710436731577
1761315286932638700,5.087638671875,-0.004963133949786425,0.001374406274408102,-0.0064902519807219505
1761315286951560400,5.106560546875,-0.008017370477318764,0.0038177953101694584,-0.008322793990373611
1761315286970482000,5.12548193359375,-0.008017370477318764,0.0032069480512291193,-0.005268557462841272
1761315286989403600,5.144403564453125,-0.009239064529538155,0.004428642801940441,-0.0034360159188508987
1761315287008325400,5.163325439453125,-0.005573981441557407,0.005650337319821119,-0.0022143214009702206
1761315287027246800,5.182246826171875,-0.0037414394319057465,-0.0004581354442052543,-0.0034360159188508987
1761315287046168600,5.20116845703125,-0.0025197449140250683,-0.005955760832875967,-0.0034360159188508987
1761315287065090300,5.22009033203125,-0.0025197449140250683,-0.007177455350756645,-0.004046862944960594
1761315287084011800,5.23901171875,-0.0031305921729654074,-0.0010689827613532543,-0.005879404954612255
1761315287102933500,5.25793359375,-0.0067956759594380856,0.00259610079228878,-0.010766183026134968
1761315287121855200,5.276855224609375,-0.00862821750342846,-0.005344913341104984,-0.011987877078354359
1761315287140776700,5.295776611328125,-0.009849912486970425,-0.010231691412627697,-0.01382041908800602
1761315287159698400,5.314698486328125,-0.009849912486970425,-0.012064233422279358,-0.02053973823785782
1761315287178620000,5.333619873046875,-0.012904148548841476,-0.007788302376866341,-0.02298312820494175
1761315287197541600,5.352541748046875,-0.01046075951308012,-0.007177455350756645,-0.02053973823785782
1761315287216463400,5.37146337890625,-0.008017370477318764,-0.010842538438737392,-0.018096350133419037
1761315287235384800,5.390384765625,-0.004963133949786425,-0.010842538438737392,-0.012598725035786629
1761315287254306600,5.409306640625,-0.000687203137204051,-0.008399149402976036,-0.007101099472492933
1761315287273228300,5.428228271484375,0.004199574701488018,-0.012675080448389053,-0.004657710436731577
1761315287292149800,5.447149658203125,0.0035887276753783226,-0.010231691412627697,-0.0034360159188508987
1761315287311071500,5.466071533203125,0.0023670331574976444,-0.010842538438737392,-0.004657710436731577
1761315287329993000,5.484992919921875,0.0017561858985573053,-0.008399149402976036,-0.0064902519807219505
1761315287348914700,5.503914794921875,0.0011453386396169662,-0.009009997360408306,-0.010766183026134968
1761315287367836400,5.52283642578125,-0.000687203137204051,-0.010842538438737392,-0.012598725035786629
1761315287386758000,5.5417578125,-0.005573981441557407,-0.007788302376866341,-0.013209572061896324
1761315287405679600,5.5606796875,-0.007406522985547781,-0.0065666078589856625,-0.011987877078354359
1761315287424601300,5.579601318359375,-0.006184828467667103,-0.007788302376866341,-0.013209572061896324
1761315287443522800,5.598522705078125,-0.005573981441557407,-0.007177455350756645,-0.015652960166335106
1761315287462444500,5.617444580078125,-0.006184828467667103,-0.009009997360408306,-0.016874656081199646
1761315287481366300,5.6363662109375,-0.004963133949786425,-0.009009997360408306,-0.014431266114115715
1761315287500287700,5.655287841796875,-0.004963133949786425,0.001985253533348441,-0.008322793990373611
1761315287519209500,5.67420947265625,-0.0037414394319057465,0.0032069480512291193,-0.0034360159188508987
1761315287538131000,5.693130859375,-0.0031305921729654074,-0.0010689827613532543,-0.00038177953683771193
1761315287557052700,5.712052734375,-0.004352286923676729,0.00259610079228878,0.0051158457063138485
1761315287575974400,5.730974365234375,-0.0031305921729654074,0.0050394898280501366,0.006337540224194527
1761315287594896000,5.749895751953125,-0.00007635590736754239,0.006261184345930815,0.004504998680204153
1761315287613817600,5.768817626953125,-0.00007635590736754239,0.0038177953101694584,0.002061609411612153
1761315287632739300,5.7877392578125,-0.000687203137204051,0.00015271181473508477,-0.0028251686599105597
1761315287651660800,5.806660888671875,0.0005344913806766272,-0.0004581354442052543,-0.007101099472492933
1761315287670609400,5.825609375,0.0005344913806766272,-0.0016798300202935934,-0.007711946498602629
1761315287689532400,5.844532470703125,-0.00007635590736754239,-0.004734066314995289,-0.005268557462841272
1761315287708455400,5.863455322265625,-0.0019088976550847292,-0.005344913341104984,-0.004657710436731577
1761315287727347700,5.88234765625,0.0005344913806766272,-0.007788302376866341,-0.008322793990373611
1761315287746270700,5.901270751953125,0.004199574701488018,-0.012064233422279358,-0.011377030052244663
1761315287765193500,5.920193359375,0.005421269219368696,-0.017561858519911766,-0.015042114071547985
1761315287784116500,5.939116455078125,0.004810422193259001,-0.029778804630041122,-0.019318044185638428
1761315287803039500,5.95803955078125,0.009697199799120426,-0.03771981969475746,-0.018096350133419037
1761315287821962200,5.976962158203125,0.010918894782662392,-0.0328330397605896,-0.019318044185638428
1761315287840885200,5.99588525390625,0.004810422193259001,-0.020616095513105392,-0.02053973823785782
1761315287859808300,6.014808349609375,-0.00007635590736754239,-0.018783552572131157,-0.02542651630938053
1761315287878731000,6.03373095703125,-0.0019088976550847292,-0.024281177669763565,-0.02970244735479355
1761315287897654000,6.052654052734375,-0.0019088976550847292,-0.0328330397605896,-0.0358109213411808
1761315287916576800,6.07157666015625,-0.0019088976550847292,-0.03588727489113808,-0.04008685052394867
1761315287935499800,6.090499755859375,-0.004352286923676729,-0.037108972668647766,-0.03886515647172928
1761315287954422800,6.1094228515625,-0.004963133949786425,-0.03955236077308655,-0.03886515647172928
1761315287973345500,6.128345458984375,-0.0037414394319057465,-0.03833066672086716,-0.03764346241950989
1761315287992268500,6.1472685546875,-0.0031305921729654074,-0.029778804630041122,-0.032756682485342026
1761315288011191600,6.166191650390625,-0.0019088976550847292,-0.02367033064365387,-0.02664821222424507
1761315288030114300,6.1851142578125,-0.00129805039614439,-0.018783552572131157,-0.019928891211748123
1761315288049037300,6.204037353515625,-0.0025197449140250683,-0.0022906772792339325,-0.0064902519807219505
1761315288067960300,6.222960205078125,-0.007406522985547781,0.021532366052269936,0.009391776286065578
1761315288086883000,6.241883056640625,-0.012904148548841476,0.031916771084070206,0.019776180386543274
1761315288105806000,6.26080615234375,-0.015347537584602833,0.0331384651362896,0.02038702741265297
1761315288124729000,6.27972900390625,-0.014125842601060867,0.028251685202121735,0.013667707331478596
1761315288143651800,6.29865185546875,-0.014125842601060867,0.019088976085186005,0.004504998680204153
1761315288162574800,6.317574951171875,-0.015347537584602833,0.016645587980747223,-0.005268557462841272
1761315288181467100,6.336467041015625,-0.017180079594254494,0.012980503961443901,-0.01626380905508995
1761315288200390100,6.35539013671875,-0.020845163613557816,0.012369656935334206,-0.02542651630938053
1761315288219313200,6.374313232421875,-0.022066857665777206,0.004428642801940441,-0.032756682485342026
1761315288238236000,6.39323583984375,-0.01901262067258358,-0.010231691412627697,-0.043141089379787445
1761315288257159000,6.412158935546875,-0.015347537584602833,-0.020005248486995697,-0.04802786558866501
1761315288276081700,6.43108154296875,-0.012293301522731781,-0.027946261689066887,-0.05230379477143288
1761315288295004700,6.450004638671875,-0.00862821750342846,-0.04016320779919624,-0.05535803362727165
1761315288313927700,6.468927734375,-0.0031305921729654074,-0.04688252881169319,-0.05596888065338135
1761315288332850400,6.487850341796875,0.0011453386396169662,-0.0456608310341835,-0.05596888065338135
1761315288351773400,6.5067734375,0.0029778804164379835,-0.042606595903635025,-0.05474718660116196
1761315288370696400,6.525696533203125,0.0029778804164379835,-0.041384901851415634,-0.05047125369310379
1761315288389619200,6.544619140625,0.0017561858985573053,-0.04443913698196411,-0.043141089379787445
1761315288408542200,6.563542236328125,-0.00007635590736754239,-0.04016320779919624,-0.03825430944561958
1761315288427465200,6.58246533203125,0.0011453386396169662,-0.037108972668647766,-0.03703261539340019
1761315288446388000,6.601387939453125,0.0011453386396169662,-0.03894151374697685,-0.03764346241950989
1761315288465311000,6.62031103515625,-0.00129805039614439,-0.0328330397605896,-0.0358109213411808
1761315288484234000,6.63923388671875,-0.007406522985547781,-0.02367033064365387,-0.0358109213411808
1761315288503156700,6.65815673828125,-0.00862821750342846,-0.020616095513105392,-0.03336753323674202
1761315288522079700,6.677079833984375,-0.008017370477318764,-0.009009997360408306,-0.02664821222424507
1761315288541002500,6.69600244140625,-0.008017370477318764,0.0007635590736754239,-0.019928891211748123
1761315288559925500,6.714925537109375,-0.00862821750342846,0.009315420873463154,-0.011987877078354359
1761315288578848500,6.7338486328125,-0.008017370477318764,0.009315420873463154,-0.005879404954612255
1761315288597771300,6.752771240234375,-0.005573981441557407,0.005650337319821119,-0.005268557462841272
1761315288616694300,6.7716943359375,-0.0037414394319057465,0.00015271181473508477,-0.007101099472492933
1761315288635586600,6.790586669921875,-0.0025197449140250683,-0.0022906772792339325,-0.007101099472492933
1761315288654509600,6.809509521484375,-0.0019088976550847292,-0.0022906772792339325,-0.007101099472492933
1761315288673432600,6.8284326171875,-0.0031305921729654074,0.001374406274408102,-0.004046862944960594
1761315288692355300,6.847355224609375,-0.005573981441557407,0.001374406274408102,-0.0022143214009702206
1761315288711278300,6.8662783203125,-0.0067956759594380856,0.004428642801940441,-0.005268557462841272
1761315288730201300,6.885201416015625,-0.008017370477318764,0.00259610079228878,-0.005879404954612255
1761315288749124000,6.9041240234375,-0.011682453565299511,0.001985253533348441,-0.010155336000025272
1761315288768047000,6.923047119140625,-0.012293301522731781,-0.0010689827613532543,-0.011377030052244663
1761315288786970000,6.94197021484375,-0.009849912486970425,-0.0010689827613532543,-0.010766183026134968
1761315288805892900,6.960892822265625,-0.006184828467667103,0.00259610079228878,-0.008933641016483307
1761315288824815900,6.97981591796875,-0.004352286923676729,0.009315420873463154,-0.0009926267666742206
1761315288843739000,6.99873876953125,-0.004352286923676729,0.014813045971095562,0.008780929259955883
1761315288862661600,7.01766162109375,-0.0037414394319057465,0.013591351918876171,0.016111096367239952
1761315288881584600,7.036584716796875,-0.0019088976550847292,0.012980503961443901,0.018554486334323883
1761315288900507400,7.05550732421875,-0.0019088976550847292,0.016034740954637527,0.017332790419459343
1761315288919430400,7.074430419921875,-0.0019088976550847292,0.01847812905907631,0.015500249341130257
1761315288938353400,7.093353515625,-0.000687203137204051,0.012980503961443901,0.008780929259955883
1761315288957276200,7.112276123046875,-0.00129805039614439,-0.0016798300202935934,0.00022906772210262716
1761315288976199200,7.13119921875,-0.0019088976550847292,-0.005955760832875967,-0.005268557462841272
1761315288995122200,7.1501220703125,-0.0031305921729654074,-0.0029015245381742716,-0.007101099472492933
1761315289014045000,7.169044921875,-0.0031305921729654074,0.001374406274408102,-0.004046862944960594
1761315289032968000,7.187968017578125,-0.0067956759594380856,0.009315420873463154,-0.0009926267666742206
1761315289051891000,7.206890869140625,-0.011071606539189816,0.012980503961443901,0.002061609411612153
1761315289070813700,7.225813720703125,-0.01046075951308012,0.011147962883114815,0.00022906772210262716
1761315289089706200,7.244706298828125,-0.0067956759594380856,0.010537114925682545,-0.0016034740256145597
1761315289108629000,7.26362890625,-0.005573981441557407,0.008704573847353458,-0.0016034740256145597
1761315289127552000,7.282552001953125,-0.0025197449140250683,0.006261184345930815,-0.0028251686599105597
1761315289146475000,7.30147509765625,-0.00007635590736754239,0.0007635590736754239,-0.0016034740256145597
1761315289165397800,7.320397705078125,0.0011453386396169662,0.00015271181473508477,0.002672456670552492
1761315289184320800,7.33932080078125,0.0023670331574976444,-0.0004581354442052543,0.0051158457063138485
1761315289203243800,7.358243896484375,0.0035887276753783226,0.001374406274408102,0.0051158457063138485
1761315289222166500,7.37716650390625,-0.00129805039614439,0.007482878863811493,0.004504998680204153
1761315289241089500,7.396089599609375,-0.004963133949786425,0.008704573847353458,0.002672456670552492
1761315289260012300,7.41501220703125,-0.004963133949786425,0.001985253533348441,0.00022906772210262716
1761315289278935300,7.433935302734375,-0.0031305921729654074,0.004428642801940441,0.00022906772210262716
1761315289297858300,7.4528583984375,-0.000687203137204051,0.004428642801940441,-0.004046862944960594
1761315289316781000,7.471781005859375,0.0005344913806766272,0.0050394898280501366,-0.0028251686599105597
1761315289335704000,7.4907041015625,-0.00129805039614439,0.010537114925682545,0.007559234742075205
1761315289354627000,7.509626953125,0.0005344913806766272,0.008704573847353458,0.014889402315020561
1761315289373549800,7.5285498046875,0.0017561858985573053,0.007482878863811493,0.017332790419459343
1761315289392472800,7.547472900390625,0.0029778804164379835,0.00992626789957285,0.014889402315020561
1761315289411395800,7.566395751953125,0.004199574701488018,0.008093725889921188,0.007559234742075205
1761315289430318600,7.585318603515625,0.0029778804164379835,0.001985253533348441,0.0014507622690871358
1761315289449241600,7.60424169921875,0.004810422193259001,-0.004123218823224306,-0.004046862944960594
1761315289468164600,7.62316455078125,0.006032116711139679,-0.005344913341104984,-0.005879404954612255
1761315289487087400,7.64208740234375,0.0035887276753783226,-0.005344913341104984,-0.0022143214009702206
1761315289506010400,7.66101025390625,0.0005344913806766272,-0.0022906772792339325,-0.0009926267666742206
1761315289524933000,7.67993310546875,0.0023670331574976444,-0.0010689827613532543,-0.0009926267666742206
1761315289543825700,7.69882568359375,0.004810422193259001,0.001374406274408102,0.0008399150101467967
1761315289562748700,7.717748779296875,0.004810422193259001,0.0032069480512291193,0.006337540224194527
1761315289581671400,7.73667138671875,0.0035887276753783226,0.0050394898280501366,0.010613471269607544
1761315289600594400,7.755594482421875,0.0029778804164379835,0.009315420873463154,0.011835165321826935
1761315289619517200,7.77451708984375,0.005421269219368696,0.009315420873463154,0.011835165321826935
1761315289638440200,7.793440185546875,0.006642963737249374,-0.0010689827613532543,0.004504998680204153
1761315289657363200,7.81236328125,0.005421269219368696,-0.013285927474498749,-0.00038177953683771193
1761315289676286000,7.831285888671875,0.004810422193259001,-0.011453386396169662,-0.0034360159188508987
1761315289695209000,7.850208984375,0.004810422193259001,-0.010231691412627697,-0.007101099472492933
1761315289714132000,7.869132080078125,0.006642963737249374,-0.01511846948415041,-0.007711946498602629
1761315289733054700,7.8880546875,0.00786465872079134,-0.012675080448389053,-0.007711946498602629
1761315289751977700,7.906977783203125,0.004199574701488018,-0.008399149402976036,-0.005879404954612255
1761315289770900700,7.925900634765625,0.0023670331574976444,-0.007788302376866341,-0.004657710436731577
1761315289789823500,7.944823486328125,0.0035887276753783226,-0.007177455350756645,-0.004046862944960594
1761315289808746500,7.96374658203125,0.006032116711139679,-0.012064233422279358,-0.005879404954612255
1761315289827669500,7.98266943359375,0.004199574701488018,-0.007788302376866341,-0.0016034740256145597
1761315289846592300,8.00159228515625,0.006032116711139679,-0.0065666078589856625,-0.0009926267666742206
1761315289865515300,8.020515380859376,0.006032116711139679,-0.009009997360408306,-0.0028251686599105597
1761315289884438000,8.03943798828125,0.00786465872079134,-0.007177455350756645,-0.0016034740256145597
1761315289903361000,8.058361083984375,0.008475505746901035,-0.004734066314995289,0.002061609411612153
1761315289922284000,8.077283935546875,0.006032116711139679,-0.004123218823224306,0.004504998680204153
1761315289941206800,8.096206787109375,0.004199574701488018,-0.0035123717971146107,0.002061609411612153
1761315289960129800,8.1151298828125,0.0023670331574976444,-0.0022906772792339325,0.00022906772210262716
1761315289979052800,8.134052734375,0.0017561858985573053,-0.0029015245381742716,-0.0016034740256145597
1761315289997945000,8.152945068359376,0.0017561858985573053,-0.005955760832875967,-0.0022143214009702206
1761315290016868000,8.1718681640625,0.0029778804164379835,-0.008399149402976036,-0.005268557462841272
1761315290035790800,8.190790771484375,0.0035887276753783226,-0.012675080448389053,-0.005268557462841272
1761315290054713900,8.2097138671875,0.0023670331574976444,-0.0016798300202935934,-0.00038177953683771193
1761315290073636900,8.228636962890626,0.0011453386396169662,0.004428642801940441,-0.0016034740256145597
1761315290092553000,8.247552978515625,-0.000687203137204051,0.0038177953101694584,-0.0022143214009702206
1761315290111482600,8.266482666015625,-0.000687203137204051,0.00015271181473508477,-0.004657710436731577
1761315290130405600,8.285405517578125,0.0005344913806766272,-0.0035123717971146107,-0.004657710436731577
1761315290149328400,8.304328369140626,0.0011453386396169662,-0.0022906772792339325,-0.005879404954612255
1761315290168251400,8.32325146484375,-0.00007635590736754239,-0.0010689827613532543,-0.004046862944960594
1761315290187174400,8.34217431640625,-0.00129805039614439,0.0007635590736754239,-0.0009926267666742206
1761315290206097200,8.36109716796875,-0.00007635590736754239,-0.0022906772792339325,-0.00038177953683771193
1761315290225020200,8.380020263671875,-0.00007635590736754239,-0.004734066314995289,-0.00038177953683771193
1761315290243943000,8.39894287109375,-0.0019088976550847292,0.00015271181473508477,-0.0009926267666742206
1761315290262866000,8.417865966796874,-0.00129805039614439,0.004428642801940441,-0.0009926267666742206
1761315290281789000,8.436788818359375,-0.00129805039614439,0.001985253533348441,-0.0022143214009702206
1761315290300711700,8.455711669921875,-0.0037414394319057465,0.0007635590736754239,-0.0016034740256145597
1761315290319634700,8.474634765625,-0.006184828467667103,-0.0035123717971146107,0.0008399150101467967
1761315290338557700,8.4935576171875,-0.009239064529538155,0.001374406274408102,0.004504998680204153
1761315290357480400,8.51248046875,-0.009239064529538155,0.0068720318377017975,0.007559234742075205
1761315290376403500,8.531403564453125,-0.009239064529538155,0.01175880990922451,0.005726693198084831
1761315290395326500,8.550326416015626,-0.008017370477318764,0.011147962883114815,0.004504998680204153
1761315290414249200,8.569249267578124,-0.004963133949786425,0.008704573847353458,0.0038941511884331703
1761315290433172200,8.588172119140625,-0.004963133949786425,0.007482878863811493,0.0038941511884331703
1761315290452064500,8.607064453125,-0.0067956759594380856,0.008704573847353458,0.0014507622690871358
1761315290470987500,8.625987548828125,-0.007406522985547781,0.005650337319821119,-0.0022143214009702206
1761315290489910500,8.64491064453125,-0.006184828467667103,0.001374406274408102,-0.004657710436731577
1761315290508833300,8.663833251953125,-0.0037414394319057465,-0.007177455350756645,-0.007101099472492933
1761315290527756300,8.68275634765625,-0.004352286923676729,-0.005344913341104984,-0.005268557462841272
1761315290546679300,8.70167919921875,-0.004352286923676729,-0.0004581354442052543,-0.00038177953683771193
1761315290565602000,8.72060205078125,-0.0031305921729654074,-0.0004581354442052543,0.002672456670552492
1761315290584525000,8.739525146484375,-0.0019088976550847292,0.0032069480512291193,0.0051158457063138485
1761315290603447800,8.75844775390625,-0.00129805039614439,0.006261184345930815,0.004504998680204153
1761315290622370800,8.777370849609374,-0.0025197449140250683,0.008704573847353458,0.002672456670552492
1761315290641293800,8.7962939453125,-0.007406522985547781,0.011147962883114815,0.0014507622690871358
1761315290660216600,8.815216552734375,-0.014125842601060867,0.010537114925682545,-0.004657710436731577
1761315290679139600,8.8341396484375,-0.018401773646473885,0.004428642801940441,-0.012598725035786629
1761315290698062600,8.8530625,-0.014736690558493137,-0.0035123717971146107,-0.01626380905508995
1761315290716985300,8.8719853515625,-0.011071606539189816,-0.0065666078589856625,-0.018096350133419037
1761315290735908400,8.890908447265625,-0.0067956759594380856,-0.007788302376866341,-0.013209572061896324
1761315290754831400,8.909831298828125,-0.0025197449140250683,-0.0065666078589856625,-0.0009926267666742206
1761315290773754000,8.928754150390626,0.004199574701488018,-0.004123218823224306,0.011835165321826935
1761315290792677000,8.947677001953124,0.004810422193259001,0.005650337319821119,0.02832804247736931
1761315290811600100,8.96660009765625,0.0005344913806766272,0.019088976085186005,0.041766680777072906
1761315290830523000,8.98552294921875,-0.0031305921729654074,0.023975754156708717,0.0423775278031826
1761315290849446000,9.00444580078125,-0.00007635590736754239,0.01725643500685692,0.03504735976457596
1761315290868368600,9.02336865234375,0.0011453386396169662,0.01847812905907631,0.02283041551709175
1761315290887291600,9.042291748046875,-0.009239064529538155,0.03130592033267021,0.014278554357588291
1761315290906184200,9.06118408203125,-0.025731941685080528,0.045355409383773804,0.011835165321826935
1761315290925107000,9.08010693359375,-0.04100312292575836,0.05085303261876106,0.012446013279259205
1761315290944030000,9.099030029296875,-0.05016583204269409,0.04963133856654167,0.0051158457063138485
1761315290962952700,9.11795263671875,-0.04772244393825531,0.037414394319057465,-0.0064902519807219505
1761315290981875700,9.136875732421874,-0.03733803704380989,0.02214321307837963,-0.01382041908800602
1761315291000798700,9.155798828125,-0.028786176815629005,0.009315420873463154,-0.014431266114115715
1761315291019721500,9.174721435546875,-0.023288551717996597,0.00015271181473508477,-0.011377030052244663
1761315291038644500,9.19364453125,-0.017180079594254494,0.001374406274408102,-0.0028251686599105597
1761315291057567500,9.2125673828125,-0.011682453565299511,0.007482878863811493,0.005726693198084831
1761315291076490200,9.231490234375,-0.008017370477318764,0.006261184345930815,0.007559234742075205
1761315291095400700,9.250400634765626,-0.004963133949786425,0.00259610079228878,0.005726693198084831
1761315291114336300,9.269336181640625,-0.008017370477318764,-0.0004581354442052543,0.006337540224194527
1761315291133259000,9.288259033203126,-0.012904148548841476,0.004428642801940441,0.004504998680204153
1761315291152182000,9.30718212890625,-0.014125842601060867,0.011147962883114815,0.0038941511884331703
1761315291171105000,9.32610498046875,-0.013514995574951172,0.007482878863811493,0.00022906772210262716
1761315291190027800,9.34502783203125,-0.012293301522731781,-0.0022906772792339325,-0.004657710436731577
1761315291208950800,9.36395068359375,-0.008017370477318764,-0.012064233422279358,-0.007101099472492933
1761315291227873500,9.38287353515625,-0.004963133949786425,-0.014507622458040714,-0.009544488042593002
1761315291246796500,9.401796630859375,-0.0037414394319057465,-0.010231691412627697,-0.009544488042593002
1761315291265719600,9.420719482421875,0.0029778804164379835,-0.009009997360408306,-0.008933641016483307
1761315291284642300,9.439642333984375,0.013973130844533443,0.0032069480512291193,-0.01626380905508995
1761315291303565300,9.4585654296875,0.00908635277301073,0.00015271181473508477,-0.010766183026134968
1761315291322488300,9.47748828125,-0.00007635590736754239,-0.0035123717971146107,-0.0064902519807219505
1761315291341411000,9.4964111328125,-0.007406522985547781,-0.010231691412627697,-0.011377030052244663
1761315291360334000,9.515333984375,-0.011071606539189816,-0.009009997360408306,-0.011987877078354359
1761315291379226400,9.534226318359375,-0.004963133949786425,-0.013285927474498749,-0.013209572061896324
1761315291398149400,9.5531494140625,-0.00129805039614439,-0.010842538438737392,-0.012598725035786629
1761315291417072400,9.572072265625,0.0005344913806766272,-0.005955760832875967,-0.0064902519807219505
1761315291435995100,9.5909951171875,0.00786465872079134,-0.007177455350756645,0.00022906772210262716
1761315291454918100,9.609918212890625,0.00908635277301073,-0.0065666078589856625,0.0051158457063138485
1761315291473841200,9.628841064453125,0.007253811229020357,0.0007635590736754239,0.008170082233846188
1761315291492764000,9.647763916015625,0.005421269219368696,0.00015271181473508477,0.007559234742075205
1761315291511687000,9.66668701171875,0.0005344913806766272,-0.0004581354442052543,0.008170082233846188
1761315291530610000,9.68560986328125,-0.007406522985547781,0.011147962883114815,0.007559234742075205
1761315291549532700,9.70453271484375,-0.011682453565299511,0.016645587980747223,0.007559234742075205
1761315291568455700,9.72345556640625,-0.014736690558493137,0.02641914412379265,0.005726693198084831
1761315291587378400,9.74237841796875,-0.015347537584602833,0.030695075169205666,0.005726693198084831
1761315291606301400,9.761301513671874,-0.014736690558493137,0.027029991149902344,0.0008399150101467967
1761315291625224400,9.780224365234375,-0.015958385542035103,0.02641914412379265,0.0008399150101467967
1761315291644147200,9.799147216796875,-0.013514995574951172,0.020310672000050545,-0.0022143214009702206
1761315291663070200,9.8180703125,-0.009239064529538155,0.007482878863811493,-0.005268557462841272
1761315291681993200,9.8369931640625,-0.00129805039614439,-0.004123218823224306,-0.007101099472492933
1761315291700916000,9.855916015625,0.0017561858985573053,-0.007788302376866341,-0.0064902519807219505
1761315291719839000,9.8748388671875,0.0023670331574976444,-0.008399149402976036,-0.004046862944960594
1761315291738762000,9.893761962890625,0.004810422193259001,-0.012064233422279358,-0.009544488042593002
1761315291757684700,9.912684814453126,0.00786465872079134,-0.020616095513105392,-0.013209572061896324
1761315291776607700,9.931607666015625,0.00786465872079134,-0.020616095513105392,-0.011377030052244663
1761315291795530800,9.95053076171875,0.0029778804164379835,-0.012675080448389053,-0.008933641016483307
1761315291814453500,9.96945361328125,0.0005344913806766272,-0.009620844386518002,-0.005879404954612255
1761315291833346000,9.988345947265625,-0.000687203137204051,-0.0065666078589856625,-0.0016034740256145597
1761315291852268800,10.007268798828125,-0.004352286923676729,0.0038177953101694584,0.0008399150101467967
1761315291871191800,10.02619189453125,-0.0067956759594380856,0.008093725889921188,0.0014507622690871358
1761315291890114800,10.04511474609375,-0.006184828467667103,0.008704573847353458,0.0008399150101467967
1761315291909037600,10.06403759765625,-0.0031305921729654074,0.006261184345930815,0.0008399150101467967
1761315291927960600,10.082960693359375,-0.0019088976550847292,0.005650337319821119,0.006948387715965509
1761315291946883300,10.10188330078125,-0.0025197449140250683,0.013591351918876171,0.016111096367239952
1761315291965806300,10.120806396484374,0.0005344913806766272,0.014813045971095562,0.022219568490982056
1761315291984729300,10.139729248046875,0.0023670331574976444,0.00992626789957285,0.020997874438762665
1761315292003652000,10.158652099609375,0.0035887276753783226,0.006261184345930815,0.02160872146487236
1761315292022575000,10.1775751953125,0.0017561858985573053,0.005650337319821119,0.019776180386543274
1761315292041498000,10.196498046875,0.0029778804164379835,0.001374406274408102,0.013667707331478596
1761315292060420900,10.2154208984375,0.004810422193259001,0.00015271181473508477,0.009391776286065578
1761315292079343900,10.23434375,0.006642963737249374,-0.004734066314995289,0.006948387715965509
1761315292098248400,10.25324853515625,0.00786465872079134,-0.004123218823224306,0.006337540224194527
1761315292117189600,10.272189697265626,0.008475505746901035,-0.0029015245381742716,0.006337540224194527
1761315292136112600,10.291112548828124,0.007253811229020357,-0.0035123717971146107,0.006948387715965509
1761315292155035600,10.31003564453125,0.006032116711139679,-0.0010689827613532543,0.006948387715965509
1761315292173958400,10.32895849609375,0.004810422193259001,-0.0004581354442052543,0.006948387715965509
1761315292192881400,10.34788134765625,0.005421269219368696,0.0007635590736754239,0.008170082233846188
1761315292211804200,10.36680419921875,0.006642963737249374,-0.0004581354442052543,0.006337540224194527
1761315292230727200,10.38572705078125,0.007253811229020357,-0.004123218823224306,0.0032833039294928312
1761315292249650200,10.404650146484375,0.006642963737249374,-0.008399149402976036,0.002061609411612153
1761315292268573000,10.423572998046875,0.007253811229020357,-0.0035123717971146107,0.0038941511884331703
1761315292287465500,10.442465576171875,0.006642963737249374,-0.0004581354442052543,0.008170082233846188
1761315292306388200,10.46138818359375,0.007253811229020357,0.004428642801940441,0.01122431829571724
1761315292325311200,10.480311279296876,0.005421269219368696,0.0032069480512291193,0.010002624243497849
1761315292344234200,10.499234130859374,0.005421269219368696,-0.0004581354442052543,0.008170082233846188
1761315292363157000,10.518156982421875,0.00786465872079134,-0.004734066314995289,0.0051158457063138485
1761315292382080000,10.537080078125,0.011529741808772087,-0.011453386396169662,-0.0009926267666742206
1761315292401003000,10.5560029296875,0.011529741808772087,-0.010842538438737392,-0.005268557462841272
1761315292419916500,10.57491650390625,0.00786465872079134,-0.009620844386518002,-0.0034360159188508987
1761315292438848800,10.593848876953125,0.007253811229020357,-0.012064233422279358,-0.004657710436731577
1761315292457771800,10.612771728515625,0.010918894782662392,-0.020005248486995697,-0.005879404954612255
1761315292476694500,10.631694580078126,0.012751436792314053,-0.02244863659143448,-0.0064902519807219505
1761315292495617500,10.650617431640624,0.012140588834881783,-0.020616095513105392,-0.007101099472492933
1761315292514540500,10.66954052734375,0.012751436792314053,-0.021226942539215088,-0.007711946498602629
1761315292533463300,10.68846337890625,0.012140588834881783,-0.02244863659143448,-0.007101099472492933
1761315292552386300,10.70738623046875,0.010918894782662392,-0.023059483617544174,-0.008322793990373611
1761315292571309000,10.72630908203125,0.012140588834881783,-0.024281177669763565,-0.010155336000025272
1761315292590232000,10.745232177734374,0.013973130844533443,-0.018783552572131157,-0.005879404954612255
1761315292609155000,10.764155029296875,0.013362283818423748,-0.007788302376866341,-0.00038177953683771193
1761315292628077800,10.783077880859375,0.010918894782662392,-0.0004581354442052543,0.005726693198084831
1761315292647000800,10.802000732421876,0.010308047756552696,-0.0016798300202935934,0.007559234742075205
1761315292665923800,10.820923828125,0.008475505746901035,-0.004734066314995289,0.008170082233846188
1761315292684846600,10.8398466796875,0.008475505746901035,-0.007788302376866341,0.006337540224194527
1761315292703769600,10.85876953125,0.008475505746901035,-0.0029015245381742716,0.006337540224194527
1761315292722692600,10.877692626953126,0.00786465872079134,-0.0004581354442052543,0.0038941511884331703
1761315292741585000,10.8965849609375,0.007253811229020357,-0.0004581354442052543,0.004504998680204153
1761315292760508000,10.9155078125,0.007253811229020357,-0.0035123717971146107,0.0038941511884331703
1761315292779430700,10.9344306640625,0.007253811229020357,-0.005955760832875967,0.002061609411612153
1761315292798353700,10.953353759765625,0.009697199799120426,-0.012064233422279358,-0.00038177953683771193
1761315292817276700,10.972276611328125,0.008475505746901035,-0.0065666078589856625,-0.0022143214009702206
1761315292836199400,10.991199462890625,0.004199574701488018,0.0007635590736754239,-0.0016034740256145597
1761315292855122400,11.010122314453126,0.0023670331574976444,-0.0035123717971146107,-0.0009926267666742206
1761315292874045400,11.02904541015625,0.004199574701488018,-0.009009997360408306,-0.0022143214009702206
1761315292892968200,11.04796826171875,0.006032116711139679,-0.009009997360408306,-0.004657710436731577
1761315292911891200,11.06689111328125,0.007253811229020357,-0.004734066314995289,-0.004657710436731577
1761315292930814000,11.08581396484375,0.00786465872079134,-0.005344913341104984,-0.0028251686599105597
1761315292949737000,11.104737060546874,0.007253811229020357,-0.004734066314995289,0.00022906772210262716
1761315292968660000,11.123659912109375,0.010308047756552696,-0.004734066314995289,0.002672456670552492
1761315292987582700,11.142582763671875,0.012140588834881783,-0.009620844386518002,0.006337540224194527
1761315293006505700,11.161505615234375,0.009697199799120426,-0.004123218823224306,0.01122431829571724
1761315293025428700,11.1804287109375,0.007253811229020357,-0.0022906772792339325,0.008780929259955883
1761315293044351500,11.1993515625,0.006642963737249374,-0.0022906772792339325,0.006948387715965509
1761315293063274500,11.2182744140625,0.005421269219368696,-0.004734066314995289,0.0014507622690871358
1761315293082197500,11.237197509765625,0.005421269219368696,-0.011453386396169662,-0.0034360159188508987
1761315293101150700,11.256150634765625,0.004199574701488018,-0.010231691412627697,-0.007711946498602629
1761315293120043300,11.275043212890624,0.004199574701488018,-0.007788302376866341,-0.008322793990373611
1761315293138966300,11.29396630859375,0.004199574701488018,-0.007788302376866341,-0.005879404954612255
1761315293157889000,11.312888916015625,0.0035887276753783226,-0.005344913341104984,-0.0028251686599105597
1761315293176812000,11.33181201171875,0.0029778804164379835,-0.0016798300202935934,-0.0016034740256145597
1761315293195734800,11.35073486328125,0.0029778804164379835,-0.005955760832875967,-0.0034360159188508987
1761315293214627300,11.36962744140625,0.0035887276753783226,-0.005955760832875967,-0.005879404954612255
1761315293233550300,11.38855029296875,0.004199574701488018,-0.007177455350756645,-0.007711946498602629
1761315293252473000,11.40747314453125,0.0017561858985573053,-0.005344913341104984,-0.004046862944960594
1761315293271396000,11.42639599609375,-0.000687203137204051,0.00015271181473508477,-0.00038177953683771193
1761315293290318800,11.44531884765625,-0.000687203137204051,-0.0022906772792339325,0.0008399150101467967
1761315293309241900,11.464241943359376,0.0011453386396169662,-0.004734066314995289,-0.0009926267666742206
1761315293328164900,11.483164794921874,0.0035887276753783226,-0.007177455350756645,-0.004657710436731577
1761315293347087600,11.502087646484375,0.0029778804164379835,-0.0004581354442052543,-0.0034360159188508987
1761315293366010600,11.5210107421875,0.0005344913806766272,0.00259610079228878,-0.0022143214009702206
1761315293384933600,11.53993359375,-0.000687203137204051,0.00015271181473508477,-0.00038177953683771193
1761315293403856400,11.5588564453125,-0.0019088976550847292,0.001985253533348441,0.0014507622690871358
1761315293422779400,11.577779296875,-0.0019088976550847292,0.004428642801940441,0.00022906772210262716
1761315293441702400,11.596702392578125,-0.00007635590736754239,0.004428642801940441,-0.0028251686599105597
1761315293460625200,11.615625244140626,-0.000687203137204051,0.001374406274408102,-0.0016034740256145597
1761315293479548200,11.634548095703124,-0.0031305921729654074,0.0050394898280501366,-0.0022143214009702206
1761315293498471200,11.65347119140625,-0.0025197449140250683,0.0032069480512291193,-0.00038177953683771193
1761315293517394000,11.672393798828125,0.0005344913806766272,-0.0035123717971146107,-0.0016034740256145597
1761315293536317000,11.69131689453125,0.0011453386396169662,0.0007635590736754239,-0.0022143214009702206
1761315293555239700,11.71023974609375,-0.000687203137204051,0.006261184345930815,-0.0016034740256145597
1761315293574162700,11.72916259765625,-0.00129805039614439,0.00259610079228878,-0.0009926267666742206
1761315293593085700,11.748085693359375,-0.000687203137204051,-0.004123218823224306,-0.004046862944960594
1761315293612008400,11.767008544921875,-0.00129805039614439,-0.007177455350756645,-0.005879404954612255
1761315293630931500,11.785931396484376,-0.00007635590736754239,-0.0029015245381742716,-0.0064902519807219505
1761315293649854500,11.8048544921875,0.0005344913806766272,-0.0029015245381742716,-0.008322793990373611
1761315293668746800,11.823746826171876,0.0017561858985573053,-0.007788302376866341,-0.009544488042593002
1761315293687669800,11.842669677734374,0.0023670331574976444,-0.010231691412627697,-0.010766183026134968
1761315293706592500,11.861592529296875,0.0023670331574976444,-0.010231691412627697,-0.008322793990373611
1761315293725515500,11.880515625,0.0017561858985573053,-0.005955760832875967,-0.004657710436731577
1761315293744438500,11.8994384765625,0.0011453386396169662,-0.0035123717971146107,-0.004046862944960594
1761315293763361300,11.918361328125,0.0005344913806766272,-0.0029015245381742716,-0.005268557462841272
1761315293782284300,11.9372841796875,0.0017561858985573053,-0.007788302376866341,-0.005879404954612255
1761315293801207300,11.956207275390625,0.0011453386396169662,-0.009009997360408306,-0.0064902519807219505
1761315293820130000,11.975130126953125,0.0011453386396169662,-0.005955760832875967,-0.005879404954612255
1761315293839053000,11.994052978515626,0.0011453386396169662,-0.0016798300202935934,-0.004046862944960594
1761315293857976000,12.01297607421875,0.0011453386396169662,-0.0016798300202935934,-0.0022143214009702206
1761315293876898800,12.03189892578125,0.0005344913806766272,0.00015271181473508477,0.00022906772210262716
1761315293895821800,12.05082177734375,-0.0025197449140250683,0.008093725889921188,-0.0009926267666742206
1761315293914744600,12.06974462890625,-0.005573981441557407,0.010537114925682545,0.00022906772210262716
1761315293933667600,12.08866748046875,-0.007406522985547781,0.008704573847353458,0.002672456670552492
1761315293952590600,12.107590576171875,-0.008017370477318764,0.004428642801940441,0.0014507622690871358
1761315293971513300,12.126513427734375,-0.006184828467667103,0.006261184345930815,-0.0022143214009702206
1761315293990436400,12.145436279296876,-0.0037414394319057465,0.007482878863811493,-0.004046862944960594
1761315294009359400,12.164359375,-0.0025197449140250683,0.0050394898280501366,-0.0016034740256145597
1761315294028282000,12.1832822265625,-0.004352286923676729,0.0050394898280501366,0.002061609411612153
1761315294047205000,12.202205078125,-0.0037414394319057465,0.008093725889921188,0.005726693198084831
1761315294066128100,12.221128173828125,-0.0019088976550847292,0.006261184345930815,0.006337540224194527
1761315294085051000,12.24005078125,-0.000687203137204051,0.006261184345930815,0.0032833039294928312
1761315294103974000,12.258973876953124,-0.0025197449140250683,0.006261184345930815,0.002061609411612153
1761315294122866200,12.2778662109375,-0.0031305921729654074,0.004428642801940441,0.00022906772210262716
1761315294141789200,12.2967890625,-0.0031305921729654074,0.001374406274408102,-0.004657710436731577
1761315294160712200,12.315712158203125,-0.0025197449140250683,-0.0022906772792339325,-0.009544488042593002
1761315294179635000,12.334635009765625,-0.000687203137204051,-0.008399149402976036,-0.010155336000025272
1761315294198558000,12.353557861328126,-0.00129805039614439,-0.0065666078589856625,-0.007101099472492933
1761315294217481000,12.37248095703125,-0.004963133949786425,0.0038177953101694584,0.0008399150101467967
1761315294236403700,12.39140380859375,-0.005573981441557407,0.015423892997205257,0.008170082233846188
1761315294255326700,12.41032666015625,-0.004963133949786425,0.020310672000050545,0.013667707331478596
1761315294274249500,12.42924951171875,-0.005573981441557407,0.01847812905907631,0.014278554357588291
1761315294293172500,12.44817236328125,-0.004963133949786425,0.017867282032966614,0.010613471269607544
1761315294312095500,12.467095458984375,-0.004352286923676729,0.016645587980747223,0.006948387715965509
1761315294331018200,12.486018310546875,-0.005573981441557407,0.014813045971095562,0.0032833039294928312
1761315294349941200,12.504941162109375,-0.0067956759594380856,0.010537114925682545,0.0008399150101467967
1761315294368864300,12.5238642578125,-0.005573981441557407,0.0068720318377017975,-0.0016034740256145597
1761315294387787000,12.542787109375,-0.004352286923676729,0.006261184345930815,-0.00038177953683771193
1761315294406710000,12.5617099609375,-0.0031305921729654074,0.0032069480512291193,-0.00038177953683771193
1761315294425633000,12.580633056640625,-0.00007635590736754239,0.001374406274408102,0.00022906772210262716
1761315294444555800,12.5995556640625,0.0011453386396169662,-0.004123218823224306,-0.0009926267666742206
1761315294463478800,12.618478759765624,0.0005344913806766272,-0.0010689827613532543,-0.0034360159188508987
1761315294482401800,12.63740185546875,-0.0025197449140250683,0.00259610079228878,-0.005879404954612255
1761315294501324500,12.656324462890625,-0.0037414394319057465,0.0007635590736754239,-0.007101099472492933
1761315294520247600,12.67524755859375,-0.0025197449140250683,-0.0004581354442052543,-0.008322793990373611
1761315294539170300,12.69417041015625,-0.000687203137204051,-0.005955760832875967,-0.008933641016483307
1761315294558093300,12.71309326171875,0.0023670331574976444,-0.010231691412627697,-0.010766183026134968
1761315294577016300,12.732016357421875,0.005421269219368696,-0.008399149402976036,-0.009544488042593002
1761315294595908600,12.75090869140625,0.004810422193259001,-0.005344913341104984,-0.010766183026134968
1761315294614831600,12.76983154296875,0.004199574701488018,-0.004123218823224306,-0.005268557462841272
1761315294633754400,12.78875439453125,0.0035887276753783226,-0.005344913341104984,-0.0022143214009702206
1761315294652677400,12.807677490234376,0.004199574701488018,-0.007177455350756645,-0.004046862944960594
1761315294671600400,12.826600341796874,0.0035887276753783226,-0.0065666078589856625,-0.0064902519807219505
1761315294690523100,12.845523193359375,0.0011453386396169662,-0.009620844386518002,-0.009544488042593002
1761315294709446100,12.864446044921875,-0.00007635590736754239,-0.009620844386518002,-0.008933641016483307
1761315294728369200,12.883369140625,-0.000687203137204051,-0.007788302376866341,-0.007711946498602629
1761315294747292000,12.9022919921875,-0.00129805039614439,-0.0029015245381742716,-0.008322793990373611
1761315294766215000,12.92121484375,-0.000687203137204051,0.004428642801940441,-0.005879404954612255
1761315294785138000,12.940137939453125,0.0011453386396169662,0.006261184345930815,-0.0028251686599105597
1761315294804060700,12.959060791015625,-0.00007635590736754239,0.004428642801940441,0.0008399150101467967
1761315294822983700,12.977983642578126,0.0005344913806766272,0.0038177953101694584,0.002061609411612153
1761315294841906700,12.99690673828125,0.0017561858985573053,0.0038177953101694584,0.002672456670552492
1761315294860829400,13.015829345703125,0.0035887276753783226,0.004428642801940441,0.0032833039294928312
1761315294879752400,13.03475244140625,0.004199574701488018,0.0032069480512291193,0.0038941511884331703
1761315294898675200,13.05367529296875,0.005421269219368696,-0.0010689827613532543,0.0038941511884331703
1761315294917598200,13.07259814453125,0.004810422193259001,-0.0010689827613532543,0.006337540224194527
1761315294936521200,13.091521240234375,0.004810422193259001,0.009315420873463154,0.008170082233846188
1761315294955444000,13.11044384765625,0.005421269219368696,0.015423892997205257,0.011835165321826935
1761315294974367000,13.129366943359376,0.0029778804164379835,0.01725643500685692,0.013667707331478596
1761315294993290000,13.1482900390625,0.0005344913806766272,0.01725643500685692,0.015500249341130257
1761315295012212700,13.167212646484375,-0.0019088976550847292,0.009315420873463154,0.013667707331478596
1761315295031135700,13.1861357421875,-0.000687203137204051,0.0068720318377017975,0.010613471269607544
1761315295050028000,13.205028076171875,0.0011453386396169662,0.008093725889921188,0.0038941511884331703
1761315295068951000,13.223950927734375,0.0035887276753783226,0.004428642801940441,-0.0028251686599105597
1761315295087874000,13.2428740234375,0.006642963737249374,-0.005344913341104984,-0.005879404954612255
1761315295106796800,13.261796875,0.00908635277301073,-0.013285927474498749,-0.007711946498602629
1761315295125719800,13.2807197265625,0.008475505746901035,-0.017561858519911766,-0.007711946498602629
1761315295144642800,13.299642822265625,0.00908635277301073,-0.013896775431931019,-0.007101099472492933
1761315295163565600,13.318565673828125,0.010308047756552696,-0.009620844386518002,-0.004657710436731577
1761315295182488600,13.337488525390626,0.010918894782662392,-0.012675080448389053,-0.0016034740256145597
1761315295201411600,13.35641162109375,0.010918894782662392,-0.012064233422279358,0.0014507622690871358
1761315295220334300,13.375334228515625,0.011529741808772087,-0.012064233422279358,0.002061609411612153
1761315295239257300,13.39425732421875,0.00908635277301073,-0.012064233422279358,0.00022906772210262716
1761315295258180000,13.41318017578125,0.00786465872079134,-0.013285927474498749,-0.0034360159188508987
1761315295277103000,13.43210302734375,0.008475505746901035,-0.01817270554602146,-0.007711946498602629
1761315295296026000,13.451026123046875,0.00786465872079134,-0.016340164467692375,-0.007711946498602629
1761315295314948900,13.469948974609375,0.00786465872079134,-0.013285927474498749,-0.0064902519807219505
1761315295333871900,13.488871826171875,0.00786465872079134,-0.009009997360408306,-0.004046862944960594
1761315295352795000,13.507794921875,0.008475505746901035,-0.011453386396169662,-0.0034360159188508987
1761315295371717600,13.526717529296874,0.009697199799120426,-0.009009997360408306,0.00022906772210262716
1761315295390640600,13.545640625,0.011529741808772087,-0.005955760832875967,0.0038941511884331703
1761315295409563600,13.564563720703125,0.012140588834881783,-0.005344913341104984,0.006337540224194527
1761315295428486400,13.583486328125,0.012140588834881783,-0.0029015245381742716,0.009391776286065578
1761315295447409400,13.602409423828124,0.012140588834881783,-0.0004581354442052543,0.008780929259955883
1761315295466332400,13.62133251953125,0.009697199799120426,-0.004123218823224306,0.009391776286065578
1761315295485255200,13.640255126953125,0.00786465872079134,-0.0029015245381742716,0.010002624243497849
1761315295504147700,13.659147705078125,0.00786465872079134,-0.004123218823224306,0.008170082233846188
1761315295523070500,13.678070556640625,0.009697199799120426,-0.0035123717971146107,0.005726693198084831
1761315295541993500,13.696993408203125,0.010308047756552696,-0.0016798300202935934,0.006948387715965509
1761315295560916500,13.71591650390625,0.009697199799120426,-0.0016798300202935934,0.008780929259955883
1761315295579839200,13.734839111328125,0.008475505746901035,-0.0016798300202935934,0.010613471269607544
1761315295598762200,13.75376220703125,0.007253811229020357,0.00015271181473508477,0.011835165321826935
1761315295617685000,13.77268505859375,0.006642963737249374,0.006261184345930815,0.010002624243497849
1761315295636610800,13.79161083984375,0.008475505746901035,0.004428642801940441,0.008170082233846188
1761315295655533800,13.810533935546875,0.00908635277301073,0.00015271181473508477,0.008170082233846188
1761315295674456800,13.829456787109375,0.010308047756552696,-0.0010689827613532543,0.008780929259955883
1761315295693379600,13.848379638671876,0.010308047756552696,-0.0022906772792339325,0.007559234742075205
1761315295712302600,13.867302490234374,0.00908635277301073,-0.005955760832875967,0.007559234742075205
1761315295731225600,13.8862255859375,0.008475505746901035,-0.0029015245381742716,0.007559234742075205
1761315295750148400,13.9051484375,0.008475505746901035,-0.0022906772792339325,0.0051158457063138485
1761315295769071400,13.9240712890625,0.00908635277301073,-0.010842538438737392,0.0014507622690871358
1761315295787994400,13.942994384765624,0.008475505746901035,-0.014507622458040714,-0.0016034740256145597
1761315295806917000,13.961917236328125,0.006642963737249374,-0.018783552572131157,-0.0064902519807219505
1761315295825840000,13.980840087890625,0.006642963737249374,-0.01695101149380207,-0.007711946498602629
1761315295844763100,13.99976318359375,0.008475505746901035,-0.01511846948415041,-0.009544488042593002
1761315295863686000,14.018685791015624,0.00908635277301073,-0.012064233422279358,-0.008933641016483307
1761315295882609000,14.03760888671875,0.00786465872079134,-0.0029015245381742716,-0.0022143214009702206
1761315295901531600,14.05653173828125,0.004810422193259001,0.0007635590736754239,0.006337540224194527
1761315295920454700,14.07545458984375,0.0023670331574976444,0.010537114925682545,0.014278554357588291
1761315295939377700,14.094377685546876,0.0017561858985573053,0.012980503961443901,0.016111096367239952
1761315295958270000,14.11327001953125,0.0029778804164379835,0.00992626789957285,0.011835165321826935
1761315295977193000,14.13219287109375,0.0035887276753783226,0.0068720318377017975,0.006948387715965509
1761315295996115700,14.15111572265625,0.0023670331574976444,0.00259610079228878,0.0032833039294928312
1761315296015038700,14.170038818359375,0.0005344913806766272,0.001985253533348441,0.0014507622690871358
1761315296033961700,14.188961669921875,-0.00007635590736754239,0.0032069480512291193,0.0014507622690871358
1761315296052884500,14.207884521484376,0.0011453386396169662,-0.0004581354442052543,0.0014507622690871358
1761315296071807500,14.226807373046874,0.0035887276753783226,-0.004123218823224306,-0.0009926267666742206
1761315296090730500,14.24573046875,0.0035887276753783226,0.0007635590736754239,-0.0009926267666742206
1761315296109653200,14.2646533203125,0.0017561858985573053,0.00259610079228878,-0.0009926267666742206
1761315296128576300,14.283576171875,0.0023670331574976444,-0.0029015245381742716,-0.0022143214009702206
1761315296147499300,14.302499267578124,0.0017561858985573053,-0.004123218823224306,-0.00038177953683771193
1761315296166422000,14.321422119140625,-0.0019088976550847292,0.0068720318377017975,0.0008399150101467967
1761315296185345000,14.340344970703125,-0.0037414394319057465,0.007482878863811493,0.00022906772210262716
1761315296204268000,14.35926806640625,-0.0031305921729654074,0.0032069480512291193,-0.0016034740256145597
1761315296223190800,14.378190673828126,-0.0019088976550847292,-0.0004581354442052543,-0.005268557462841272
1761315296242113800,14.39711376953125,0.0005344913806766272,-0.0029015245381742716,-0.007711946498602629
1761315296261036500,14.41603662109375,0.0011453386396169662,-0.0029015245381742716,-0.0064902519807219505
1761315296279959600,14.43495947265625,0.0005344913806766272,-0.005955760832875967,-0.0034360159188508987
1761315296298882600,14.453882568359376,0.0017561858985573053,-0.0022906772792339325,-0.0022143214009702206
1761315296317805300,14.472805419921874,0.0035887276753783226,-0.005955760832875967,-0.0016034740256145597
1761315296336728300,14.491728271484375,0.004810422193259001,-0.010842538438737392,-0.0028251686599105597
1761315296355651300,14.5106513671875,0.005421269219368696,-0.011453386396169662,-0.005268557462841272
1761315296374574000,14.529573974609375,0.0029778804164379835,-0.011453386396169662,-0.005879404954612255
1761315296393497000,14.5484970703125,0.0005344913806766272,-0.009620844386518002,-0.008322793990373611
1761315296412420000,14.567420166015625,0.0011453386396169662,-0.014507622458040714,-0.012598725035786629
1761315296431312400,14.5863125,0.0023670331574976444,-0.016340164467692375,-0.01382041908800602
1761315296450235400,14.6052353515625,0.0023670331574976444,-0.009620844386518002,-0.010155336000025272
1761315296469158100,14.624158203125,0.0023670331574976444,0.0050394898280501366,-0.0009926267666742206
1761315296488081200,14.6430810546875,0.0017561858985573053,0.0050394898280501366,0.0014507622690871358
1761315296507004200,14.662004150390626,-0.000687203137204051,0.0032069480512291193,0.0014507622690871358
1761315296525927000,14.680927001953124,-0.0031305921729654074,-0.007788302376866341,-0.00038177953683771193
1761315296544850000,14.699849853515625,-0.004352286923676729,-0.007788302376866341,0.00022906772210262716
1761315296563773000,14.71877294921875,-0.0025197449140250683,0.006261184345930815,0.002672456670552492
