time,seconds_elapsed,z,y,x
1761400385185657000,0.148656982421875,3.0325558185577393,-8.830414772033691,-4.007220268249512
1761400385195738400,0.15873828125,3.0258967876434326,-8.7199068069458,-3.968090057373047
1761400385205819400,0.1688193359375,2.9567642211914062,-8.591443061828613,-3.749993324279785
1761400385215900200,0.178900146484375,2.7742063999176025,-8.497844696044922,-3.6103813648223877
1761400385225977600,0.1889775390625,2.687042474746704,-8.417564392089844,-3.7609915733337402
1761400385236051200,0.19905126953125,2.656890630722046,-8.291793823242188,-3.974449634552002
1761400385246132700,0.2091328125,2.649259090423584,-8.123376846313477,-4.0913166999816895
1761400385256234000,0.21923388671875,2.5937435626983643,-8.066963195800781,-4.004751205444336
1761400385266326500,0.229326416015625,2.547206163406372,-8.15988826751709,-3.8163576126098633
1761400385276412400,0.239412353515625,2.5650877952575684,-8.018256187438965,-3.534590005874634
1761400385286494500,0.249494384765625,2.704624891281128,-8.006360054016113,-3.395726203918457
1761400385296574500,0.259574462890625,2.7982232570648193,-8.262763977050781,-3.4303672313690186
1761400385306655200,0.2696552734375,2.8786535263061523,-8.027009963989258,-3.628936290740967
1761400385316737000,0.279737060546875,2.865934371948242,-7.8786444664001465,-3.7470004558563232
1761400385326817800,0.28981787109375,2.779294013977051,-7.6140851974487305,-3.789721965789795
1761400385336898800,0.29989892578125,2.7120320796966553,-7.307028770446777,-3.748197555541992
1761400385346980600,0.309980712890625,2.611924409866333,-7.136142730712891,-3.7883005142211914
1761400385357060900,0.320060791015625,2.3015012741088867,-6.924106121063232,-3.8203229904174805
1761400385367142400,0.330142333984375,1.7895160913467407,-6.540809631347656,-3.6648495197296143
1761400385377223400,0.340223388671875,1.1875240802764893,-5.949292182922363,-3.2193033695220947
1761400385387304400,0.350304443359375,0.7921814918518066,-5.183670997619629,-2.841618061065674
1761400385397361000,0.36036083984375,0.6466588973999023,-4.2596588134765625,-2.089315176010132
1761400385407466800,0.370466796875,0.731653094291687,-3.307814121246338,-1.7319804430007935
1761400385417547300,0.38054736328125,0.8428338170051575,-2.759990930557251,-1.3952958583831787
1761400385427628800,0.39062890625,1.3798084259033203,-2.3125743865966797,-1.0823287963867188
1761400385437710000,0.4007099609375,1.6836475133895874,-1.4015806913375854,-0.6811503767967224
1761400385447765500,0.410765625,2.272845506668091,-0.7268646955490112,-0.3952677249908447
1761400385457848600,0.4208486328125,2.6693851947784424,-0.13542203605175018,-0.4494365453720093
1761400385467954200,0.4309541015625,3.0498387813568115,-0.5284451842308044,-1.01753568649292
1761400385478033000,0.441032958984375,3.431190252304077,-1.7432781457901,-1.599102258682251
1761400385488082400,0.45108251953125,4.356624126434326,-3.6186861991882324,-2.508300304412842
1761400385498194400,0.4611943359375,5.5452704429626465,-4.997521877288818,-4.279411315917969
1761400385508277500,0.471277587890625,5.778480529785156,-5.0638861656188965,-5.680393218994141
1761400385518325200,0.4813251953125,4.8290300369262695,-5.748104095458984,-6.174571514129639
1761400385528440000,0.491440185546875,4.801870822906494,-6.603732109069824,-6.37186861038208
1761400385538496000,0.50149609375,4.6728081703186035,-6.554127216339111,-6.950442314147949
1761400385548602000,0.51160205078125,3.7473745346069336,-6.784793376922607,-8.153304100036621
1761400385558683000,0.521682861328125,3.708618402481079,-8.394071578979492,-10.09941577911377
1761400385568745000,0.531744873046875,3.977367639541626,-10.458171844482422,-10.642974853515625
1761400385578823000,0.541822998046875,3.8920741081237793,-12.501025199890137,-11.322179794311523
1761400385588908300,0.551908203125,4.673855781555176,-14.313959121704102,-12.9649019241333
1761400385599008300,0.56200830078125,4.868833541870117,-15.904532432556152,-13.74892807006836
1761400385609088500,0.572088623046875,4.693233966827393,-16.021623611450195,-14.104242324829102
1761400385619153400,0.5821533203125,6.31717586517334,-15.816096305847168,-14.459107398986816
1761400385629226000,0.59222607421875,7.794622898101807,-16.920495986938477,-15.25675106048584
1761400385639287800,0.602287841796875,8.759710311889648,-17.607707977294922,-16.001049041748047
1761400385649409000,0.612408935546875,8.992321968078613,-18.829124450683594,-16.157793045043945
1761400385659494700,0.62249462890625,9.671826362609863,-20.419174194335938,-15.960721015930176
1761400385669574400,0.632574462890625,9.970354080200195,-20.992809295654297,-15.6067533493042
1761400385679656400,0.642656494140625,11.038765907287598,-21.163022994995117,-16.793081283569336
1761400385689712400,0.65271240234375,10.768221855163574,-21.591585159301758,-18.384700775146484
1761400385699806200,0.66280615234375,8.03112506866455,-21.612533569335938,-17.592742919921875
1761400385709900800,0.67290087890625,6.137161731719971,-20.30425262451172,-15.227123260498047
1761400385719956200,0.682956298828125,3.554192304611206,-18.698640823364258,-12.895544052124023
1761400385730062000,0.69306201171875,1.9817256927490234,-17.607257843017578,-11.200823783874512
1761400385740118300,0.7031181640625,0.7553706169128418,-15.500885009765625,-9.549797058105469
1761400385750224100,0.71322412109375,0.4660463333129883,-12.360889434814453,-9.014917373657227
1761400385760305400,0.723305419921875,2.1540334224700928,-9.551443099975586,-9.981950759887695
1761400385770361300,0.733361328125,1.9500772953033447,-6.997578144073486,-10.607510566711426
1761400385780444200,0.743444091796875,1.2591255903244019,-6.4531965255737305,-9.38549518585205
1761400385790549200,0.75354931640625,3.301304817199707,-7.275380611419678,-7.036633491516113
1761400385800630500,0.763630615234375,1.1688941717147827,-6.789506912231445,-2.581622838973999
1761400385810686500,0.7736865234375,-4.12251615524292,-7.145644664764404,0.45153146982192993
1761400385820767000,0.78376708984375,-5.522525310516357,-7.567922115325928,0.5285948514938354
1761400385830848000,0.793847900390625,-6.2585930824279785,-4.587964057922363,1.0746972560882568
1761400385840950500,0.803950439453125,-3.854365348815918,-2.374150276184082,-0.1817348748445511
1761400385851036400,0.814036376953125,-0.21667525172233582,-0.657657265663147,-1.4356980323791504
1761400385861110300,0.8241103515625,2.089090585708618,1.3282581567764282,-0.1693897694349289
1761400385871197400,0.834197509765625,1.2122890949249268,2.5957634449005127,0.48647186160087585
1761400385881255000,0.8442548828125,0.6878092288970947,0.0363619364798069,2.674248456954956
1761400385891334400,0.85433447265625,-0.10960954427719116,-3.3516578674316406,5.780575752258301
1761400385901420300,0.864420166015625,-1.978732943534851,-4.0084919929504395,6.6402435302734375
1761400385911518500,0.8745185546875,-3.1373767852783203,-4.268038749694824,6.018349647521973
1761400385921578000,0.884577880859375,-1.3237690925598145,-5.281609058380127,4.189478874206543
1761400385931684400,0.894684326171875,1.9672856330871582,-5.791274547576904,4.609137535095215
1761400385941766100,0.90476611328125,1.235183596611023,-3.9104795455932617,6.55263090133667
1761400385951858000,0.91485791015625,1.7529296875,0.17567454278469086,5.2893900871276855
1761400385961902800,0.92490283203125,5.596671104431152,4.995950698852539,0.9347861409187317
1761400385972004600,0.935004638671875,4.826411247253418,7.20168399810791,-4.563498020172119
1761400385982065400,0.9450654296875,0.6402245163917542,7.170334815979004,-8.875604629516602
1761400385992171000,0.9551708984375,-2.561870574951172,5.668047904968262,-9.613094329833984
1761400386002232000,0.965232177734375,-4.380939960479736,3.7515645027160645,-6.555398941040039
1761400386012333600,0.97533349609375,-4.55264949798584,2.553116798400879,-2.811915159225464
1761400386022389500,0.985389404296875,-2.8866591453552246,2.0515315532684326,-0.7487117648124695
1761400386032496000,0.99549609375,-1.4167689085006714,2.2462100982666016,-0.728884756565094
1761400386042551300,1.00555126953125,-0.4330512285232544,2.5305964946746826,-1.7119290828704834
1761400386052631000,1.015631103515625,0.28625673055648804,2.2385785579681396,-2.9385085105895996
1761400386062738400,1.025738525390625,0.4841524660587311,1.3794342279434204,-3.022081136703491
1761400386072795000,1.035794921875,0.1437269151210785,0.2670283019542694,-1.7236756086349487
1761400386082904800,1.04590478515625,0.07234977930784225,-0.17754502594470978,-0.3225438594818115
1761400386092994000,1.055994140625,0.46245503425598145,-0.40858548879623413,0.23859716951847076
1761400386103061200,1.066061279296875,0.4209305942058563,-0.046163201332092285,0.6113444566726685
1761400386113144000,1.07614404296875,-0.47494974732398987,1.0989385843276978,2.034398078918457
1761400386123214000,1.086214111328125,-2.4573488235473633,1.7045220136642456,3.593247890472412
1761400386133306400,1.096306396484375,-3.101388931274414,1.2999767065048218,4.7946882247924805
1761400386143388000,1.106387939453125,-1.4318822622299194,0.8800187706947327,6.436212539672852
1761400386163548400,1.12654833984375,1.1898434162139893,-0.6033388376235962,5.667000770568848
1761400386173631000,1.136630859375,0.25834932923316956,0.2716670632362366,1.7791162729263306
1761400386183700200,1.1467001953125,-1.7422306537628174,0.47749361395835876,0.2148796021938324
1761400386193805600,1.1568056640625,-4.756381034851074,-2.664970874786377,-0.3728969097137451
1761400386203874300,1.166874267578125,-4.465335845947266,-5.748328685760498,-1.220294713973999
1761400386213932500,1.1769326171875,5.1523966789245605,-6.664185523986816,-5.619715213775635
1761400386224036900,1.187036865234375,18.3555965423584,-9.45560073852539,-14.298696517944336
1761400386234103000,1.19710302734375,28.228984832763672,-17.000028610229492,-12.408249855041504
1761400386244178700,1.2071787109375,4.378695487976074,-17.055469512939453,-0.2704699635505676
1761400386254255600,1.217255615234375,-17.899499893188477,-21.16391944885254,0.03853168338537216
1761400386264341800,1.227341796875,-9.198372840881348,-21.276147842407227,-1.2164040803909302
1761400386274421000,1.2374208984375,22.024261474609375,-23.0432186126709,-24.380155563354492
1761400386284501800,1.247501708984375,18.490943908691406,-25.118167877197266,-36.49938201904297
1761400386294580700,1.257580810546875,-3.763460636138916,-22.876821517944336,-27.515811920166016
1761400386304685300,1.267685302734375,5.5919575691223145,-27.736825942993164,-28.51396942138672
1761400386314766300,1.277766357421875,12.215516090393066,-29.445762634277344,-31.224281311035156
1761400386324837600,1.287837646484375,10.140192031860352,-30.570140838623047,-28.510902404785156
1761400386334916000,1.297916015625,9.016114234924316,-29.793745040893555,-24.7683162689209
1761400386344997400,1.307997314453125,8.474875450134277,-32.09629440307617,-25.681554794311523
1761400386355086600,1.318086669921875,12.612579345703125,-35.078346252441406,-27.29120635986328
1761400386365157400,1.328157470703125,11.17972469329834,-33.14876937866211,-26.50994873046875
1761400386375253200,1.338253173828125,10.17992115020752,-30.16080665588379,-23.87714958190918
1761400386385314300,1.348314208984375,13.282208442687988,-24.0129451751709,-17.63494110107422
1761400386395415600,1.35841552734375,10.53598403930664,-18.8511962890625,-14.600515365600586
1761400386405494800,1.368494873046875,6.36610746383667,-20.641460418701172,-16.25767707824707
1761400386415565300,1.3785654296875,4.180276393890381,-16.74587059020996,-13.449577331542969
1761400386425655600,1.388655517578125,0.9397241473197937,-8.875530242919922,-6.315230846405029
1761400386435727000,1.39872705078125,-3.870002508163452,-4.290858268737793,-0.5837363004684448
1761400386445821000,1.408821044921875,-4.348094940185547,-2.002974271774292,2.4188919067382812
1761400386455890400,1.418890380859375,-2.307636260986328,-1.847051739692688,3.0696659088134766
1761400386465967900,1.4289677734375,-6.823699474334717,-2.8989293575286865,2.234239101409912
1761400386476058600,1.43905859375,-7.531859397888184,-2.7777976989746094,1.9226187467575073
1761400386486143000,1.44914306640625,-2.8197710514068604,-2.6698341369628906,0.0818517729640007
1761400386496216600,1.459216552734375,-0.7081599831581116,-0.2644096612930298,-1.771933674812317
1761400386506307600,1.4693076171875,-0.5612906813621521,0.9349357485771179,-3.2032175064086914
1761400386516377300,1.47937744140625,1.2413188219070435,0.23912090063095093,-3.2416741847991943
1761400386526444500,1.489444580078125,2.5219173431396484,-0.11043255031108856,-1.4673463106155396
1761400386536541700,1.499541748046875,0.19400516152381897,-0.011372458189725876,2.9419500827789307
1761400386546630100,1.509630126953125,-1.9039140939712524,-0.641197144985199,7.82881498336792
1761400386556703700,1.519703857421875,-1.498321294784546,-1.9287539720535278,6.548665523529053
1761400386566794200,1.529794189453125,0.9011176824569702,-2.349086046218872,3.1199440956115723
1761400386576875300,1.539875244140625,3.576937437057495,-3.5497782230377197,2.6507554054260254
1761400386586943500,1.549943603515625,2.61357045173645,-3.251250982284546,3.253495693206787
1761400386597037800,1.560037841796875,0.7587375044822693,-2.546009063720703,2.407444715499878
1761400386607116800,1.57011669921875,1.6801310777664185,-2.1332337856292725,1.2411690950393677
1761400386617190400,1.5801904296875,2.311751365661621,-1.9139398336410522,-0.1678933948278427
1761400386627280400,1.5902802734375,0.9082254767417908,-1.544858694076538,-0.3230676054954529
1761400386637362000,1.60036181640625,0.42040684819221497,-2.1430349349975586,0.16482582688331604
1761400386647443000,1.61044287109375,-1.3475614786148071,-1.7134253978729248,-0.5745335817337036
1761400386657513200,1.62051318359375,-0.8243535757064819,-1.002347469329834,-1.2473043203353882
1761400386667592400,1.630592529296875,0.6670844554901123,-1.038260579109192,-1.4228291511535645
1761400386677697500,1.640697509765625,-1.240420937538147,-0.7798363566398621,-0.4371662735939026
1761400386687755300,1.65075537109375,-2.124255418777466,-0.18121114373207092,0.4026747941970825
1761400386697848800,1.660848876953125,-1.971999168395996,-0.4676923453807831,0.11589432507753372
1761400386707917000,1.6709169921875,-1.255833625793457,-0.91346275806427,-1.4266449213027954
1761400386717985300,1.6809853515625,-0.4637269377708435,-0.8222586512565613,-2.3604583740234375
1761400386728067000,1.691067138671875,-0.19056348502635956,-0.6669347882270813,-2.568305015563965
1761400386738165500,1.70116552734375,-0.28371289372444153,-0.008753799833357334,-2.1936872005462646
1761400386748241400,1.711241455078125,-0.4927566349506378,0.8592939376831055,-1.5208418369293213
1761400386758335500,1.72133544921875,-0.23365911841392517,1.395669937133789,-0.977133572101593
1761400386768400600,1.731400634765625,-0.025812486186623573,1.8588731288909912,-0.4067898392677307
1761400386778497500,1.74149755859375,-0.12517185509204865,2.2841432094573975,0.09546878933906555
1761400386788578800,1.751578857421875,-0.10863690078258514,2.6286838054656982,0.5230582356452942
1761400386798647000,1.76164697265625,0.23276129364967346,3.0465469360351562,1.2166285514831543
1761400386808741000,1.7717412109375,1.1315596103668213,3.4781017303466797,1.8572272062301636
1761400386818809300,1.781809326171875,2.004171371459961,3.6164417266845703,2.0504841804504395
1761400386828903200,1.791903076171875,1.8071733713150024,3.6792895793914795,1.5398458242416382
1761400386838984400,1.801984375,1.154154896736145,3.550900459289551,0.8331822156906128
1761400386849077800,1.812077880859375,0.7650222778320312,3.491943120956421,-0.031199440360069275
1761400386859130600,1.822130615234375,0.48811787366867065,3.4454805850982666,-1.3809306621551514
1761400386869202000,1.832201904296875,1.0633248090744019,1.8632874488830566,-3.6589386463165283
1761400386879308000,1.84230810546875,2.3769185543060303,0.7238719463348389,-6.021043300628662
1761400386889389600,1.8523896484375,4.5935750007629395,-0.2816928029060364,-7.884255886077881
1761400386899457800,1.862457763671875,3.617339611053467,-3.1601216793060303,-8.107365608215332
1761400386909534700,1.87253466796875,1.367687702178955,-3.5952680110931396,-8.070180892944336
1761400386919629600,1.882629638671875,-1.9613001346588135,-2.9945478439331055,-8.917952537536621
1761400386929711900,1.8927119140625,1.238999366760254,-6.192602634429932,-12.541352272033691
1761400386939782700,1.90278271484375,21.7097225189209,-12.16329288482666,-23.082199096679688
1761400386949864200,1.9128642578125,36.64752197265625,-22.337751388549805,-5.567641258239746
1761400386959932200,1.92293212890625,-7.629796981811523,-17.318981170654297,17.38669204711914
1761400386970033200,1.933033203125,-28.20571517944336,-15.12417221069336,9.024344444274902
1761400386980119800,1.943119873046875,5.604452133178711,-27.65003776550293,-24.277503967285156
1761400386990204000,1.953203857421875,32.624961853027344,-33.51934814453125,-52.44461441040039
1761400387000287500,1.96328759765625,-0.9062053561210632,-26.82852554321289,-31.359628677368164
1761400387010362600,1.973362548828125,3.6467432975769043,-28.703636169433594,-16.385242462158203
1761400387020438500,1.9834384765625,15.946281433105469,-37.2524299621582,-15.494375228881836
1761400387030522000,1.993522216796875,11.484761238098145,-32.571617126464844,-18.125303268432617
1761400387040591600,2.003591552734375,10.745027542114258,-32.360477447509766,-20.343156814575195
1761400387050694700,2.013694580078125,11.170671463012695,-34.25309371948242,-23.590967178344727
1761400387060753700,2.023753662109375,10.566434860229492,-33.470191955566406,-26.077720642089844
1761400387070849800,2.033849853515625,7.27957010269165,-30.0340633392334,-22.726360321044922
1761400387080918300,2.043918212890625,8.14597225189209,-27.955896377563477,-17.616012573242188
1761400387090999300,2.053999267578125,8.47435188293457,-24.675090789794922,-14.320618629455566
1761400387101089000,2.064089111328125,5.020341873168945,-20.423362731933594,-12.549432754516602
1761400387111155700,2.07415576171875,1.6952444314956665,-16.292766571044922,-10.383129119873047
1761400387121251000,2.0842509765625,-0.13377602398395538,-14.454468727111816,-8.83699893951416
1761400387131336200,2.094336181640625,-1.1397897005081177,-12.466608047485352,-7.797690391540527
1761400387141417500,2.10441748046875,0.05656301602721214,-10.15717601776123,-6.8220534324646
1761400387151497700,2.114497802734375,6.914529323577881,-6.741174221038818,-6.253130912780762
1761400387161567200,2.124567138671875,7.98256778717041,-4.289287090301514,-5.523498058319092
1761400387171650300,2.134650390625,0.013691840693354607,-3.596689462661743,-2.096273183822632
1761400387181728500,2.144728515625,-6.134318828582764,-4.461220741271973,-0.26313772797584534
1761400387191797800,2.1547978515625,-6.617498874664307,-4.179079055786133,-0.10811316967010498
1761400387201878500,2.16487841796875,-4.653430461883545,-2.29790997505188,0.6192004084587097
1761400387211985000,2.17498486328125,-3.026270866394043,0.23597849905490875,0.5660790801048279
1761400387222046000,2.1850458984375,-1.4029273986816406,0.7744494080543518,-0.24839842319488525
1761400387232137000,2.195136962890625,1.2413935661315918,1.2854619026184082,0.12689268589019775
1761400387242215700,2.205215576171875,4.43353796005249,3.6943280696868896,0.7904606461524963
1761400387252285200,2.21528515625,7.560215473175049,3.700537919998169,-0.37319618463516235
1761400387262390800,2.225390869140625,6.800281047821045,-0.43200376629829407,2.628309726715088
1761400387272471800,2.235471923828125,2.428468704223633,-1.82961905002594,6.191854476928711
1761400387282540000,2.2455400390625,-3.0202853679656982,-2.1330840587615967,6.261884689331055
1761400387292609300,2.255609375,-4.571653366088867,-3.3320553302764893,5.347748756408691
1761400387302690000,2.26568994140625,-2.2177789211273193,-4.090269088745117,4.255843162536621
1761400387312770800,2.275770751953125,0.9059808850288391,-2.8854620456695557,4.047248363494873
1761400387322851800,2.285851806640625,1.721505880355835,-0.8857797980308533,3.4344823360443115
1761400387332927200,2.29592724609375,0.15981295704841614,0.0785597413778305,-0.670451283454895
1761400387343013600,2.306013671875,-0.8507646322250366,-0.4505588412284851,-3.634772300720215
1761400387353094100,2.31609423828125,-0.4984428584575653,-1.3100024461746216,-4.6291890144348145
1761400387363185700,2.326185546875,0.13819032907485962,-1.468244194984436,-5.240009784698486
1761400387373266700,2.3362666015625,-1.1454758644104004,-1.0642226934432983,-4.624325752258301
1761400387383361800,2.34636181640625,-2.6482863426208496,-0.2617909908294678,-2.8016648292541504
1761400387393432600,2.3564326171875,-2.738891839981079,0.558447539806366,-1.7920600175857544
1761400387403502800,2.3665029296875,-1.9545663595199585,0.7650222778320312,-1.3212252855300903
1761400387413607200,2.376607177734375,-1.2549357414245605,0.62458735704422,-1.004966139793396
1761400387423679000,2.386678955078125,-0.6866869926452637,0.5648819804191589,-1.100285291671753
1761400387433769500,2.39676953125,-0.4097825884819031,0.897002637386322,-1.1333552598953247
1761400387443849000,2.406848876953125,-0.2510918974876404,1.4744541645050049,-0.7588871121406555
1761400387453907000,2.416906982421875,0.059480950236320496,1.7617583274841309,-0.1909375786781311
1761400387463987700,2.42698779296875,0.5095908641815186,2.027888774871826,0.17919103801250458
1761400387474067200,2.437067138671875,0.6144120097160339,2.099714994430542,0.5398176908493042
1761400387484175000,2.447175048828125,0.16766893863677979,2.4117093086242676,0.9036614894866943
1761400387494256400,2.45725634765625,-0.20186112821102142,2.9153146743774414,1.9081039428710938
1761400387504325000,2.4673251953125,0.8678981065750122,3.354276657104492,3.408445358276367
1761400387514405600,2.477405517578125,2.611924409866333,2.441786527633667,3.998241901397705
1761400387524486700,2.487486572265625,2.7175686359405518,0.8427590131759644,2.8704981803894043
1761400387534569500,2.497569580078125,1.6895582675933838,-1.2758102416992188,0.2024596780538559
1761400387544661800,2.507661865234375,2.146252155303955,-2.2271313667297363,-1.0716297626495361
1761400387554742500,2.517742431640625,2.6798598766326904,-1.8189198970794678,-2.2934956550598145
1761400387564823600,2.527823486328125,0.6185270547866821,-1.8708441257476807,-4.821099281311035
1761400387574892300,2.537892333984375,-3.3494133949279785,-2.0184617042541504,-4.936544418334961
1761400387584960300,2.547960205078125,-0.5924152731895447,-2.5476551055908203,-4.019191265106201
1761400387595049700,2.5580498046875,2.8693759441375732,-6.374861240386963,-3.0133273601531982
1761400387605118200,2.5681181640625,10.308160781860352,-13.332186698913574,-6.409352779388428
1761400387625326000,2.588326171875,12.952107429504395,-21.162797927856445,2.7019314765930176
1761400387635366000,2.598365966796875,-13.057228088378906,-16.4184627532959,4.323329925537109
1761400387645472800,2.60847265625,-13.686304092407227,-19.847333908081055,-3.227907657623291
1761400387655553500,2.618553466796875,24.210840225219727,-21.99276351928711,-23.48120880126953
1761400387665634600,2.628634521484375,17.237953186035156,-21.5092830657959,-32.49126052856445
1761400387675715800,2.6387158203125,-3.061361074447632,-22.300416946411133,-25.083152770996094
1761400387685789700,2.648789794921875,4.828281879425049,-23.92383575439453,-18.827253341674805
1761400387695878400,2.65887841796875,11.908834457397461,-25.95456886291504,-18.790069580078125
1761400387705959400,2.66895947265625,7.864129543304443,-27.002256393432617,-17.035417556762695
1761400387716040200,2.679040283203125,9.94289493560791,-27.17576026916504,-22.581287384033203
1761400387726121200,2.689121337890625,10.135029792785645,-29.874250411987305,-24.405668258666992
1761400387736223700,2.6992236328125,7.926528453826904,-29.887344360351562,-21.912107467651367
1761400387746283300,2.709283203125,7.807716369628906,-28.593128204345703,-20.548236846923828
1761400387756364300,2.7193642578125,9.669732093811035,-27.508928298950195,-19.591976165771484
1761400387766445800,2.72944580078125,8.207921981811523,-27.32285499572754,-18.486679077148438
1761400387776526800,2.73952685546875,6.839710712432861,-25.937509536743164,-16.689830780029297
1761400387786607900,2.74960791015625,5.406032562255859,-22.540361404418945,-14.037952423095703
1761400387796690000,2.75968994140625,2.1786487102508545,-18.92496681213379,-12.373682975769043
1761400387806770000,2.76977001953125,0.8127566576004028,-15.663540840148926,-10.363900184631348
1761400387816851200,2.779851318359375,0.7183353304862976,-12.848333358764648,-8.492308616638184
1761400387826932500,2.789932373046875,0.6765864491462708,-10.665794372558594,-6.758681774139404
1761400387836989400,2.799989501953125,1.3823522329330444,-7.860538482666016,-5.784316539764404
1761400387847094300,2.81009423828125,2.3605332374572754,-4.90571928024292,-5.354931354522705
1761400387857175800,2.82017578125,0.792705237865448,-3.3855507373809814,-3.2130935192108154
1761400387867257900,2.8302578125,-0.09636662155389786,-3.39639949798584,-0.9313444495201111
1761400387877313000,2.84031298828125,-3.31813907623291,-5.260659694671631,-0.6660369634628296
1761400387887419400,2.85041943359375,-4.634202003479004,-4.2975172996521,1.459265947341919
1761400387897508400,2.86050830078125,-1.6921768188476562,-1.9491794109344482,3.6747255325317383
1761400387907581200,2.870581298828125,-0.5560533404350281,-1.2746880054473877,3.21099853515625
1761400387917662200,2.880662109375,-2.107870101928711,-0.3057096302509308,1.2042834758758545
1761400387927743200,2.8907431640625,-2.860173225402832,1.7921347618103027,-0.4935796558856964
1761400387937824500,2.900824462890625,-2.784905433654785,3.1881039142608643,0.054991818964481354
1761400387947905300,2.9109052734375,-0.9036614894866943,3.665597677230835,0.6994810104370117
1761400387957961700,2.920961669921875,2.317063570022583,3.44765043258667,0.4229506850242615
1761400387968063700,2.931063720703125,7.894206523895264,2.786102533340454,-0.5642085671424866
1761400387978145300,2.941145263671875,8.968155860900879,-0.43364977836608887,0.7527520060539246
1761400387988204800,2.951204833984375,4.759897232055664,-1.9027169942855835,4.873696804046631
1761400387998311200,2.961311279296875,1.0523264408111572,-2.0154688358306885,4.833743572235107
1761400388008392200,2.97139208984375,-1.2514941692352295,-2.542642116546631,2.953397512435913
1761400388018469400,2.981469482421875,-2.469619035720825,-2.8039841651916504,1.603142499923706
1761400388028554500,2.991554443359375,-4.274697303771973,-1.7108067274093628,1.6017957925796509
1761400388038635500,3.001635498046875,-5.786635875701904,-1.060930609703064,0.6790554523468018
1761400388048691700,3.011691650390625,-4.710816383361816,-1.9497779607772827,-2.0252702236175537
1761400388058788000,3.0217880859375,-2.9058127403259277,-2.3582887649536133,-4.792069435119629
1761400388068879600,3.031879638671875,-0.7706336975097656,-2.4099884033203125,-5.568539142608643
1761400388078950000,3.041949951171875,1.5138837099075317,-2.8038346767425537,-3.9955484867095947
1761400388089041400,3.05204150390625,1.0155904293060303,-2.568828821182251,-1.511339783668518
1761400388099123000,3.062123046875,-0.7705588340759277,-1.7420061826705933,-0.2561047673225403
1761400388109165600,3.07216552734375,-1.4942811727523804,-0.5660790801048279,-1.1873743534088135
1761400388119285000,3.082284912109375,-1.3363386392593384,-0.015487492084503174,-2.4087164402008057
1761400388129340400,3.09234033203125,-0.10833762586116791,0.27308863401412964,-3.210325241088867
1761400388139440000,3.102440185546875,1.137545108795166,0.3407996594905853,-3.545962333679199
1761400388149524500,3.1125244140625,1.1586439609527588,0.22782325744628906,-3.5644426345825195
1761400388159608600,3.122608642578125,0.3942950963973999,0.05506663769483566,-3.6238486766815186
1761400388169665300,3.132665283203125,-0.40783730149269104,0.8045265674591064,-2.462212085723877
1761400388179771400,3.142771484375,-0.06150105595588684,1.8798972368240356,-0.6958897113800049
1761400388189810200,3.15281005859375,0.9026140570640564,2.429516077041626,1.3687351942062378
1761400388199933400,3.162933349609375,0.8963292837142944,1.7173160314559937,3.188328504562378
1761400388210011000,3.173010986328125,0.8658779859542847,0.303390234708786,4.585270404815674
1761400388220115000,3.183114990234375,1.4385411739349365,-1.2973580360412598,5.273154258728027
1761400388230176800,3.1931767578125,1.6866402626037598,-3.7597196102142334,4.5819783210754395
1761400388250339300,3.21333935546875,2.8231379985809326,-5.136385440826416,-1.090334415435791
1761400388260420600,3.223420654296875,2.7362732887268066,-4.232649326324463,-2.479120969772339
1761400388270472000,3.233471923828125,1.2336124181747437,-4.205864429473877,-3.163787841796875
1761400388280578600,3.24357861328125,-0.4132242500782013,-4.943203449249268,-3.5237412452697754
1761400388290638300,3.253638427734375,1.5247323513031006,-6.216844081878662,-5.038971424102783
1761400388300745000,3.263744873046875,8.97309398651123,-8.52029037475586,-6.230011940002441
1761400388310804500,3.273804443359375,4.506112098693848,-10.416722297668457,-2.2281038761138916
1761400388320906200,3.28390625,-3.2371103763580322,-12.860978126525879,1.7975965738296509
1761400388330987800,3.29398779296875,-4.305522918701172,-15.727660179138184,-2.209848165512085
1761400388341064400,3.304064453125,4.6920366287231445,-16.871490478515625,-5.177236557006836
1761400388351149300,3.3141494140625,13.176339149475098,-19.12076759338379,-11.698518753051758
1761400388361230600,3.324230712890625,9.9208984375,-19.672332763671875,-17.348236083984375
1761400388371312600,3.334312744140625,-1.0088567733764648,-18.440441131591797,-23.390602111816406
1761400388381393400,3.344393310546875,7.362993240356445,-20.198457717895508,-23.697059631347656
1761400388391474400,3.354474365234375,13.755212783813477,-26.285791397094727,-17.523386001586914
1761400388401552100,3.36455224609375,1.5986533164978027,-29.477336883544922,-8.718036651611328
1761400388411637200,3.37463720703125,8.590021133422852,-33.97132873535156,-14.582184791564941
1761400388421700400,3.384700439453125,12.020987510681152,-34.92683792114258,-23.261465072631836
1761400388431799600,3.394799560546875,6.29016637802124,-35.73368453979492,-26.47553062438965
1761400388441879600,3.404879638671875,10.410287857055664,-32.688411712646484,-25.11427879333496
1761400388451961300,3.41496142578125,12.44655704498291,-28.932954788208008,-20.918439865112305
1761400388462042600,3.425042724609375,12.996101379394531,-25.974992752075195,-18.58880615234375
1761400388472119000,3.435119140625,12.54905891418457,-24.007333755493164,-18.34699249267578
1761400388482204000,3.445203857421875,9.388936996459961,-21.270462036132812,-12.937368392944336
1761400388492259800,3.455259765625,6.2935333251953125,-17.7913875579834,-7.991770267486572
1761400388502366200,3.4653662109375,3.512892484664917,-14.490756034851074,-4.4170026779174805
1761400388512426000,3.475426025390625,0.4965724050998688,-12.330812454223633,-0.9078513383865356
1761400388522529000,3.485529052734375,-3.0567221641540527,-10.694225311279297,-0.7542483806610107
1761400388532591900,3.495591796875,-3.860799789428711,-10.617311477661133,-4.722937107086182
1761400388542690800,3.50569091796875,-1.5275006294250488,-10.694300651550293,-8.416815757751465
1761400388552772600,3.515772705078125,3.6885669231414795,-10.78812313079834,-10.93686294555664
1761400388562879700,3.525879638671875,1.7882442474365234,-5.661688327789307,-9.308805465698242
1761400388572934700,3.5359345703125,2.8470799922943115,-4.103586673736572,-4.1472063064575195
1761400388583015000,3.546014892578125,1.235482931137085,-7.144148349761963,0.4481646418571472
1761400388593096200,3.55609619140625,-3.080439805984497,-7.147215843200684,0.83714759349823
1761400388603173600,3.566173583984375,-5.810428142547607,-3.2277579307556152,-0.5561281442642212
1761400388613233700,3.576233642578125,-5.316249847412109,0.6302735805511475,-2.4471733570098877
1761400388623339300,3.58633935546875,-0.5731120109558105,2.7589433193206787,-3.8872857093811035
1761400388633421300,3.59642138671875,4.380042552947998,4.142492771148682,-2.834585189819336
1761400388643477200,3.606477294921875,5.32889461517334,4.628889560699463,0.11664251238107681
1761400388653582600,3.61658251953125,3.8096985816955566,2.8995277881622314,4.368220806121826
1761400388663659800,3.62665966796875,3.481468439102173,1.1240776777267456,8.417414665222168
1761400388673745000,3.636744873046875,4.415805816650391,0.1818845123052597,10.134282112121582
1761400388683826700,3.64682666015625,3.3737294673919678,-1.381678819656372,9.990105628967285
1761400388693881900,3.6568818359375,1.847051739692688,-1.6390554904937744,8.254459381103516
1761400388703989000,3.666989013671875,0.030974984169006348,-1.0580874681472778,6.022988319396973
1761400388714069500,3.677069580078125,-4.991237163543701,-0.6506243348121643,2.717493772506714
1761400388724146400,3.687146484375,-7.033565998077393,-1.1991957426071167,-1.8410662412643433
1761400388734232000,3.697232177734375,-2.4023568630218506,-2.618433713912964,-6.732046127319336
1761400388744313000,3.70731298828125,2.4536826610565186,-2.7143514156341553,-10.105999946594238
1761400388754394000,3.71739404296875,1.9277812242507935,-2.3436989784240723,-7.721973896026611
1761400388764475100,3.72747509765625,-0.04945522919297218,-2.270975112915039,-2.79665207862854
1761400388774546700,3.737546630859375,-1.787870168685913,-2.012850284576416,-0.2430862933397293
1761400388784637400,3.747637451171875,-2.5056068897247314,-1.9870377779006958,1.1502642631530762
1761400388794719200,3.75771923828125,-2.0831050872802734,-1.79108726978302,0.9830442667007446
1761400388804774400,3.7677744140625,-0.7768436074256897,-1.221491813659668,-0.10063128918409348
1761400388814855400,3.77785546875,0.43836337327957153,-0.5934627652168274,-1.1166706085205078
1761400388824936700,3.787936767578125,1.080159068107605,0.14073416590690613,-1.782408356666565
1761400388835017700,3.798017822265625,1.3880383968353271,0.6292261481285095,-1.6255881786346436
1761400388845099000,3.80809912109375,1.1192145347595215,1.3035680055618286,-1.0114754438400269
1761400388855180500,3.8181806640625,0.14903905987739563,1.8567034006118774,0.10287585109472275
1761400388865290800,3.828290771484375,-0.9176526069641113,1.474379301071167,0.8037036061286926
1761400388875354600,3.838354736328125,-1.4162451028823853,1.543437123298645,1.4538041353225708
1761400388885449200,3.84844921875,-0.5270236730575562,2.6214263439178467,2.942922830581665
1761400388895526100,3.858526123046875,0.4652981460094452,2.6612300872802734,4.751068592071533
1761400388905609000,3.86860888671875,0.9799766540527344,1.268328309059143,5.0551323890686035
1761400388915689500,3.878689453125,0.6492775678634644,0.15435118973255157,3.3371431827545166
1761400388925771000,3.88877099609375,-1.2231377363204956,0.14754268527030945,1.0508301258087158
1761400388935828500,3.898828369140625,-1.8154782056808472,0.30361470580101013,-1.9098995923995972
1761400388945922800,3.9089228515625,-0.8215104341506958,-0.040626611560583115,-4.942978858947754
1761400388956003600,3.919003662109375,0.4736030101776123,0.24495676159858704,-6.716708183288574
1761400388966094000,3.929093994140625,1.86508309841156,0.09539397060871124,-7.98024845123291
1761400388976176400,3.93917626953125,3.6741268634796143,-1.873911738395691,-7.422698497772217
1761400388986257700,3.949257568359375,2.0893898010253906,-3.4100914001464844,-5.856815814971924
1761400388996317400,3.9593173828125,-5.138405799865723,-4.3994951248168945,-2.4036288261413574
1761400389006422300,3.96942236328125,1.5042320489883423,-6.8814592361450195,-1.7508348226547241
1761400389016502800,3.979502685546875,8.408287048339844,-11.733384132385254,0.9344120025634766
1761400389026571000,3.989571044921875,-3.55247163772583,-12.134188652038574,5.798083305358887
1761400389036662800,3.999662841796875,1.3664158582687378,-14.322114944458008,-0.8506897687911987
1761400389046744000,4.009744140625,5.634603977203369,-16.576480865478516,-8.831088066101074
1761400389056827000,4.019826904296875,17.78046417236328,-19.28215217590332,-13.223026275634766
1761400389066896000,4.029895751953125,9.972448348999023,-21.600488662719727,-18.771438598632812
1761400389076989400,4.039989501953125,5.406332015991211,-29.108854293823242,-22.010419845581055
1761400389087070500,4.050070556640625,8.051924705505371,-35.172096252441406,-24.332046508789062
1761400389097151500,4.0601513671875,14.474894523620605,-40.38172912597656,-29.537416458129883
1761400389107230500,4.07023046875,9.758392333984375,-40.03913116455078,-31.412673950195312
1761400389117313800,4.080313720703125,11.962329864501953,-36.30193328857422,-28.297443389892578
1761400389127371300,4.090371337890625,14.099903106689453,-32.175453186035156,-23.26939582824707
1761400389137476400,4.100476318359375,14.506543159484863,-30.079776763916016,-18.91135025024414
1761400389147557000,4.11055712890625,13.828459739685059,-28.12543487548828,-17.17203712463379
1761400389157630200,4.120630126953125,13.584251403808594,-31.9549617767334,-18.437149047851562
1761400389167717400,4.13071728515625,11.0887451171875,-32.36646270751953,-17.66494369506836
1761400389177800200,4.14080029296875,8.824953079223633,-27.783214569091797,-16.504728317260742
1761400389187869000,4.150868896484375,7.008427143096924,-20.09782600402832,-15.455769538879395
1761400389197962500,4.16096240234375,5.820004940032959,-14.453721046447754,-12.553174018859863
1761400389208043500,4.17104345703125,4.033331871032715,-9.765424728393555,-9.381305694580078
1761400389228181000,4.191180908203125,0.9077017307281494,-2.437222480773926,-3.757699489593506
1761400389238272500,4.2012724609375,1.008707046508789,-3.3389387130737305,-2.609605073928833
1761400389248368400,4.211368408203125,-0.48220717906951904,-3.2020950317382812,-0.5759551525115967
1761400389258408400,4.221408447265625,-1.4219313859939575,-2.412682056427002,1.4113819599151611
1761400389268537600,4.23153759765625,-0.26396074891090393,-2.5132384300231934,2.4450783729553223
1761400389278611700,4.24161181640625,-0.46260467171669006,-0.3063829839229584,2.8506712913513184
1761400389288681700,4.251681640625,-1.692102074623108,1.7233015298843384,3.6507086753845215
1761400389298771500,4.261771484375,-2.687042474746704,2.2153847217559814,5.4183030128479
1761400389308844800,4.2718447265625,-2.3370401859283447,1.6787095069885254,5.021239280700684
1761400389318936300,4.281936279296875,0.2717418968677521,2.8384008407592773,0.160261869430542
1761400389329017000,4.29201708984375,3.314248561859131,3.9419033527374268,-5.119700908660889
1761400389339097600,4.30209765625,4.907814025878906,3.170820951461792,-4.791919708251953
1761400389349179400,4.312179443359375,3.962852716445923,0.7295581698417664,-0.7722048759460449
1761400389359258000,4.322258056640625,1.0919055938720703,-2.297161817550659,3.1030349731445312
1761400389369341700,4.332341796875,-0.6316951513290405,-4.703558921813965,3.9630770683288574
1761400389379409700,4.34240966796875,-0.04765957593917847,-6.803573131561279,2.499995470046997
1761400389389498000,4.352498046875,2.7379941940307617,-6.810905456542969,1.9226936101913452
1761400389399556400,4.362556396484375,1.1295394897460938,-6.226420879364014,3.8680572509765625
1761400389409665500,4.37266552734375,-3.0416836738586426,-5.007622718811035,3.866486072540283
1761400389419721700,4.3827216796875,-3.9689130783081055,-2.8784289360046387,-0.5677250623703003
1761400389429813800,4.392813720703125,-1.2642881870269775,-2.272172212600708,-3.119495153427124
1761400389439909400,4.402909423828125,1.1590180397033691,-2.158447742462158,-3.540724992752075
1761400389449977300,4.412977294921875,1.1013327836990356,-1.7447744607925415,-3.6489877700805664
1761400389460071400,4.423071533203125,-0.8387935757637024,-0.8304887413978577,-2.0097079277038574
1761400389470152200,4.433152099609375,-2.035670042037964,0.0768389105796814,-1.3255647420883179
1761400389480221000,4.443220947265625,-1.6478841304779053,0.19984102249145508,-0.6443395614624023
1761400389490312200,4.453312255859375,-0.830862820148468,0.043918635696172714,-0.006808510981500149
1761400389500395500,4.4633955078125,-0.29052141308784485,0.24652795493602753,0.05229834467172623
1761400389510457300,4.473457275390625,-0.46971243619918823,0.26156654953956604,-0.30294132232666016
1761400389520532700,4.48353271484375,-0.07085340470075607,1.137245774269104,-1.0593594312667847
1761400389530645000,4.49364501953125,1.1446528434753418,2.8961610794067383,-1.9277812242507935
1761400389540718800,4.50371875,1.9467852115631104,5.3826141357421875,-1.7589900493621826
1761400389550788000,4.5137880859375,1.850867509841919,6.648922443389893,-0.9176526069641113
1761400389560878300,4.52387841796875,0.9653870463371277,6.046706199645996,-0.8993220329284668
1761400389570963700,4.533963623046875,0.49395373463630676,5.221978187561035,-1.09385085105896
1761400389581031700,4.54403173828125,0.45003509521484375,4.56072998046875,-0.5851578712463379
1761400389591115000,4.554114990234375,1.0631752014160156,3.4023849964141846,0.4098573923110962
1761400389601207000,4.56420703125,0.6226420998573303,2.1855320930480957,0.6167314052581787
1761400389611287600,4.57428759765625,-0.2745101749897003,1.1367220878601074,-1.2886791229248047
1761400389621348900,4.584348876953125,0.31678280234336853,0.25348609685897827,-3.0596401691436768
1761400389631449900,4.594449951171875,0.9277531504631042,-0.8475474119186401,-3.5795559883117676
1761400389641531000,4.60453076171875,1.0417770147323608,-1.6684592962265015,-4.53843355178833
1761400389651608600,4.614608642578125,1.4891934394836426,-1.8685247898101807,-5.435735702514648
1761400389661693000,4.62469287109375,-0.6168062090873718,-2.6097545623779297,-5.370344161987305
1761400389671774500,4.6347744140625,-7.02556037902832,-3.133561134338379,-4.378994941711426
1761400389681853700,4.644853759765625,-3.718494415283203,-6.014159679412842,-4.971560001373291
1761400389691925800,4.65492578125,14.706533432006836,-10.451289176940918,-6.0179009437561035
1761400389702018000,4.66501806640625,10.877532005310059,-10.534112930297852,3.7743842601776123
1761400389712099000,4.67509912109375,-1.568800687789917,-9.278204917907715,9.884836196899414
1761400389722178800,4.6851787109375,-2.7124061584472656,-11.562422752380371,6.366780757904053
1761400389732261400,4.695261474609375,2.0586392879486084,-17.168745040893555,-1.7498621940612793
1761400389742332700,4.705332763671875,10.06701946258545,-17.55421257019043,-16.048858642578125
1761400389752421400,4.71542138671875,13.816189765930176,-20.959514617919922,-25.68342399597168
1761400389762491400,4.725491455078125,3.212794303894043,-25.170093536376953,-30.120628356933594
1761400389772585500,4.73558544921875,4.192845821380615,-31.878496170043945,-35.883995056152344
1761400389782653400,4.7456533203125,10.377293586730957,-37.898643493652344,-35.937191009521484
1761400389792717600,4.755717529296875,7.825074195861816,-35.55075454711914,-20.785785675048828
1761400389802817000,4.765817138671875,6.833874702453613,-31.581315994262695,-12.872724533081055
1761400389812908000,4.775907958984375,7.770456314086914,-26.045621871948242,-14.184073448181152
1761400389822978800,4.785978759765625,8.479663848876953,-28.52579116821289,-16.88825035095215
1761400389833060600,4.796060546875,9.238251686096191,-32.680179595947266,-20.245893478393555
1761400389843140600,4.806140625,8.573636054992676,-34.450767517089844,-23.583036422729492
1761400389853222400,4.816222412109375,7.684938430786133,-34.62277603149414,-23.892412185668945
1761400389863289900,4.826289794921875,6.326079368591309,-31.7736759185791,-21.448606491088867
1761400389873371400,4.836371337890625,5.456610202789307,-24.107067108154297,-18.2939453125
1761400389883465000,4.84646484375,4.970287799835205,-16.823606491088867,-14.926799774169922
1761400389893527800,4.85652783203125,4.4800004959106445,-13.390172004699707,-11.99637222290039
1761400389903613400,4.866613525390625,1.0058640241622925,-11.410690307617188,-10.05228042602539
1761400389913704400,4.876704345703125,-1.7700632810592651,-7.272686958312988,-8.421080589294434
1761400389923786000,4.886785888671875,-0.9914239645004272,-5.071742057800293,-7.772476673126221
1761400389933874400,4.89687451171875,2.8640637397766113,-3.3515830039978027,-6.153846740722656
1761400389943962000,4.906962158203125,6.044760704040527,-0.27892449498176575,-2.329184055328369
1761400389954033200,4.917033203125,4.596792221069336,0.08312369138002396,1.2868833541870117
1761400389964134000,4.9271337890625,0.9291747212409973,-0.8175450563430786,4.768725872039795
1761400389974207200,4.937207275390625,-2.3445968627929688,-1.5147814750671387,5.564723491668701
1761400389984276000,4.94727587890625,-4.638167381286621,-1.8849849700927734,2.8709471225738525
1761400389994380800,4.957380859375,-6.2917375564575195,-0.7288099527359009,1.877877116203308
1761400390004448800,4.96744873046875,-5.676726818084717,1.088912844657898,0.6523451209068298
1761400390014535700,4.97753564453125,-3.476680040359497,1.45806884765625,-2.1663784980773926
1761400390024612900,4.98761279296875,-0.3809773325920105,2.2613983154296875,-3.6467432975769043
1761400390034694400,4.9976943359375,2.03275203704834,3.121889352798462,-2.39697003364563
1761400390044763000,5.007762939453125,4.332756996154785,2.2893056869506836,0.21555297076702118
1761400390054852400,5.017852294921875,4.810998439788818,-0.5876268744468689,3.3120038509368896
1761400390064937200,5.027937255859375,2.5259575843811035,-3.1811459064483643,5.307945251464844
1761400390075016400,5.038016357421875,0.06673837453126907,-3.6566193103790283,5.273229122161865
1761400390085100000,5.04810009765625,-1.0164134502410889,-3.5772366523742676,4.818330764770508
1761400390095180500,5.0581806640625,-1.4868741035461426,-3.3575685024261475,3.4891748428344727
1761400390105250000,5.06825,0.27151742577552795,-3.4065749645233154,2.322824478149414
1761400390115342300,5.07834228515625,2.5148844718933105,-4.402413368225098,2.3772177696228027
1761400390125424000,5.088424072265625,0.6425438523292542,-4.682011127471924,1.6433202028274536
1761400390135501300,5.098501220703125,1.3602806329727173,-4.0102128982543945,1.2125135660171509
1761400390145584400,5.10858447265625,0.6605752110481262,-2.889202833175659,1.017760157585144
1761400390155665700,5.118665771484375,-2.107944965362549,-2.084077835083008,0.030526071786880493
1761400390165748000,5.128748046875,-2.6034698486328125,-1.778592586517334,-1.1578209400177002
1761400390175808500,5.13880859375,-1.6516250371932983,-1.6109236478805542,-2.5727193355560303
1761400390185897700,5.148897705078125,-0.8441805839538574,-1.3468880653381348,-3.4850597381591797
1761400390195977000,5.15897705078125,-0.7109282612800598,-1.092953085899353,-3.9233484268188477
1761400390206070500,5.169070556640625,-0.680701494216919,-0.783652126789093,-3.747075319290161
1761400390216153600,5.179153564453125,-0.4833294749259949,-0.5254524350166321,-3.497704267501831
1761400390226222600,5.18922265625,-0.19976620376110077,0.3026420474052429,-2.8404958248138428
1761400390236315600,5.199315673828125,0.060378775000572205,1.54171621799469,-1.7988685369491577
1761400390246397400,5.2093974609375,-0.10998363792896271,2.624718427658081,-0.8113350868225098
1761400390256476400,5.219476318359375,0.17298106849193573,2.8389995098114014,-0.28057050704956055
1761400390266549500,5.229549560546875,0.7085340619087219,3.496656656265259,0.7198317050933838
1761400390276640300,5.23964013671875,0.8478466868400574,4.050989151000977,2.0311059951782227
1761400390286721800,5.2497216796875,0.4545990526676178,4.328267574310303,3.1916205883026123
1761400390296789800,5.259789794921875,0.6474819183349609,3.093757390975952,2.8360066413879395
1761400390306883800,5.2698837890625,1.6751182079315186,1.4723591804504395,0.13991115987300873
1761400390316939500,5.279939453125,1.7652748823165894,1.5234605073928833,-1.2780548334121704
1761400390327045600,5.290045654296875,1.3400795459747314,0.7314286231994629,-2.0958242416381836
1761400390337126700,5.300126708984375,-0.05529109388589859,-0.2655319273471832,-3.038017511367798
1761400390347207700,5.310207763671875,0.8821136951446533,0.032695818692445755,-5.3266496658325195
1761400390357289500,5.32028955078125,3.310208320617676,-0.6962637901306152,-7.216423034667969
1761400390367370000,5.330369873046875,-0.27989715337753296,-1.8360533714294434,-7.353641033172607
1761400390377451300,5.340451171875,2.360084295272827,-4.8413004875183105,-8.8878755569458
1761400390387533300,5.350533203125,30.783672332763672,-14.105215072631836,-10.698116302490234
1761400390397588500,5.36058837890625,5.305700778961182,-10.912696838378906,6.622586250305176
1761400390407695000,5.370695068359375,-14.521506309509277,-11.24863338470459,6.505719184875488
1761400390417776400,5.3807763671875,-4.14099645614624,-21.689672470092773,-4.0656538009643555
1761400390427856600,5.390856689453125,17.8536376953125,-28.332908630371094,-31.990724563598633
1761400390437938400,5.4009384765625,9.969305992126465,-29.460128784179688,-33.995792388916016
1761400390448015600,5.411015625,9.977985382080078,-33.13874435424805,-25.38429832458496
1761400390458075100,5.4210751953125,7.353641033172607,-32.07235336303711,-16.83587646484375
1761400390468156700,5.43115673828125,9.960627555847168,-32.797569274902344,-17.811140060424805
1761400390478262300,5.44126220703125,9.610176086425781,-31.913063049316406,-18.66975975036621
1761400390488343300,5.45134326171875,9.20675277709961,-34.589630126953125,-19.665298461914062
1761400390498399000,5.46139892578125,11.591527938842773,-35.923500061035156,-19.173664093017578
1761400390508482000,5.47148193359375,11.71086311340332,-35.93217849731445,-18.877382278442383
1761400390518561300,5.481561279296875,10.70761775970459,-36.27178192138672,-19.1735897064209
1761400390528668000,5.49166796875,9.731082916259766,-33.4858283996582,-17.81495475769043
1761400390538711800,5.5017119140625,7.686135768890381,-27.923200607299805,-16.27817726135254
1761400390548830000,5.511829833984375,5.230806827545166,-21.370643615722656,-14.310367584228516
1761400390558910700,5.52191064453125,3.733832359313965,-17.735647201538086,-12.373085021972656
1761400390568992500,5.531992431640625,2.5555858612060547,-13.94817066192627,-10.491915702819824
1761400390579049500,5.542049560546875,0.203207865357399,-9.892766952514648,-9.382128715515137
1761400390589154300,5.552154296875,-1.1945569515228271,-7.1746745109558105,-7.823802471160889
1761400390599235600,5.562235595703125,-0.9128642082214355,-4.179752349853516,-4.946495532989502
1761400390609317000,5.572317138671875,1.9981110095977783,-3.2317981719970703,-1.5376760959625244
1761400390619398100,5.582398193359375,3.0610616207122803,-2.160168409347534,1.8577508926391602
1761400390629457400,5.59245751953125,1.1023054122924805,-1.042001485824585,3.4974050521850586
1761400390639556400,5.602556396484375,-1.1621605157852173,-0.842235267162323,4.085480690002441
1761400390649641000,5.612640869140625,-1.859022855758667,-2.4100632667541504,1.7170166969299316
1761400390659722500,5.622722412109375,-1.527725100517273,-4.046799659729004,0.5148282051086426
1761400390669778200,5.632778076171875,-4.73767614364624,-0.9016413688659668,1.12736976146698
1761400390679884300,5.64288427734375,-5.243152141571045,2.278606653213501,0.24809914827346802
1761400390689940500,5.6529404296875,-0.9335890412330627,1.4121301174163818,-1.1257237195968628
1761400390700046300,5.66304638671875,1.1626842021942139,-0.618302583694458,-3.213841676712036
1761400390710124300,5.673124267578125,1.4964509010314941,-0.8405144214630127,-3.5515737533569336
1761400390720211000,5.6832109375,-0.02536357380449772,-0.21353286504745483,-0.6637176275253296
1761400390730269700,5.693269775390625,0.5509656667709351,1.4548516273498535,2.304119825363159
1761400390740371200,5.70337109375,2.600177764892578,-0.21884499490261078,5.856740951538086
1761400390750452200,5.7134521484375,5.941435813903809,-2.3410804271698,6.127809524536133
1761400390760519700,5.723519775390625,3.1122376918792725,-3.691185712814331,5.276446342468262
1761400390780681500,5.743681396484375,-2.200570583343506,-1.7156699895858765,0.7264905571937561
1761400390790776600,5.753776611328125,-0.8456020951271057,-0.7984662652015686,-0.5009118914604187
1761400390800858000,5.763858154296875,2.5196728706359863,-2.1787235736846924,-2.022876024246216
1761400390810939100,5.773939208984375,2.3233482837677,-3.740640878677368,-4.349591255187988
1761400390821002800,5.784002685546875,-0.3066074550151825,-5.057526588439941,-5.076306343078613
1761400390831101000,5.794100830078125,-0.8177695274353027,-4.974253177642822,-3.243619680404663
1761400390841178000,5.80417822265625,-0.8233809471130371,-3.424830675125122,-1.08651864528656
1761400390861344300,5.82434423828125,-1.8139818906784058,-0.6961141228675842,0.12689268589019775
1761400390871412500,5.83441259765625,-1.2087725400924683,-0.643815815448761,-0.6676830053329468
1761400390881481700,5.844481689453125,-0.7524527311325073,-0.9733178019523621,-1.305363655090332
1761400390891562000,5.85456201171875,-0.8911667466163635,-0.9537152647972107,-1.7783681154251099
1761400390901643300,5.864643310546875,-0.734122097492218,0.27907413244247437,-1.7586908340454102
1761400390911724300,5.874724365234375,-0.34356793761253357,1.460687518119812,-1.3021464347839355
1761400390921805300,5.884805419921875,-0.2852841019630432,2.3930795192718506,-0.4150947332382202
1761400390931885800,5.8948857421875,-0.9368810653686523,2.9082818031311035,0.46589669585227966
1761400390941976800,5.904976806640625,-2.1074211597442627,3.119046211242676,1.5575029850006104
1761400390952047900,5.9150478515625,-3.008314371109009,3.0805892944335938,2.9729251861572266
1761400390962139100,5.92513916015625,-2.701706886291504,2.956465005874634,4.176834583282471
1761400390972236000,5.935236083984375,-1.4034510850906372,3.0318074226379395,5.088352203369141
1761400390982317300,5.9453173828125,1.2178256511688232,1.7913117408752441,5.456011772155762
1761400390992385500,5.955385498046875,2.718541145324707,0.38397011160850525,3.4070239067077637
1761400391002479900,5.96547998046875,1.2374281883239746,-0.057236384600400925,1.0823287963867188
1761400391012560600,5.975560546875,0.6811503767967224,-0.11828852444887161,0.1720084249973297
1761400391022642000,5.985641845703125,2.6815807819366455,-0.5374982953071594,-0.45242929458618164
1761400391032701200,5.995701171875,3.1419408321380615,-1.4078654050827026,-0.8642320036888123
1761400391042804000,6.005803955078125,1.5056536197662354,-3.078644037246704,-1.2001683712005615
1761400391052876500,6.01587646484375,2.8120646476745605,-6.280514717102051,-1.1787701845169067
1761400391062966300,6.02596630859375,11.189227104187012,-8.386140823364258,-5.894599437713623
1761400391073047300,6.03604736328125,13.224223136901855,-8.691401481628418,-13.504494667053223
1761400391083128300,6.04612841796875,22.12683868408203,-12.642807006835938,-15.480833053588867
1761400391093218000,6.056218017578125,2.177900552749634,-12.74949836730957,-2.287360429763794
1761400391103290400,6.066290283203125,-17.765501022338867,-15.368979454040527,-1.9110218286514282
1761400391113372000,6.076371826171875,-1.8619407415390015,-22.017826080322266,-5.765162944793701
1761400391123453200,6.086453125,15.585430145263672,-22.305431365966797,-21.100173950195312
1761400391133522200,6.096522216796875,16.85173797607422,-23.99947738647461,-26.281076431274414
1761400391143615000,6.106614990234375,5.848585605621338,-23.329774856567383,-26.785655975341797
1761400391153684000,6.11668408203125,7.885228633880615,-28.227413177490234,-27.00307846069336
1761400391163754800,6.126754638671875,16.973169326782227,-35.83611297607422,-28.086380004882812
1761400391173858300,6.1368583984375,5.240009784698486,-34.77705001831055,-22.231884002685547
1761400391183927000,6.146927001953125,7.696909427642822,-39.292964935302734,-24.693721771240234
1761400391194021000,6.157021240234375,11.333626747131348,-37.46521759033203,-24.512210845947266
1761400391204102000,6.167101806640625,9.369857788085938,-35.95911407470703,-23.34488868713379
1761400391214182700,6.1771826171875,9.077241897583008,-34.4682731628418,-21.63161277770996
1761400391224249300,6.187249267578125,10.976666450500488,-30.184823989868164,-18.50111961364746
1761400391234345000,6.197344970703125,9.356315612792969,-26.12575340270996,-13.747132301330566
1761400391244426500,6.207426513671875,8.43200397491455,-18.495508193969727,-9.67422103881836
1761400391254496300,6.217496337890625,8.360477447509766,-10.311901092529297,-8.063970565795898
1761400391264588300,6.22758837890625,6.185869216918945,-6.66328763961792,-7.336207866668701
1761400391274656500,6.237656494140625,2.2036383152008057,-6.291363716125488,-6.847416877746582
1761400391284748800,6.247748779296875,-0.8678233027458191,-6.540958881378174,-5.6735100746154785
1761400391294806300,6.25780615234375,-2.0517561435699463,-6.6015625,-5.498957633972168
1761400391304912600,6.26791259765625,-1.389235496520996,-4.947168827056885,-6.214150428771973
1761400391314994000,6.277993896484375,0.44928690791130066,-2.3131728172302246,-5.368174076080322
1761400391325074700,6.28807470703125,0.7262661457061768,-1.202487826347351,-2.2735190391540527
1761400391335143000,6.298142822265625,-0.40851065516471863,-1.9901801347732544,2.470217704772949
1761400391355315700,6.318315673828125,-3.4419641494750977,2.4823381900787354,5.007697105407715
1761400391365386500,6.328386474609375,-3.528604507446289,5.205817699432373,5.828908443450928
1761400391375461400,6.33846142578125,2.38230562210083,3.493738889694214,4.952181816101074
1761400391385559300,6.348559326171875,6.928969383239746,1.2838906049728394,5.467084884643555
1761400391395641900,6.358641845703125,4.6984710693359375,1.0360907316207886,5.988646507263184
1761400391405699000,6.368698974609375,2.298358917236328,1.3311761617660522,4.50947904586792
1761400391415791900,6.3787919921875,3.197680711746216,-1.7484406232833862,1.192013144493103
1761400391425886000,6.388885986328125,4.091466426849365,-4.147056579589844,-1.5843629837036133
1761400391435942100,6.398942138671875,2.2626702785491943,-2.825831413269043,-4.095132350921631
1761400391446036200,6.4090361328125,-1.366266131401062,-2.5451111793518066,-4.504690647125244
1761400391456116200,6.4191162109375,-4.747178077697754,-3.7957074642181396,-4.127379417419434
1761400391466210800,6.4292109375,-3.8080525398254395,-4.054131507873535,-1.12736976146698
1761400391476289300,6.439289306640625,-0.038007952272892,-4.83015251159668,2.2950668334960938
1761400391486370000,6.4493701171875,0.9635165333747864,-3.871798276901245,-0.16385318338871002
1761400391496442000,6.459442138671875,0.3490297198295593,-3.3155951499938965,-2.005293607711792
1761400391506521600,6.469521484375,0.05738602206110954,-2.7520599365234375,-2.4537575244903564
1761400391516616000,6.479615966796875,-0.5282207727432251,-1.8775779008865356,-2.218601942062378
1761400391526696400,6.489696533203125,-0.238896444439888,-0.8150760531425476,-2.7114334106445312
1761400391536776200,6.499776123046875,0.4679167866706848,-1.3712042570114136,-3.32045841217041
1761400391546846000,6.509845947265625,0.8711153268814087,-1.8905963897705078,-4.159327030181885
1761400391556927500,6.519927490234375,0.9752631187438965,-0.9978584051132202,-4.155137062072754
1761400391567021300,6.530021240234375,1.4221558570861816,1.1736077070236206,-3.641580820083618
1761400391577089500,6.540089599609375,2.349609613418579,4.453813552856445,-2.6425251960754395
1761400391587183600,6.55018359375,2.680009603500366,6.462474346160889,-1.6481834650039673
1761400391597262600,6.5602626953125,1.379135012626648,6.119355201721191,-1.171961784362793
1761400391607346000,6.570345947265625,-0.3596539795398712,5.40910005569458,-0.2999485731124878
1761400391617414000,6.580413818359375,-1.6343419551849365,5.070620059967041,0.6556371450424194
1761400391627482600,6.590482666015625,-2.827552318572998,4.372111797332764,1.9940707683563232
1761400391637589500,6.600589599609375,-3.946467399597168,2.924966335296631,3.6185367107391357
1761400391647659500,6.610659423828125,-2.6155905723571777,1.2169278860092163,4.492495059967041
1761400391657751000,6.6207509765625,2.1027824878692627,-0.2834884524345398,4.452841281890869
1761400391667813400,6.6308134765625,5.06411075592041,-0.8336310982704163,4.4490251541137695
1761400391677913300,6.640913330078125,1.4258219003677368,-0.9472808837890625,4.299686908721924
1761400391687982800,6.65098291015625,-3.5556888580322266,-2.0154688358306885,2.9567642211914062
1761400391698062600,6.6610625,-3.8715736865997314,-1.7295114994049072,-0.5013607740402222
1761400391708156400,6.671156494140625,-2.8190228939056396,-1.6737715005874634,-3.0977976322174072
1761400391718237700,6.68123779296875,-1.8924667835235596,-4.500051498413086,-4.3202619552612305
1761400391728317000,6.69131689453125,-2.483236074447632,-7.447463512420654,-3.560626745223999
1761400391738387000,6.701386962890625,0.3849427402019501,-8.477344512939453,-2.2368576526641846
1761400391748481000,6.71148095703125,6.669572353363037,-10.550423622131348,-6.0510454177856445
1761400391758561800,6.721561767578125,13.937321662902832,-13.451896667480469,-7.107337474822998
1761400391768643300,6.731643310546875,-0.9867851734161377,-11.749170303344727,-0.14088380336761475
1761400391778724000,6.74172412109375,-9.070058822631836,-10.580426216125488,-0.6587047576904297
1761400391788805000,6.75180517578125,-1.551068663597107,-14.757485389709473,-3.876586675643921
1761400391798863400,6.76186328125,12.598663330078125,-21.75611114501953,-7.200786113739014
1761400391808967400,6.771967529296875,15.47799015045166,-20.42732810974121,-4.524292945861816
1761400391819049000,6.782049072265625,14.304905891418457,-23.031023025512695,-10.40116024017334
1761400391829129700,6.792129638671875,12.346075057983398,-21.444116592407227,-20.025402069091797
1761400391839217200,6.802217041015625,10.690335273742676,-23.296255111694336,-27.592201232910156
1761400391849291800,6.812291748046875,11.492318153381348,-27.159076690673828,-31.647232055664062
1761400391859371000,6.82237109375,7.976881504058838,-29.21883773803711,-30.64308738708496
1761400391869467100,6.832467041015625,10.346617698669434,-32.33915710449219,-26.941577911376953
1761400391879535000,6.84253515625,12.114136695861816,-22.63336181640625,-19.738845825195312
1761400391889592000,6.852592041015625,12.501848220825195,-22.466890335083008,-17.4898681640625
1761400391899663400,6.862663330078125,13.65951919555664,-23.818790435791016,-16.371700286865234
1761400391909753300,6.87275341796875,12.912004470825195,-26.849700927734375,-15.823503494262695
1761400391919834600,6.882834716796875,13.928044319152832,-29.584701538085938,-15.38932991027832
1761400391929916000,6.892916015625,12.374655723571777,-30.164024353027344,-15.966182708740234
1761400391939996700,6.90299658203125,9.490166664123535,-25.48276138305664,-16.889223098754883
1761400391950103000,6.91310302734375,7.344812393188477,-20.423887252807617,-18.08437728881836
1761400391960171300,6.923171142578125,4.077325344085693,-16.489839553833008,-18.131738662719727
1761400391970265600,6.933265625,4.684704303741455,-12.493917465209961,-15.174749374389648
1761400391980335600,6.943335693359375,4.16688346862793,-9.222539901733398,-11.407398223876953
1761400391990414600,6.95341455078125,4.275520324707031,-6.949769020080566,-7.305457592010498
1761400392000510700,6.9635107421875,2.7094132900238037,-5.542427062988281,-2.93349552154541
1761400392010574600,6.97357470703125,-0.20642507076263428,-5.213748455047607,0.5653308629989624
1761400392020646100,6.983646240234375,-0.576329231262207,-4.547486782073975,2.3993642330169678
1761400392030752000,6.993751953125,3.2090532779693604,-2.160243272781372,2.386495351791382
1761400392040833000,7.0038330078125,6.270638942718506,-0.026261400431394577,1.5169512033462524
1761400392050911200,7.0139111328125,4.216862678527832,0.46245503425598145,2.3647232055664062
1761400392060993000,7.023992919921875,-0.5773018598556519,-0.15928922593593597,3.4571523666381836
1761400392071076000,7.034076171875,-6.937124729156494,0.17372925579547882,2.7719619274139404
1761400392081144800,7.044144775390625,-9.960402488708496,1.4007576704025269,2.784531354904175
1761400392091225300,7.054225341796875,-7.026981830596924,-0.19475334882736206,1.0868927240371704
1761400392101319700,7.064319580078125,-2.905588150024414,-2.0299088954925537,-1.8707693815231323
1761400392111400700,7.074400634765625,1.3011738061904907,-1.9431191682815552,-4.487482070922852
1761400392121489000,7.084489013671875,4.715006351470947,-1.2474539279937744,-3.728969097137451
1761400392131560700,7.094560791015625,5.5842509269714355,-0.267851322889328,-2.059387445449829
1761400392141644000,7.10464404296875,4.001758575439453,-0.15771803259849548,-0.10025719553232193
1761400392151724800,7.114724853515625,2.9735984802246094,-2.839223861694336,3.050063371658325
1761400392161806300,7.124806396484375,2.226832151412964,-6.6192193031311035,4.459799289703369
1761400392171887000,7.13488720703125,-1.0034698247909546,-6.5009307861328125,2.8539631366729736
1761400392181968100,7.144968017578125,-3.2907555103302,-4.997222900390625,0.07317279279232025
1761400392192044000,7.1550439453125,-2.355595111846924,-3.18017315864563,0.03254617750644684
1761400392202118000,7.165117919921875,1.5456068515777588,-1.9582325220108032,-0.8461258411407471
1761400392212186400,7.175186279296875,3.8267574310302734,-0.6597521901130676,-4.587514877319336
1761400392222293200,7.185293212890625,1.605536699295044,-0.8711901307106018,-5.130699634552002
1761400392232356600,7.195356689453125,-0.17589899897575378,-1.7531541585922241,-3.7037551403045654
1761400392242450400,7.205450439453125,-1.6160861253738403,-1.5940146446228027,-1.7577929496765137
1761400392252528000,7.215528076171875,-1.896806240081787,-1.2824691534042358,0.3778349459171295
1761400392262616300,7.2256162109375,-0.9940426349639893,-1.8926163911819458,1.0389338731765747
1761400392272697900,7.23569775390625,0.03486556187272072,-2.3172879219055176,0.6302735805511475
1761400392282779000,7.24577880859375,0.4761468768119812,-1.5222634077072144,0.2911947965621948
1761400392292881000,7.255880859375,0.8467991948127747,0.877774178981781,-0.7942016124725342
1761400392302916600,7.26591650390625,0.978181004524231,3.9828293323516846,-1.2039093971252441
1761400392312996900,7.275996826171875,1.2348843812942505,6.246622085571289,-0.7387608885765076
1761400392323103700,7.286103759765625,1.3206267356872559,7.41948127746582,0.2750339210033417
1761400392333184500,7.2961845703125,1.0158897638320923,7.31503438949585,1.3376853466033936
1761400392343266300,7.306266357421875,0.27301380038261414,5.937246322631836,2.4567501544952393
1761400392353346300,7.31634619140625,-0.8774749040603638,3.903820753097534,3.3303346633911133
1761400392363427600,7.326427490234375,-1.301847219467163,1.6170587539672852,3.1774797439575195
1761400392373504500,7.33650439453125,-0.15031097829341888,-0.007407061289995909,1.7215806245803833
1761400392391151400,7.3541513671875,1.051877498626709,-1.4110826253890991,0.10923545062541962
1761400392401232400,7.364232421875,0.2314145565032959,-1.5465046167373657,0.17178396880626678
1761400392411314200,7.374314208984375,-1.2651859521865845,-1.753229022026062,0.9698761701583862
1761400392421394000,7.384393798828125,-2.646939516067505,-1.8107646703720093,0.5863549709320068
1761400392431478300,7.394478271484375,-2.509946346282959,-2.198176383972168,-1.698162317276001
1761400392441552600,7.404552734375,-1.2004677057266235,-3.8891561031341553,-3.54439115524292
1761400392451637500,7.414637451171875,0.2355295866727829,-6.102745532989502,-5.342062473297119
1761400392461693700,7.424693603515625,3.765779972076416,-8.553135871887207,-8.153453826904297
1761400392471799600,7.434799560546875,24.92326545715332,-11.735329627990723,-15.964312553405762
1761400392481855700,7.444855712890625,11.320609092712402,-12.03415584564209,-3.307140827178955
1761400392491961600,7.454961669921875,-8.833107948303223,-10.573244094848633,-2.2415714263916016
1761400392502038800,7.465038818359375,-6.680870056152344,-19.20149803161621,-6.882881164550781
1761400392512124000,7.4751240234375,13.21240234375,-21.93036460876465,-20.19179916381836
1761400392522205200,7.485205078125,17.90039825439453,-18.313772201538086,-22.77222442626953
1761400392532286200,7.4952861328125,15.539116859436035,-21.562030792236328,-23.26483154296875
1761400392542367200,7.5053671875,5.168333053588867,-26.363004684448242,-17.77328109741211
1761400392552448500,7.515448486328125,9.735647201538086,-28.24679183959961,-22.20248031616211
1761400392562525400,7.525525390625,13.6533842086792,-31.472454071044922,-29.794044494628906
1761400392572610600,7.535610595703125,10.02459716796875,-33.140689849853516,-30.806716918945312
1761400392582691800,7.54569189453125,10.829872131347656,-33.57052230834961,-27.752613067626953
1761400392592772900,7.55577294921875,11.666720390319824,-33.47774887084961,-23.844303131103516
1761400392602854400,7.5658544921875,11.060388565063477,-34.30217742919922,-21.554624557495117
1761400392612935700,7.575935791015625,10.281973838806152,-32.79846954345703,-20.518159866333008
1761400392622990600,7.585990478515625,8.628927230834961,-29.364957809448242,-17.729887008666992
1761400392633071900,7.59607177734375,7.296928405761719,-26.439393997192383,-14.238018035888672
1761400392643178200,7.60617822265625,6.703540325164795,-21.027225494384766,-11.844340324401855
1761400392653234400,7.616234375,6.599018573760986,-14.858864784240723,-10.647014617919922
1761400392663340300,7.62634033203125,5.817760467529297,-10.461539268493652,-10.26663589477539
1761400392673421600,7.636421630859375,4.681188106536865,-5.982960224151611,-8.749460220336914
1761400392683502600,7.646502685546875,3.26995587348938,-2.785578966140747,-6.793846607208252
1761400392693573000,7.656572998046875,2.0440497398376465,-0.9033622145652771,-2.639233350753784
1761400392703639800,7.666639892578125,0.6633434891700745,-0.19976620376110077,3.1529390811920166
1761400392713773600,7.676773681640625,-3.576488494873047,-1.7045220136642456,6.646004676818848
1761400392723827500,7.686827392578125,-4.761618137359619,-2.6629507541656494,4.978667736053467
1761400392733908200,7.696908203125,-5.099574565887451,-2.005293607711792,2.9296798706054688
1761400392743986700,7.706986572265625,-4.744933605194092,0.5651063919067383,2.463932752609253
1761400392754070800,7.71707080078125,-3.9124996662139893,2.635193109512329,2.335020065307617
1761400392764148000,7.72714794921875,-0.45512276887893677,2.2153847217559814,0.22580315172672272
1761400392774232600,7.737232666015625,3.25993013381958,1.8343325853347778,-0.6348375678062439
1761400392784313600,7.747313720703125,4.985027313232422,2.939331531524658,-0.4743511974811554
1761400392794395400,7.7573955078125,5.172523021697998,4.562076568603516,1.0384849309921265
1761400392804477000,7.767476806640625,4.602104663848877,2.8889036178588867,2.9398553371429443
1761400392814533400,7.777533447265625,3.5829975605010986,-2.068141460418701,4.45246696472168
1761400392824639200,7.78763916015625,-0.4122515916824341,-5.769128322601318,4.355352401733398
1761400392834719200,7.79771923828125,1.05068039894104,-7.565303325653076,1.6845453977584839
1761400392844775700,7.807775634765625,2.99821400642395,-6.128183841705322,-0.3362357020378113
1761400392854856200,7.817856201171875,0.4364928901195526,-3.249605178833008,-0.9418939352035522
1761400392864962300,7.82796240234375,-1.395969271659851,-4.1564836502075195,-4.143016338348389
1761400392875043800,7.8380439453125,-0.9778069257736206,-5.522974491119385,-7.863081932067871
1761400392885099300,7.848099365234375,0.09217676520347595,-5.745859622955322,-7.635932445526123
1761400392895206400,7.858206298828125,1.5773299932479858,-5.143867492675781,-4.939986228942871
1761400392905286700,7.86828662109375,2.7508628368377686,-5.351190567016602,-2.2880337238311768
1761400392915368000,7.878367919921875,2.2536919116973877,-5.4944682121276855,-1.7661726474761963
1761400392925449000,7.888448974609375,0.30877721309661865,-3.092560291290283,-1.7297358512878418
1761400392935505000,7.8985048828125,0.21675007045269012,0.9966613054275513,-1.0543465614318848
1761400392945586000,7.9085859375,1.4583680629730225,4.209829807281494,-0.3957166373729706
1761400392955667500,7.91866748046875,2.4997711181640625,6.68446159362793,0.7376385927200317
1761400392965748700,7.928748779296875,1.9741688966751099,8.543559074401855,2.276137590408325
1761400392975855400,7.93885546875,0.38397011160850525,9.671228408813477,3.7426609992980957
1761400392985935400,7.948935302734375,-1.683048963546753,10.042778015136719,4.494964122772217
1761400392996017000,7.959016845703125,-3.5982606410980225,9.570821762084961,4.8243913650512695
1761400393016179500,7.979179443359375,-3.9699604511260986,5.3779754638671875,3.197531223297119
1761400393026260200,7.98926025390625,-0.32770636677742004,3.599756956100464,0.5761047601699829
1761400393036341200,7.99934130859375,2.9282584190368652,0.7703344225883484,-2.950554370880127
1761400393056478200,8.019478271484376,0.08162731677293777,-3.710937738418579,-0.9524433612823486
1761400393066555000,8.029554931640625,-1.418190360069275,-4.769623756408691,2.0185365676879883
1761400393076640300,8.03964013671875,-2.9780876636505127,-4.699892520904541,0.3348889648914337
1761400393086746600,8.04974658203125,-4.365677356719971,-2.482038974761963,-3.195361375808716
1761400393096792000,8.0597919921875,-3.811269760131836,-1.6356137990951538,-5.100472450256348
1761400393106909700,8.06990966796875,-0.692298412322998,-3.43066668510437,-5.9345526695251465
1761400393116989700,8.07998974609375,6.102221488952637,-4.675726413726807,-7.956456184387207
1761400393127071500,8.090071533203124,4.2806830406188965,-5.9147257804870605,-7.420379161834717
1761400393137151700,8.10015185546875,14.560412406921387,-12.057648658752441,-7.368529796600342
1761400393147233800,8.11023388671875,4.1063551902771,-13.574450492858887,2.1948843002319336
1761400393157314800,8.120314697265625,-8.48587417602539,-9.771709442138672,-1.1136778593063354
1761400393167395800,8.130395751953126,-5.290736675262451,-10.01644229888916,-5.168707370758057
1761400393177476900,8.140476806640624,13.556867599487305,-15.944111824035645,-8.25199031829834
1761400393187556600,8.150556640625,25.732206344604492,-21.443517684936523,-13.48534107208252
1761400393197613800,8.16061376953125,8.863783836364746,-21.66640281677246,-18.31287384033203
1761400393207720000,8.170719970703125,6.4071831703186035,-24.17006492614746,-27.189453125
1761400393217800700,8.18080078125,7.148412704467773,-29.71181869506836,-32.19498062133789
1761400393227858200,8.190858154296874,7.344288349151611,-35.757999420166016,-35.676971435546875
1761400393237963300,8.20096337890625,8.297255516052246,-39.74591827392578,-38.19993591308594
1761400393248040400,8.21104052734375,12.069245338439941,-33.816078186035156,-28.911182403564453
1761400393258121500,8.22112158203125,14.988900184631348,-36.89173126220703,-24.535255432128906
1761400393268202200,8.2312021484375,15.651719093322754,-39.26408386230469,-21.61126136779785
1761400393278287600,8.24128759765625,13.717653274536133,-36.02757263183594,-20.421642303466797
1761400393288369000,8.251368896484376,9.147421836853027,-29.68907356262207,-17.074174880981445
1761400393298449700,8.26144970703125,15.812056541442871,-21.109302520751953,-10.070535659790039
1761400393308530400,8.271530517578125,15.290793418884277,-18.884864807128906,-7.427636623382568
1761400393318612000,8.281612060546875,13.8515043258667,-15.852533340454102,-6.9309892654418945
1761400393328684500,8.2916845703125,10.472911834716797,-10.084003448486328,-7.71935510635376
1761400393338774000,8.30177392578125,6.923731803894043,-4.3430070877075195,-8.177994728088379
1761400393348855800,8.311855712890624,4.732064723968506,-0.9394248723983765,-8.403423309326172
1761400393358936600,8.3219365234375,2.247107982635498,-1.1674726009368896,-6.02927303314209
1761400393369017900,8.332017822265625,-2.57810640335083,-2.151489496231079,-2.6628012657165527
1761400393379099000,8.342098876953125,-7.462427616119385,-1.3373112678527832,0.7955483198165894
1761400393389173500,8.352173583984374,-7.43377161026001,0.03381809964776039,4.303203582763672
1761400393399257300,8.36225732421875,-3.614346742630005,-0.4821323752403259,7.581314563751221
1761400393409341700,8.372341796875,-1.0785878896713257,-0.7482628226280212,9.0005521774292
1761400393419398000,8.38239794921875,-1.5867571830749512,-0.4225766062736511,6.489932537078857
1761400393429503700,8.392503662109375,-4.647669315338135,1.5410429239273071,4.82977819442749
1761400393439585300,8.402585205078125,-3.4573769569396973,3.7135565280914307,1.3009493350982666
1761400393449666600,8.41266650390625,-1.894561767578125,3.402085781097412,-3.5627965927124023
1761400393459722000,8.422721923828124,1.8244565725326538,1.057114839553833,-7.6764092445373535
1761400393469828000,8.432828125,2.5975592136383057,-0.5621885061264038,-8.004639625549316
1761400393479910100,8.44291015625,2.874164342880249,-1.9735703468322754,-4.609062671661377
1761400393489990700,8.45299072265625,2.9089550971984863,-3.5119946002960205,-0.02042553387582302
1761400393500071700,8.46307177734375,1.0067617893218994,-4.728024482727051,3.0416088104248047
1761400393510152400,8.47315234375,-1.2345103025436401,-6.129530429840088,6.105438709259033
1761400393520230000,8.48322998046875,-3.1747114658355713,-6.8617072105407715,6.388927459716797
1761400393530315000,8.49331494140625,-0.3966144621372223,-6.693963527679443,3.945270299911499
1761400393540396000,8.50339599609375,4.012457370758057,-7.189713001251221,0.9201216697692871
1761400393550450200,8.5134501953125,5.046004772186279,-5.693785667419434,0.32269349694252014
1761400393560558800,8.523558837890626,4.213047027587891,-5.091494560241699,-2.214935779571533
1761400393570640100,8.53364013671875,0.6091746687889099,-4.658218860626221,-5.154491901397705
1761400393580720600,8.543720703125,-1.3157634735107422,-5.304802894592285,-5.511527061462402
1761400393600883000,8.563883056640625,-1.0761936902999878,-1.494804859161377,-0.49806877970695496
1761400393610964000,8.5739638671875,-1.4267197847366333,1.9077298641204834,2.3603835105895996
1761400393621044700,8.584044677734376,-1.5512930154800415,3.9822309017181396,3.2806549072265625
1761400393631125800,8.594125732421874,-1.981052279472351,4.6850786209106445,2.197054147720337
1761400393641207600,8.60420751953125,-1.49622642993927,4.102090358734131,-0.5156511664390564
1761400393651262200,8.61426220703125,0.4388122856616974,3.490671157836914,-3.2469863891601562
1761400393661390600,8.624390625,1.0182090997695923,4.592303276062012,-4.279485702514648
1761400393671450600,8.63445068359375,0.18248306214809418,6.156390190124512,-3.7392940521240234
1761400393681531400,8.644531494140624,-0.7835773229598999,6.9823150634765625,-2.6372880935668945
1761400393691613000,8.654613037109375,-1.412055253982544,6.730400085449219,-0.7455693483352661
1761400393701657600,8.66465771484375,-2.0311059951782227,5.045705318450928,1.4450503587722778
1761400393711774500,8.6747744140625,-2.998887300491333,3.990086793899536,3.4775779247283936
1761400393721852000,8.684851806640625,-3.1018378734588623,3.0103344917297363,4.6663737297058105
1761400393731936800,8.694936767578126,-1.1137527227401733,1.3375357389450073,3.388842821121216
1761400393741993200,8.7049931640625,0.4025999903678894,-0.13819032907485962,1.9672107696533203
1761400393752099800,8.715099853515625,0.7050175666809082,-1.6988357305526733,1.27191960811615
1761400393762180400,8.725180419921875,1.9226936101913452,-4.649838924407959,0.17589899897575378
1761400393772261400,8.735261474609375,2.8197710514068604,-5.633332252502441,-1.0529249906539917
1761400393782338300,8.74533837890625,1.2863596677780151,-5.291934013366699,-1.0108020305633545
1761400393792397800,8.755397705078124,-1.1088147163391113,-7.018527507781982,-0.7751228213310242
1761400393802504700,8.765504638671874,1.5705963373184204,-10.656816482543945,-1.6900070905685425
1761400393812586200,8.775586181640625,13.273828506469727,-11.466654777526855,-6.966378688812256
1761400393822666800,8.785666748046875,24.575807571411133,-10.910676002502441,-13.187487602233887
1761400393832748500,8.79574853515625,12.18184757232666,-9.750311851501465,-4.157830715179443
1761400393842824700,8.80582470703125,-9.005340576171875,-9.601272583007812,0.8574234843254089
1761400393852909800,8.815909912109374,-10.26970386505127,-14.35293960571289,-0.5016600489616394
1761400393862991000,8.8259912109375,7.9625163078308105,-20.168006896972656,-7.48726749420166
1761400393873072000,8.836072021484375,17.903167724609375,-21.111846923828125,-20.70363426208496
1761400393883153200,8.846153076171875,9.383774757385254,-21.7033634185791,-30.210186004638672
1761400393893222100,8.85622216796875,4.822221279144287,-22.608970642089844,-32.64942932128906
1761400393903302400,8.866302490234375,16.161235809326172,-29.126211166381836,-33.76901626586914
1761400393913382100,8.876382080078125,13.45795726776123,-34.65681838989258,-33.30543899536133
1761400393923455000,8.886455078125,12.491971969604492,-40.682647705078125,-27.858856201171875
1761400393933549300,8.89654931640625,12.526238441467285,-37.983036041259766,-22.93510627746582
1761400393943640000,8.90664013671875,14.519262313842773,-35.94676971435547,-20.91073226928711
1761400393953708300,8.916708251953125,13.029470443725586,-38.09870529174805,-21.429153442382812
1761400393963802000,8.926802001953124,10.206631660461426,-35.30242919921875,-20.79289436340332
1761400393973847800,8.936847900390624,9.540743827819824,-26.896461486816406,-15.603835105895996
1761400393983964000,8.9469638671875,10.067992210388184,-22.34284019470215,-11.604022026062012
1761400393994045400,8.95704541015625,7.391798496246338,-16.517597198486328,-6.899864673614502
1761400394004126500,8.96712646484375,3.5541176795959473,-11.905167579650879,-3.0388405323028564
1761400394014213400,8.97721337890625,0.5059247612953186,-9.64332103729248,-1.0857704877853394
1761400394024289000,8.9872890625,-1.259649395942688,-7.56784725189209,-0.4636521339416504
1761400394034344700,8.9973447265625,-1.170465350151062,-5.527688026428223,-2.511742115020752
1761400394044441000,9.007441162109375,1.931522250175476,-2.634145498275757,-7.716886043548584
1761400394054531800,9.01753173828125,8.422053337097168,2.2091000080108643,-13.599813461303711
1761400394064612900,9.02761279296875,2.1525368690490723,2.4711902141571045,-13.45556354522705
1761400394074684000,9.037683837890626,-2.106673002243042,-1.3845219612121582,-7.187094211578369
1761400394084765000,9.047764892578124,-2.188898801803589,-2.8521676063537598,0.834528923034668
1761400394094844000,9.057843994140624,-3.2637457847595215,-1.2571055889129639,4.799027442932129
1761400394104935700,9.067935791015625,-3.460893392562866,2.286088466644287,5.163095951080322
1761400394115017200,9.078017333984375,-1.1158475875854492,4.42665433883667,4.361861228942871
1761400394125099800,9.088099853515626,0.9640402793884277,3.7912182807922363,3.2691328525543213
1761400394135181000,9.09818115234375,2.314818859100342,2.745924949645996,1.6530466079711914
1761400394145261600,9.108261474609375,3.3419315814971924,2.4827871322631836,1.450212836265564
1761400394155343000,9.118343017578125,2.266860008239746,0.9314192533493042,3.3349733352661133
1761400394165422000,9.128422119140625,2.44747257232666,-1.8758569955825806,5.3412394523620605
1761400394175495400,9.138495361328125,5.339967727661133,-4.81705904006958,4.411540985107422
1761400394185583900,9.148583984375,2.0107553005218506,-6.7095255851745605,1.1511621475219727
1761400394195666200,9.158666259765624,-3.4065749645233154,-7.240066051483154,-2.0894646644592285
1761400394205723100,9.16872314453125,-6.972289562225342,-7.482553482055664,-4.864120006561279
1761400394215829500,9.17882958984375,-3.466804027557373,-7.200112819671631,-3.856011390686035
1761400394225908700,9.18890869140625,0.247126504778862,-6.069226264953613,-3.030311107635498
1761400394235985700,9.198985595703125,2.332775354385376,-4.392836570739746,-2.443507194519043
1761400394246073000,9.209072998046874,4.801945686340332,-3.6843771934509277,-1.4707880020141602
1761400394256154000,9.219154052734375,2.0300586223602295,-2.3231239318847656,1.0622773170471191
1761400394266235400,9.2292353515625,-1.8384475708007812,-1.7265934944152832,2.9600563049316406
1761400394276317400,9.2393173828125,-3.134758234024048,-0.975861668586731,3.576263904571533
1761400394286395100,9.24939501953125,-2.362403631210327,0.37880760431289673,3.2190041542053223
1761400394296466000,9.2594658203125,-1.2542624473571777,2.442908763885498,2.2233903408050537
1761400394306548700,9.269548828125,0.48130935430526733,4.027496337890625,0.5513397455215454
1761400394316628500,9.27962841796875,1.7768718004226685,5.101295471191406,-0.7459434866905212
1761400394326709500,9.28970947265625,2.5048587322235107,5.6355767250061035,-1.791162133216858
1761400394336789800,9.299789794921875,2.4786720275878906,5.242702960968018,-2.518026828765869
1761400394346883600,9.309883544921876,1.0161141157150269,3.5299510955810547,-2.30830979347229
1761400394356962600,9.319962646484376,-1.0277858972549438,2.4449288845062256,-0.7081599831581116
1761400394377104400,9.3401044921875,-3.792639970779419,1.6991350650787354,2.2533926963806152
1761400394387208200,9.350208251953125,-3.723881483078003,1.2839654684066772,2.927884340286255
1761400394397269800,9.360269775390625,-2.3416788578033447,0.6511480212211609,2.524386405944824
1761400394407371000,9.37037109375,0.26807576417922974,-0.717512309551239,1.2168530225753784
1761400394427510500,9.390510498046876,1.2107179164886475,-1.7329530715942383,-0.32942718267440796
1761400394437613600,9.400613525390625,0.24996961653232574,-2.1436336040496826,-0.6301987767219543
1761400394447694600,9.410694580078125,-0.25094226002693176,-1.7650504112243652,-1.8456302881240845
1761400394457774000,9.420774169921875,-0.6640169024467468,-1.994744062423706,-3.710937738418579
1761400394467856600,9.430856689453124,-1.3464391231536865,-3.3880198001861572,-5.148282051086426
1761400394477925400,9.44092529296875,-0.5933130979537964,-5.577666759490967,-4.3482441902160645
1761400394488007200,9.451007080078124,4.15760612487793,-7.062446117401123,-5.164218425750732
1761400394498095900,9.461095947265624,12.591181755065918,-7.582661151885986,-10.362403869628906
1761400394508181000,9.471180908203126,18.562768936157227,-8.737713813781738,-13.007024765014648
1761400394518262500,9.481262451171874,2.6401309967041016,-8.311022758483887,-1.7295862436294556
1761400394528320500,9.491320556640625,-13.450325965881348,-8.217498779296875,-0.035987842828035355
1761400394538424800,9.5014248046875,-8.67785930633545,-15.516073226928711,-0.007481880486011505
1761400394548480500,9.51148046875,20.865392684936523,-19.04939079284668,-7.450980186462402
1761400394558587000,9.5215869140625,29.04652976989746,-16.849943161010742,-17.297433853149414
1761400394568643000,9.53164306640625,13.070770263671875,-20.36470603942871,-26.46834945678711
1761400394578749200,9.541749267578124,4.835389614105225,-30.021642684936523,-27.730093002319336
1761400394588817400,9.5518173828125,13.614703178405762,-34.3575439453125,-28.35520362854004
1761400394598913800,9.561913818359375,10.539799690246582,-39.3781852722168,-32.93905258178711
1761400394608990700,9.57199072265625,13.352762222290039,-39.50762176513672,-31.00214385986328
1761400394619073300,9.5820732421875,13.26559829711914,-32.838871002197266,-23.23931884765625
1761400394629155300,9.5921552734375,14.973936080932617,-36.11997604370117,-19.483489990234375
1761400394639223300,9.602223388671876,13.939191818237305,-41.04499816894531,-19.424083709716797
1761400394649316600,9.612316650390625,10.991780281066895,-40.25086975097656,-19.969587326049805
1761400394659398400,9.6223984375,9.361104011535645,-35.264122009277344,-16.74152946472168
1761400394669478700,9.632478759765625,8.959476470947266,-24.122928619384766,-11.547983169555664
1761400394679558100,9.64255810546875,7.9497971534729,-16.383821487426758,-8.68481731414795
1761400394689627400,9.65262744140625,6.284480094909668,-12.986075401306152,-6.912583827972412
1761400394699688200,9.662688232421875,3.933149576187134,-8.30638313293457,-5.418976306915283
1761400394709778700,9.67277880859375,2.5462334156036377,-3.088071346282959,-5.220556735992432
1761400394719874300,9.682874267578125,2.4017584323883057,-0.503829836845398,-6.145242214202881
1761400394729965600,9.692965576171876,1.4777461290359497,1.137245774269104,-6.321889400482178
1761400394750127400,9.71312744140625,2.2361843585968018,-0.6342390179634094,-3.1762077808380127
1761400394760208600,9.723208740234375,1.035492181777954,-0.24839842319488525,0.3688566982746124
1761400394770289700,9.73328955078125,-2.397418975830078,0.6979846358299255,0.7713070511817932
1761400394780371000,9.743370849609375,-4.2631754875183105,0.8745570182800293,-0.7686883807182312
1761400394790452200,9.7534521484375,-5.683535575866699,3.2572364807128906,0.9894038438796997
1761400394800530200,9.7635302734375,-4.831648826599121,4.563722610473633,2.14453125
1761400394810614000,9.773614013671875,-0.16310499608516693,3.470844268798828,1.6397289037704468
1761400394820693500,9.783693603515625,3.3167922496795654,3.505784749984741,0.5833622217178345
1761400394830776600,9.793776611328125,4.671461582183838,1.3704559803009033,-0.3942950963973999
1761400394840845000,9.803844970703125,4.113462924957275,-1.7640777826309204,-0.6086509823799133
1761400394850925800,9.81392578125,2.525658369064331,-4.007968425750732,1.3758429288864136
1761400394861019400,9.824019287109374,0.7335235476493835,-5.593977451324463,4.251054763793945
1761400394871096600,9.8340966796875,3.479598045349121,-6.712967395782471,5.073163986206055
1761400394881182000,9.844181884765625,1.9104981422424316,-6.362590789794922,3.117774248123169
1761400394891250400,9.85425048828125,-1.7244986295700073,-4.504690647125244,0.9320178031921387
1761400394901344500,9.864344482421876,-3.589731454849243,-4.433687686920166,-1.2500725984573364
1761400394911412700,9.874412841796875,-3.353752851486206,-4.684255599975586,-3.3459715843200684
1761400394921506300,9.88450634765625,-0.3555389642715454,-4.313753128051758,-5.23335075378418
1761400394931583200,9.894583251953126,0.9437643885612488,-3.730390787124634,-5.080945014953613
1761400394941643500,9.9046435546875,1.2802245616912842,-3.2753427028656006,-3.1111903190612793
1761400394951749400,9.914749267578125,1.5711948871612549,-3.169623851776123,-1.2046575546264648
1761400394961831000,9.924830810546876,0.15068507194519043,-2.225036382675171,1.0426000356674194
1761400394971911700,9.93491162109375,-1.853486180305481,-0.8961796164512634,2.2631192207336426
1761400394981980400,9.94498046875,-1.6990602016448975,0.3869628608226776,2.1313631534576416
1761400394992062700,9.955062744140625,-0.23021745681762695,1.4992940425872803,1.311798095703125
1761400395002151000,9.96515087890625,0.7777414321899414,2.6612300872802734,-0.061052143573760986
1761400395012236500,9.975236572265626,2.2416460514068604,4.311882495880127,-1.0402058362960815
1761400395022317000,9.985317138671874,3.1547348499298096,5.383961200714111,-1.4290391206741333
1761400395032398600,9.995398681640625,2.31758713722229,5.0843119621276855,-1.5371522903442383
1761400395042479400,10.005479248046875,-0.6441150903701782,3.4760067462921143,-0.949151337146759
1761400395052560100,10.01556005859375,-3.699939489364624,2.250624418258667,0.4462193548679352
1761400395062639900,10.025639892578125,-4.584447383880615,1.6867151260375977,2.055347442626953
1761400395072729900,10.035729736328125,-3.06300687789917,1.3636474609375,2.472761392593384
1761400395082778600,10.045778564453125,-0.4655974209308624,1.099387526512146,1.963320255279541
1761400395092859100,10.055859130859375,0.8658031821250916,1.0402805805206299,0.6431424021720886
1761400395102953700,10.06595361328125,-0.10048165172338486,1.5974562168121338,-0.6569091081619263
1761400395113047300,10.07604736328125,-0.996362030506134,0.8203881978988647,-1.1554267406463623
1761400395123126500,10.08612646484375,-0.5178209543228149,-1.1837830543518066,-0.00553659163415432
1761400395143287600,10.10628759765625,-0.9214683771133423,-5.388076305389404,-0.3158101737499237
1761400395153372000,10.116371826171875,-0.43043258786201477,-7.6717705726623535,-1.6326210498809814
1761400395163452700,10.12645263671875,2.359111785888672,-8.84979248046875,-3.5994577407836914
1761400395173533400,10.136533447265625,4.805461883544922,-7.104868412017822,-6.065186500549316
1761400395183615200,10.146615234375,10.09477710723877,-6.057330131530762,-11.432013511657715
1761400395193691100,10.156691162109375,15.03820514678955,-6.075586318969727,-7.711947917938232
1761400395203777300,10.16677734375,5.820379257202148,-7.219864845275879,0.036586396396160126
1761400395213858000,10.176858154296875,-6.263455867767334,-7.221585750579834,1.605461835861206
1761400395223932200,10.18693212890625,-4.623353004455566,-11.903970718383789,-1.5117887258529663
1761400395234020400,10.197020263671876,12.051663398742676,-17.534685134887695,-11.55509090423584
1761400395244102400,10.207102294921874,23.644163131713867,-23.98563575744629,-24.7391357421875
1761400395254180900,10.217180908203124,8.263287544250488,-18.54488754272461,-23.13606834411621
1761400395264263400,10.227263427734375,3.3354222774505615,-19.789798736572266,-22.98381233215332
1761400395274344700,10.2373447265625,12.699519157409668,-28.049793243408203,-26.729616165161133
1761400395284425700,10.24742578125,12.176984786987305,-30.215349197387695,-28.913127899169922
1761400395294486800,10.25748681640625,9.459416389465332,-30.23023796081543,-25.124378204345703
1761400395304587500,10.26758740234375,13.340866088867188,-28.75159454345703,-21.194969177246094
1761400395314669000,10.2776689453125,13.482348442077637,-27.084930419921875,-17.709985733032227
1761400395324748000,10.287748046875,14.31583023071289,-30.084117889404297,-15.748235702514648
1761400395334831000,10.2978310546875,14.421099662780762,-33.24498748779297,-17.194557189941406
1761400395344912400,10.307912353515626,12.562750816345215,-30.639646530151367,-16.819116592407227
1761400395354980400,10.31798046875,11.705925941467285,-26.732982635498047,-14.292336463928223
1761400395365074700,10.32807470703125,8.498517990112305,-26.470443725585938,-11.388469696044922
1761400395375143000,10.338142822265626,6.856395244598389,-22.03436279296875,-7.579070091247559
1761400395385223700,10.3482236328125,4.88798713684082,-16.93920135498047,-6.522927761077881
1761400395395318300,10.358318359375,2.570549726486206,-13.07091999053955,-7.347580432891846
1761400395405386000,10.368385986328125,1.9876363277435303,-7.684564590454102,-9.31381893157959
1761400395415479000,10.37847900390625,1.9930981397628784,-1.9007717370986938,-12.373309135437012
1761400395425559000,10.38855908203125,2.4432079792022705,-0.4348468780517578,-14.94221305847168
1761400395435630000,10.398630126953124,1.7752257585525513,-2.135104179382324,-13.450250625610352
1761400395445723600,10.4087236328125,0.9725696444511414,-2.976217269897461,-8.03000259399414
1761400395455804200,10.41880419921875,-0.015637129545211792,-3.7618894577026367,-2.9386582374572754
1761400395465866000,10.428865966796875,-2.8399720191955566,-1.979630708694458,1.1394903659820557
1761400395475949600,10.438949462890625,-4.470348834991455,0.20058920979499817,4.716577529907227
1761400395486035200,10.44903515625,-3.1197943687438965,-0.08155249804258347,7.3972601890563965
1761400395496121300,10.459121337890625,-1.7257704734802246,-1.812709927558899,8.5148286819458
1761400395506195200,10.4691953125,-1.0295066833496094,-3.4123358726501465,5.905672550201416
1761400395516289000,10.4792890625,-0.9354594945907593,-1.6450409889221191,1.2268787622451782
1761400395526372400,10.489372314453124,-0.27323827147483826,2.9402294158935547,-3.5773861408233643
1761400395536440300,10.4994404296875,0.4422539472579956,2.653373956680298,-7.586476802825928
1761400395546534400,10.509534423828125,1.9325697422027588,-0.9432406425476074,-9.734898567199707
1761400395556615000,10.519614990234375,2.0696377754211426,-4.407052040100098,-7.918373107910156
1761400395566694700,10.529694580078125,-0.01885433867573738,-5.532176971435547,-3.3464205265045166
1761400395576781800,10.53978173828125,-2.264091730117798,-4.70879602432251,1.5978304147720337
1761400395586854700,10.549854736328125,-1.7056442499160767,-3.2368857860565186,5.132046222686768
1761400395596927200,10.55992724609375,2.057142972946167,-2.8802247047424316,8.111181259155273
1761400395606989000,10.569989013671876,3.3663225173950195,-3.0195372104644775,10.96664047241211
1761400395617101600,10.5801015625,0.1289127916097641,-2.8505215644836426,8.4985933303833
1761400395627183000,10.59018310546875,-2.853888511657715,-1.6456395387649536,4.746429920196533
1761400395637262300,10.600262451171876,-4.0423102378845215,-0.5037549734115601,2.8035354614257812
1761400395647332400,10.610332275390626,-1.2455086708068848,-0.12666822969913483,1.3180828094482422
1761400395657426400,10.620426513671875,2.576460361480713,0.050128597766160965,-0.518943190574646
1761400395667507700,10.6305078125,3.3650505542755127,0.20694881677627563,-2.093355178833008
1761400395677571800,10.64057177734375,1.83193838596344,-0.7594108581542969,-1.3020715713500977
1761400395687669500,10.65066943359375,0.4594622552394867,-1.3417255878448486,0.5561281442642212
1761400395697736400,10.660736328125,-0.5970540642738342,-0.7707085013389587,2.0753986835479736
1761400395707831800,10.670831787109375,-1.0491840839385986,0.10916063189506531,2.73073673248291
1761400395717918000,10.68091796875,-1.0488847494125366,1.0004022121429443,2.2991819381713867
1761400395727993600,10.69099365234375,-0.9944915175437927,1.563862681388855,0.6313958764076233
1761400395738062600,10.7010625,-0.6129156351089478,1.9189527034759521,-1.4932336807250977
1761400395748156000,10.711156005859374,0.3081038296222687,2.181940793991089,-3.2573113441467285
1761400395758225700,10.7212255859375,1.0327987670898438,2.025644302368164,-4.00340461730957
1761400395768318200,10.731318115234375,1.3896844387054443,1.416993260383606,-3.9626283645629883
1761400395778368800,10.74136865234375,1.2770822048187256,0.4843021035194397,-3.3254714012145996
1761400395788480500,10.75148046875,0.6735936999320984,-0.08723872154951096,-2.970830202102661
1761400395798524000,10.76152392578125,0.25924715399742126,-0.45661914348602295,-2.103829860687256
1761400395808643000,10.77164306640625,0.3949684500694275,-0.8839841485023499,-0.2876783013343811
1761400395818698500,10.781698486328125,0.755669891834259,-1.2782793045043945,-0.3321206569671631
1761400395828780000,10.791780029296875,0.8846575021743774,-1.0018237829208374,-0.7032219171524048
1761400395838862600,10.801862548828124,0.5019593238830566,-1.2704232931137085,-0.5337573289871216
1761400395848941000,10.811941162109376,-0.1801636815071106,-1.8773534297943115,-0.7396587133407593
1761400395859022800,10.82202294921875,0.1472434103488922,-3.541548013687134,-2.0003554821014404
1761400395869103900,10.832103759765625,0.36085107922554016,-5.438952922821045,-3.2008233070373535
1761400395879174400,10.84217431640625,4.755108833312988,-7.980996608734131,-5.374907970428467
1761400395889256400,10.85225634765625,16.075942993164062,-12.66091251373291,-8.508394241333008
1761400395899336200,10.862336181640625,7.067009925842285,-13.657349586486816,-6.035109043121338
1761400395909417000,10.8724169921875,-5.9846062660217285,-12.868011474609375,-4.300136089324951
1761400395919518700,10.882518798828125,0.7784148454666138,-14.307374954223633,-5.520730018615723
1761400395929600000,10.89260009765625,15.981969833374023,-17.14906883239746,-17.30109977722168
1761400395939696600,10.902696533203125,11.116652488708496,-23.387609481811523,-28.28569793701172
1761400395949772500,10.9127724609375,8.811185836791992,-22.482900619506836,-21.001113891601562
1761400395959855000,10.922855224609375,3.1756842136383057,-21.109825134277344,-11.856386184692383
1761400395969941000,10.93294091796875,10.469769477844238,-28.470949172973633,-15.661894798278809
1761400395980021000,10.94302099609375,14.864476203918457,-28.491748809814453,-20.71433448791504
1761400395990077000,10.953076904296875,11.73929500579834,-26.75400733947754,-22.046632766723633
1761400396000184300,10.963184326171875,14.024785041809082,-26.98721694946289,-24.447566986083984
1761400396010265000,10.97326513671875,15.395464897155762,-29.161226272583008,-24.9571590423584
1761400396020341500,10.983341552734375,11.536236763000488,-29.59046173095703,-20.587814331054688
1761400396030427000,10.993427001953124,9.682825088500977,-26.855012893676758,-16.850915908813477
1761400396040508000,11.0035078125,8.145448684692383,-23.693918228149414,-14.406510353088379
1761400396050588700,11.013588623046875,4.233247756958008,-21.28370475769043,-12.623503684997559
1761400396060670200,11.023670166015625,1.6320973634719849,-19.818452835083008,-11.407024383544922
1761400396070751000,11.0337509765625,1.8240076303482056,-17.73377799987793,-11.123536109924316
1761400396080812000,11.04381201171875,2.7352259159088135,-15.60361099243164,-11.878458023071289
1761400396090913300,11.053913330078124,3.182343006134033,-14.235848426818848,-13.704934120178223
1761400396100994300,11.063994384765625,3.4310407638549805,-12.102240562438965,-14.664410591125488
1761400396111075300,11.074075439453125,4.299238204956055,-9.592144966125488,-12.628366470336914
1761400396121156400,11.08415625,3.813065528869629,-7.430105686187744,-7.528417587280273
1761400396131237600,11.094237548828126,-0.3050362467765808,-6.314407825469971,-1.741332769393921
1761400396141318700,11.104318603515624,-2.1017351150512695,-5.495515823364258,3.1815948486328125
1761400396151392000,11.11439208984375,-1.3507038354873657,-3.6192100048065186,4.429721832275391
1761400396161456400,11.124456298828125,0.2547580301761627,-2.144456624984741,1.8457798957824707
1761400396171562000,11.13456201171875,0.2968810200691223,-2.2405238151550293,-1.642796516418457
1761400396191724000,11.15472412109375,-0.7659949064254761,-1.6412252187728882,-2.960505247116089
1761400396201805000,11.16480517578125,-0.27884969115257263,-1.4537293910980225,-3.7741596698760986
1761400396211882500,11.174882568359376,0.5755810737609863,0.04736030101776123,-4.9304094314575195
1761400396221942800,11.18494287109375,0.7932289242744446,1.48081374168396,-4.817283630371094
1761400396232063000,11.19506298828125,0.45684361457824707,2.5165305137634277,-3.4792988300323486
1761400396242112000,11.205112060546876,0.8273463249206543,2.8401966094970703,-0.9725696444511414
1761400396252210700,11.215210693359374,1.609053134918213,2.0266168117523193,1.4178911447525024
1761400396262292500,11.22529248046875,1.6603789329528809,1.198746919631958,4.346822738647461
1761400396272373000,11.235373046875,0.5377227663993835,0.4497358202934265,7.99184513092041
1761400396282450200,11.2454501953125,-1.6011972427368164,-0.6013187170028687,10.945466995239258
1761400396292534800,11.25553466796875,-0.40364745259284973,-2.0107553005218506,10.992977142333984
1761400396302616000,11.265615966796876,2.380434989929199,-3.012728691101074,8.651073455810547
1761400396312697000,11.275697021484374,1.8230350017547607,-3.879504680633545,4.718896865844727
1761400396322778400,11.2857783203125,-1.5057283639907837,-3.8080525398254395,0.9481038451194763
1761400396332859400,11.295859375,-4.012981414794922,-3.171943187713623,-2.416647434234619
1761400396342936600,11.3059365234375,-3.364825963973999,-2.6493337154388428,-4.926743507385254
1761400396353021700,11.316021728515626,-1.4098106622695923,-1.8029835224151611,-5.179406642913818
1761400396363067400,11.3260673828125,-1.114800214767456,-1.0639982223510742,-4.026523590087891
1761400396373184500,11.3361845703125,-1.8405425548553467,-0.49230772256851196,-1.6103999614715576
1761400396383264800,11.3462646484375,-2.1645827293395996,-0.3363853394985199,0.5847089290618896
1761400396393305600,11.3563056640625,-2.1059248447418213,-0.11417349427938461,1.5500959157943726
1761400396403423500,11.366423583984375,-2.0353708267211914,-0.12247838079929352,1.1927613019943237
1761400396413508000,11.376508056640626,-2.043750524520874,-0.0727238729596138,0.1306336373090744
1761400396423567600,11.386567626953125,-1.8232593536376953,0.23575404286384583,-0.8054243922233582
1761400396433670100,11.396670166015625,-1.367463231086731,0.20178630948066711,-1.4050971269607544
1761400396443726300,11.406726318359375,-0.7389853000640869,0.14342764019966125,-1.235183596611023
1761400396453832400,11.41683251953125,-0.08282441645860672,0.15277999639511108,-0.5960065722465515
1761400396463913500,11.42691357421875,0.6088753938674927,-0.27406126260757446,0.07384616136550903
1761400396473990700,11.43699072265625,1.1150245666503906,-0.5595698356628418,0.8785971999168396
1761400396484076500,11.44707666015625,1.2801496982574463,-1.8469021320343018,1.5054291486740112
1761400396494132200,11.45713232421875,1.1641805171966553,-2.219724178314209,1.330802083015442
1761400396504238800,11.46723876953125,1.4910639524459839,-2.5567080974578857,0.08978256583213806
1761400396514319000,11.477319091796875,2.3221511840820312,-3.3016040325164795,-1.3871406316757202
1761400396524399900,11.48739990234375,4.052186489105225,-4.086228847503662,-2.3582887649536133
1761400396534481200,11.497481201171874,4.794014930725098,-4.413261890411377,-2.8358571529388428
1761400396544563200,11.507563232421875,8.527847290039062,-5.141623020172119,-4.461145877838135
1761400396554644200,11.517644287109375,16.592790603637695,-5.690568447113037,-7.168389320373535
1761400396564724700,11.527724853515625,11.095703125,-5.76329231262207,-5.831078052520752
1761400396574782200,11.5377822265625,-4.189329147338867,-7.44993257522583,-0.7122001647949219
1761400396584886800,11.54788671875,-5.648295879364014,-13.377153396606445,-1.179518461227417
1761400396594968300,11.55796826171875,5.986476898193359,-20.341886520385742,-6.407258033752441
1761400396605049900,11.5680498046875,13.998148918151855,-22.114118576049805,-16.504653930664062
1761400396615129900,11.5781298828125,8.21300983428955,-19.833417892456055,-18.567333221435547
1761400396625211100,11.588211181640625,9.374945640563965,-22.745590209960938,-22.162527084350586
1761400396645373200,11.608373291015624,9.989432334899902,-24.821361541748047,-16.95094871520996
1761400396655454500,11.618454345703125,10.298210144042969,-26.906038284301758,-10.294918060302734
1761400396665535700,11.62853564453125,7.746065616607666,-24.157495498657227,-9.282469749450684
1761400396675616500,11.638616455078125,9.755024909973145,-24.921993255615234,-9.9139404296875
1761400396685697800,11.64869775390625,14.289793014526367,-25.936311721801758,-11.42752456665039
1761400396695778800,11.65877880859375,11.11538028717041,-25.753753662109375,-14.278794288635254
1761400396726022400,11.6890224609375,8.901342391967773,-22.03204345703125,-19.45468521118164
1761400396736103400,11.699103515625,9.622072219848633,-19.013402938842773,-16.93074607849121
1761400396746184400,11.709184326171876,8.20455551147461,-16.283340454101562,-13.28602409362793
1761400396756265500,11.719265380859374,4.9024271965026855,-15.583784103393555,-8.80235767364502
1761400396766360300,11.7293603515625,2.185307502746582,-15.29842472076416,-6.083217620849609
1761400396776427800,11.739427734375,-0.24001872539520264,-13.93814468383789,-5.6297407150268555
1761400396786483700,11.749483642578125,-1.894561767578125,-12.996325492858887,-7.448436260223389
1761400396796590300,11.75959033203125,-0.996362030506134,-13.091344833374023,-9.006836891174316
1761400396806670800,11.7696708984375,2.0324528217315674,-12.499303817749023,-9.019331932067871
1761400396816726300,11.779726318359375,1.0702829360961914,-8.823007583618164,-7.366060733795166
1761400396826806800,11.789806884765625,-0.885630190372467,-5.675904273986816,-4.845489978790283
1761400396836914200,11.7999140625,-2.070535659790039,-4.360065937042236,-2.6840498447418213
1761400396846995200,11.8099951171875,-0.9762357473373413,-1.8659809827804565,0.29201778769493103
1761400396857076200,11.820076171875,1.3048399686813354,-0.8322095274925232,4.869207859039307
1761400396867157200,11.8301572265625,3.515211820602417,-1.0283844470977783,8.917503356933594
1761400396877213400,11.84021337890625,4.015151023864746,-1.1504887342453003,7.1740007400512695
1761400396887296300,11.850296142578125,2.484956979751587,-2.18770170211792,-0.4577414393424988
1761400396897376500,11.86037646484375,1.4431798458099365,-0.3511994481086731,-4.212074279785156
1761400396907482400,11.870482421875,1.9643676280975342,1.0564415454864502,-6.0440874099731445
1761400396917538000,11.8805380859375,1.230245590209961,2.187776565551758,-5.119401931762695
1761400396927622000,11.890621826171875,0.491784006357193,1.666738510131836,-2.773308515548706
1761400396937700600,11.90070068359375,1.6675615310668945,0.19729718565940857,0.8355764150619507
1761400396947782000,11.910781982421875,0.6866121292114258,0.2281225323677063,4.708646774291992
1761400396957874200,11.920874267578125,-0.0008230068488046527,-0.7964461445808411,6.291812419891357
1761400396967944000,11.93094384765625,-0.6462100148200989,-2.4163479804992676,6.854524612426758
1761400396978012400,11.941012451171876,-1.2808231115341187,-3.9139959812164307,6.147561550140381
1761400396988121300,11.951121337890624,-0.7840262651443481,-4.055253982543945,4.126706123352051
1761400396998175200,11.96117529296875,-0.02431611157953739,-3.0185647010803223,2.1599440574645996
1761400397008292600,11.971292724609375,-0.3346644937992096,-1.8389713764190674,0.03651157766580582
1761400397018374400,11.98137451171875,-0.2802712321281433,-1.3436708450317383,-2.2941689491271973
1761400397028455000,11.991454833984376,1.0785130262374878,-2.0340240001678467,-4.937666893005371
1761400397038532000,12.001531982421875,1.4887444972991943,-3.2061352729797363,-6.50946044921875
1761400397048617000,12.011616943359375,-0.06651391834020615,-2.0138227939605713,-5.636998176574707
1761400397058698200,12.0216982421875,-2.05123233795166,0.46731823682785034,-2.4525604248046875
1761400397068779300,12.031779296875,-2.7805659770965576,1.9662381410598755,0.645237386226654
1761400397078860500,12.041860595703126,-2.7557260990142822,2.4432079792022705,2.427645683288574
1761400397088941600,12.051941650390624,-2.4868273735046387,2.638709545135498,2.6540474891662598
1761400397099023000,12.062023193359375,-2.1252281665802,2.5975592136383057,1.3145663738250732
1761400397109100000,12.07210009765625,-2.0935049057006836,2.812438726425171,-0.5605424642562866
1761400397119184600,12.0821845703125,-2.2557120323181152,3.2044146060943604,-1.5817443132400513
1761400397129241600,12.09224169921875,-2.0102314949035645,3.232546329498291,-1.5857096910476685
1761400397139347000,12.102346923828126,-1.0259153842926025,1.8889503479003906,-1.3504793643951416
1761400397149428200,12.11242822265625,-0.042272623628377914,0.08641571551561356,-1.2195464372634888
1761400397159509800,12.122509765625,0.11305121332406998,-0.5695955753326416,-0.4191349446773529
1761400397169583000,12.1325830078125,-0.3506757318973541,-1.413551688194275,1.1148749589920044
1761400397179671300,12.14267138671875,-0.7557447552680969,-2.94696307182312,2.4699931144714355
1761400397189752800,12.1527529296875,-0.716090738773346,-3.9583635330200195,3.383007049560547
1761400397199818200,12.162818359375,-0.5307645797729492,-4.202272891998291,3.25184965133667
1761400397209915600,12.17291552734375,-0.5010614991188049,-3.9835026264190674,1.9016695022583008
1761400397219995600,12.18299560546875,-0.19879356026649475,-4.818779945373535,-0.2256535142660141
1761400397240154000,12.203154052734375,4.654327869415283,-6.420725345611572,-5.086406707763672
1761400397250239000,12.213239013671876,18.001628875732422,-7.476044654846191,-8.397811889648438
1761400397260320000,12.223320068359374,9.46338176727295,-8.337284088134766,-5.5062150955200195
1761400397270401300,12.2334013671875,-0.8107365369796753,-12.15640926361084,-4.790199279785156
1761400397280482300,12.243482421875,5.4881086349487305,-22.874950408935547,-5.968296051025391
1761400397290539500,12.25353955078125,11.877409934997559,-21.932832717895508,-10.181417465209961
1761400397300640800,12.263640869140625,5.004479885101318,-19.87628936767578,-18.043750762939453
1761400397310729000,12.27372900390625,10.336292266845703,-27.26591682434082,-32.57453536987305
1761400397320807200,12.28380712890625,10.742857933044434,-35.65707015991211,-36.45875549316406
1761400397330888200,12.29388818359375,8.78312873840332,-33.17413330078125,-27.86229705810547
1761400397340968700,12.30396875,11.69223403930664,-25.499969482421875,-22.699575424194336
1761400397351048400,12.31404833984375,12.491522789001465,-32.24540710449219,-15.95009708404541
1761400397361127200,12.324127197265625,10.665719985961914,-41.15685272216797,-13.155914306640625
1761400397371199700,12.33419970703125,8.7175874710083,-43.60065841674805,-20.328493118286133
1761400397381276000,12.34427587890625,8.683694839477539,-42.30397415161133,-24.1948299407959
1761400397391362000,12.354362060546874,13.893926620483398,-32.0804328918457,-24.87725257873535
1761400397401455900,12.364455810546875,13.003059387207031,-21.6471004486084,-24.64239501953125
1761400397411537000,12.374536865234376,10.392780303955078,-14.840160369873047,-19.695451736450195
1761400397421617700,12.38461767578125,9.501090049743652,-11.656096458435059,-12.9741792678833
1761400397431694800,12.39469482421875,5.159280300140381,-10.170568466186523,-5.571083068847656
1761400397441774600,12.404774658203126,3.0172178745269775,-7.828665256500244,0.7885153889656067
1761400397461942300,12.4249423828125,3.3126773834228516,-4.78428840637207,2.1256022453308105
1761400397472023300,12.435023193359376,2.120738983154297,-3.3857004642486572,-1.309403896331787
1761400397482104300,12.445104248046874,-1.84735107421875,-1.1470470428466797,-3.749993324279785
1761400397502241500,12.465241455078125,-5.285799026489258,-0.46649524569511414,-2.822240114212036
1761400397512322000,12.475322021484375,-0.5672761797904968,-0.8063222169876099,0.13272856175899506
1761400397522429400,12.485429443359376,2.819322109222412,0.6226420998573303,2.0866215229034424
1761400397532509700,12.495509765625,3.2749686241149902,2.866607666015625,2.7540054321289062
1761400397542591000,12.505591064453125,1.821463704109192,3.169698476791382,2.159644842147827
1761400397552671700,12.515671630859375,-1.6011223793029785,2.5626935958862305,2.0072388648986816
1761400397562751500,12.52575146484375,-4.7346086502075195,1.5352070331573486,3.5975873470306396
1761400397572821500,12.535821533203125,-3.558457136154175,0.12943652272224426,5.759925365447998
1761400397582915000,12.5459150390625,0.6433668732643127,-1.360131025314331,5.912705421447754
1761400397592984000,12.555984130859375,2.6262147426605225,-1.9879355430603027,5.300837516784668
1761400397603051800,12.5660517578125,2.033724784851074,-1.7731307744979858,4.524891376495361
1761400397613159200,12.5761591796875,0.9811738133430481,-2.6518776416778564,3.4676270484924316
1761400397623238000,12.58623779296875,0.805349588394165,-5.173495769500732,1.2773065567016602
1761400397633308200,12.59630810546875,1.255309820175171,-6.710498332977295,-1.6376339197158813
1761400397643389200,12.60638916015625,0.7449707984924316,-5.9607391357421875,-3.071611166000366
1761400397653483000,12.61648291015625,0.08043020963668823,-4.399271011352539,-2.699387550354004
1761400397663552000,12.626552001953126,-0.449810653924942,-3.105429172515869,-2.2392518520355225
1761400397673644800,12.636644775390625,-0.39624038338661194,-1.9206734895706177,-1.552190899848938
1761400397683724300,12.646724365234375,0.1355716735124588,-0.6400748491287231,-0.671648383140564
1761400397693808600,12.65680859375,1.0539724826812744,0.09846154600381851,-0.24338556826114655
1761400397703863000,12.666863037109374,1.3098528385162354,0.4696376323699951,-0.010250176303088665
1761400397713970200,12.67697021484375,0.8984990119934082,1.2577788829803467,0.13781623542308807
1761400397724050400,12.687050537109375,0.7083844542503357,1.7834558486938477,-0.37334582209587097
1761400397734131700,12.697131591796875,0.6287024021148682,2.1303157806396484,-0.8770260214805603
1761400397744212700,12.707212646484376,0.5725134611129761,2.494234323501587,-1.0386346578598022
1761400397754290000,12.7172900390625,0.06928221136331558,2.8820202350616455,-1.0388591289520264
1761400397764375600,12.72737548828125,-1.40449857711792,3.062483310699463,-1.2381763458251953
1761400397774430700,12.7374306640625,-2.549001693725586,2.718466281890869,-1.4538789987564087
1761400397784537000,12.747537109375,-2.4955062866210938,1.657610535621643,-1.372625708580017
1761400397794592800,12.7575927734375,-1.9055601358413696,0.8961796164512634,-0.7223007082939148
1761400397804665300,12.767665283203126,-1.4612860679626465,0.2867056429386139,-0.035239655524492264
1761400397814780200,12.7777802734375,-1.486948847770691,0.2676268517971039,0.326284795999527
1761400397824861400,12.787861328125,-1.3640216588974,0.9267057180404663,1.2772318124771118
1761400397834942500,12.7979423828125,-1.4814871549606323,0.5122095346450806,0.7990648150444031
1761400397844999000,12.8079990234375,-1.2437130212783813,-0.6839935183525085,0.2463783174753189
1761400397855104500,12.8181044921875,-0.8035539388656616,-2.167799949645996,-0.3994576036930084
1761400397865185800,12.828185791015626,-0.24907179176807404,-4.483067989349365,-0.6263830065727234
1761400397875267000,12.83826708984375,0.002394201699644327,-6.555324077606201,-0.7327753305435181
1761400397885348600,12.8483486328125,0.07534253597259521,-7.236624240875244,-0.6066308617591858
1761400397895429600,12.8584296875,3.2013468742370605,-6.326902389526367,-2.1024832725524902
1761400397905510100,12.86851025390625,7.800533771514893,-4.916268825531006,-4.4048075675964355
1761400397915591200,12.878591064453126,3.903446674346924,-4.393808841705322,-4.710068225860596
1761400397925672400,12.88867236328125,-0.6834697723388672,-5.970765113830566,-5.714211463928223
1761400397935753500,12.89875341796875,4.419546604156494,-11.653627395629883,-8.504279136657715
1761400397945835300,12.908835205078125,7.845050811767578,-17.296611785888672,-11.4803466796875
1761400397955890200,12.91889013671875,6.200982570648193,-20.243274688720703,-10.205209732055664
1761400397965962200,12.928962158203126,9.103129386901855,-19.848081588745117,-11.817330360412598
1761400397976078000,12.939078125,19.21234703063965,-21.420997619628906,-18.469993591308594
1761400397986158800,12.949158935546874,7.297152519226074,-21.797710418701172,-22.33820152282715
1761400397996215000,12.959215087890625,18.68502426147461,-29.629741668701172,-31.961994171142578
1761400398006321200,12.969321044921875,19.50526237487793,-34.617610931396484,-28.847211837768555
1761400398016384300,12.97938427734375,5.439401626586914,-33.04671859741211,-21.713987350463867
1761400398026483700,12.989483642578126,16.882413864135742,-31.193754196166992,-17.949329376220703
1761400398036564200,12.999564208984374,17.43756866455078,-28.385953903198242,-16.921545028686523
1761400398046645500,13.0096455078125,14.23307991027832,-29.54609489440918,-18.24755859375
1761400398056726800,13.019726806640625,16.141258239746094,-32.233360290527344,-22.268095016479492
1761400398066807600,13.0298076171875,14.8421049118042,-34.539649963378906,-26.561798095703125
1761400398076889300,13.039889404296876,10.597036361694336,-31.18387794494629,-25.680131912231445
1761400398086970600,13.049970703125,5.134739875793457,-27.998767852783203,-20.03961753845215
1761400398097032200,13.0600322265625,3.2886605262756348,-24.70673942565918,-14.228666305541992
1761400398107132000,13.0701318359375,3.008090019226074,-16.554931640625,-9.143606185913086
1761400398117213700,13.080213623046875,4.688819408416748,-8.112303733825684,-6.114790916442871
1761400398127271000,13.09027099609375,7.015085697174072,-1.8748843669891357,-4.403385639190674
1761400398137376000,13.1003759765625,8.269572257995605,3.083881378173828,-2.355071544647217
1761400398147477200,13.110477294921875,6.543577671051025,3.835137128829956,-0.7716811299324036
