time,seconds_elapsed,z,y,x
1761401396376251600,0.097251708984375,0.008081912994384766,0.021859169006347656,0.062352895736694336
1761401396396416800,0.117416748046875,0.04732853174209595,-0.03401374816894531,0.06693387031555176
1761401396416578600,0.13757861328125,-0.00016641616821289062,0.02476787567138672,0.1116180419921875
1761401396436741400,0.157741455078125,0.005020260810852051,0.021686553955078125,0.17107748985290527
1761401396456903000,0.17790283203125,0.05201864242553711,-0.031273841857910156,0.1648705005645752
1761401396477054000,0.198053955078125,0.039305269718170166,-0.004970550537109375,0.0786736011505127
1761401396497239300,0.2182392578125,0.013988256454467773,0.07221126556396484,0.022024869918823242
1761401396517412400,0.238412353515625,0.00589442253112793,0.03383922576904297,0.02354574203491211
1761401396537574000,0.258573974609375,-0.046063899993896484,-0.006888389587402344,-0.051091909408569336
1761401396557735200,0.278735107421875,-0.11441308259963989,0.010370254516601562,-0.08461666107177734
1761401396577875000,0.298875,-0.14391344785690308,0.1315469741821289,-0.11276388168334961
1761401396598037000,0.319037109375,-0.028185486793518066,0.19386959075927734,-0.029996395111083984
1761401396618225000,0.339224853515625,0.053069233894348145,0.08155441284179688,0.02320265769958496
1761401396638360800,0.35936083984375,0.05604308843612671,0.022088050842285156,0.035343170166015625
1761401396658545400,0.37954541015625,0.051610708236694336,-0.042059898376464844,0.08783245086669922
1761401396678708000,0.3997080078125,0.0726933479309082,-0.03114795684814453,0.1698155403137207
1761401396698849800,0.419849853515625,0.1366734504699707,0.028730392456054688,0.2677290439605713
1761401396719031300,0.44003125,0.08502531051635742,-0.031110763549804688,0.2094109058380127
1761401396739193300,0.460193359375,0.05306953191757202,-0.07114028930664062,0.1316971778869629
1761401396759333400,0.48033349609375,0.025104105472564697,0.028961181640625,0.07568144798278809
1761401396779495000,0.500494873046875,0.02415865659713745,0.08719062805175781,0.0581662654876709
1761401396799679500,0.520679443359375,0.03735804557800293,0.04363536834716797,0.0040552616119384766
1761401396819820000,0.540820068359375,0.03929418325424194,0.08530426025390625,-0.05972146987915039
1761401396839981000,0.56098095703125,0.08189338445663452,0.06475448608398438,-0.032346248626708984
1761401396860147200,0.581147216796875,0.07112127542495728,0.06610107421875,-0.015475034713745117
1761401396880326700,0.60132666015625,0.05017000436782837,0.03886222839355469,-0.11768698692321777
1761401396900489500,0.621489501953125,0.01751762628555298,0.11932945251464844,-0.17670965194702148
1761401396920650500,0.641650390625,0.00908130407333374,0.09891033172607422,-0.058756113052368164
1761401396940794000,0.661794189453125,0.018918514251708984,0.024120330810546875,-0.01809859275817871
1761401396960951300,0.681951416015625,-0.018835842609405518,0.10925865173339844,-0.14457321166992188
1761401396981110300,0.7021103515625,-0.0205538272857666,0.17384624481201172,-0.22057700157165527
1761401397001299000,0.722298828125,0.009436428546905518,0.1411418914794922,-0.19837450981140137
1761401397021448200,0.7424482421875,-0.03910040855407715,0.07805252075195312,-0.22759079933166504
1761401397041622000,0.7626220703125,-0.1208871603012085,0.07559013366699219,-0.27109861373901367
1761401397061784000,0.7827841796875,-0.14741504192352295,0.12943649291992188,-0.16777491569519043
1761401397081936600,0.8029365234375,-0.1599940061569214,0.1151571273803711,-0.0730140209197998
1761401397102108400,0.8231083984375,-0.16912156343460083,0.0563812255859375,-0.07621169090270996
1761401397122270200,0.843270263671875,-0.17398208379745483,0.09885883331298828,-0.009164094924926758
1761401397142432300,0.863432373046875,-0.23561537265777588,0.030683517456054688,0.04667806625366211
1761401397162593800,0.88359375,-0.16663753986358643,-0.048035621643066406,0.06422567367553711
1761401397182756400,0.90375634765625,0.059714555740356445,0.05995941162109375,0.05886054039001465
1761401397202937000,0.92393701171875,0.12814044952392578,0.08563041687011719,0.011428117752075195
1761401397223058000,0.944057861328125,0.05662256479263306,0.022844314575195312,-0.03165483474731445
1761401397243243000,0.964242919921875,-0.01960885524749756,0.08103656768798828,-0.15324974060058594
1761401397263400400,0.984400390625,0.018918335437774658,0.09001541137695312,-0.3228766918182373
1761401397283566600,1.004566650390625,0.1914852261543274,0.06351184844970703,-0.3183748722076416
1761401397303727000,1.02472705078125,0.22265762090682983,0.15256214141845703,-0.1986079216003418
1761401397323905500,1.044905517578125,0.1397993564605713,0.17757320404052734,-0.15003728866577148
1761401397344029000,1.06502880859375,0.04020935297012329,0.03515148162841797,-0.09962868690490723
1761401397364213500,1.085213623046875,-0.05185431241989136,0.013294219970703125,0.05225014686584473
1761401397384375600,1.10537548828125,-0.05284833908081055,0.00615692138671875,0.15019822120666504
1761401397404515000,1.12551513671875,-0.0294339656829834,-0.02911663055419922,0.1412034034729004
1761401397424700400,1.145700439453125,-0.039453744888305664,-0.006709098815917969,0.1363065242767334
1761401397444842500,1.165842529296875,-0.07491803169250488,0.0019388198852539062,0.15724658966064453
1761401397465010400,1.186010498046875,-0.13840067386627197,0.01812744140625,0.24587345123291016
1761401397485185800,1.206185791015625,-0.17387807369232178,-0.007662773132324219,0.28482484817504883
1761401397505347800,1.226347900390625,-0.14058750867843628,-0.06268882751464844,0.3534667491912842
1761401397525508900,1.2465087890625,-0.07708978652954102,-0.04944896697998047,0.3094027042388916
1761401397545662700,1.266662841796875,-0.0526997447013855,-0.017310142517089844,0.16112160682678223
1761401397565834000,1.286833984375,-0.05633479356765747,-0.01732635498046875,0.10777091979980469
1761401397585973000,1.306972900390625,-0.09691756963729858,0.0020160675048828125,0.1251237392425537
1761401397606132000,1.327132080078125,-0.08787000179290771,-0.0033407211303710938,0.08935332298278809
1761401397626320000,1.34731982421875,-0.08408677577972412,0.022428512573242188,0.047041893005371094
1761401397646481200,1.367481201171875,-0.08971267938613892,0.07814598083496094,0.026577234268188477
1761401397666644200,1.387644287109375,-0.07262241840362549,0.013201713562011719,0.0165712833404541
1761401397686805200,1.40780517578125,-0.043497443199157715,0.013591766357421875,0.016791820526123047
1761401397706967800,1.4279677734375,-0.013781905174255371,0.07242012023925781,-0.025595903396606445
1761401397727113200,1.44811328125,0.016441822052001953,0.10235309600830078,-0.028498411178588867
1761401397747291000,1.468290771484375,0.01799708604812622,0.0971221923828125,-0.0021424293518066406
1761401397767453200,1.488453125,-0.00623089075088501,0.06923198699951172,-0.01784229278564453
1761401397787615200,1.508615234375,-0.013368010520935059,0.014498710632324219,0.06499743461608887
1761401397807776800,1.52877685546875,0.007598996162414551,0.018190383911132812,0.09312653541564941
1761401397827938800,1.548938720703125,0.05652409791946411,0.013607025146484375,0.0025634765625
1761401397848100600,1.5691005859375,0.1386122703552246,-0.01720428466796875,-0.016580581665039062
1761401397868263700,1.589263671875,0.13279181718826294,0.008099555969238281,-0.003945589065551758
1761401397888425200,1.60942529296875,0.06687742471694946,0.03216361999511719,0.01023101806640625
1761401397908565200,1.629565185546875,0.01214909553527832,0.07015419006347656,0.05426311492919922
1761401397928749000,1.6497490234375,-0.005011856555938721,0.0756063461303711,0.1058659553527832
1761401397948909600,1.66990966796875,-0.0034728050231933594,0.06165790557861328,0.04157233238220215
1761401397969049300,1.69004931640625,0.001004934310913086,0.058465003967285156,-0.016614198684692383
1761401397989202400,1.710202392578125,0.05654716491699219,-0.0011835098266601562,0.012755155563354492
1761401398009396700,1.730396728515625,0.0498046875,0.04381370544433594,0.005717039108276367
1761401398029535700,1.75053564453125,0.007707834243774414,0.08710289001464844,-0.056407928466796875
1761401398049719600,1.770719482421875,0.010430574417114258,0.015691757202148438,-0.039916276931762695
1761401398069865200,1.790865234375,0.0352863073348999,0.011831283569335938,0.019450902938842773
1761401398090021600,1.811021728515625,0.01047295331954956,0.04117393493652344,-0.011463165283203125
1761401398110228200,1.831228271484375,-0.010225892066955566,0.05589866638183594,-0.03015589714050293
1761401398130368300,1.8513681640625,-0.011589407920837402,0.031464576721191406,0.04691672325134277
1761401398150499000,1.8714990234375,0.0018628239631652832,0.020721435546875,0.056824445724487305
1761401398170663000,1.891662841796875,0.0029574036598205566,0.04275989532470703,0.008575677871704102
1761401398190831000,1.9118310546875,-0.0441126823425293,0.08409976959228516,-0.04158425331115723
1761401398210988800,1.93198876953125,-0.03640866279602051,0.06575679779052734,0.020655393600463867
1761401398231147800,1.952147705078125,-0.04584425687789917,0.07256412506103516,0.026741981506347656
1761401398251339800,1.97233984375,-0.025882065296173096,0.04778861999511719,-0.0016858577728271484
1761401398271502000,1.992502197265625,-0.01067054271697998,0.06707096099853516,0.0316922664642334
1761401398291664000,2.012663818359375,0.027655422687530518,0.06721305847167969,0.017606735229492188
1761401398311803000,2.032802978515625,0.01947849988937378,0.09371566772460938,-0.029763221740722656
1761401398331988200,2.05298828125,-0.0064754486083984375,0.06530189514160156,-0.031296491622924805
1761401398352136400,2.073136474609375,-0.044088780879974365,0.030623435974121094,0.0075986385345458984
1761401398372311800,2.093311767578125,-0.04568493366241455,0.047957420349121094,-0.004234790802001953
1761401398392473900,2.113473876953125,0.004844307899475098,0.03635978698730469,0.011421442031860352
1761401398412635600,2.1336357421875,0.014655470848083496,0.05401325225830078,0.028293848037719727
1761401398432797000,2.153796875,-0.009033441543579102,0.08034133911132812,-0.008691549301147461
1761401398452937200,2.173937255859375,-0.03809201717376709,0.049439430236816406,-0.0035369396209716797
1761401398473121500,2.19412158203125,-0.03322279453277588,0.034607887268066406,0.051058053970336914
1761401398493283300,2.214283447265625,-0.04012119770050049,0.04031085968017578,0.02209305763244629
1761401398513446400,2.2344462890625,-0.012105345726013184,0.0716400146484375,0.001008749008178711
1761401398533607400,2.254607421875,0.03684443235397339,0.0683755874633789,0.002541065216064453
1761401398553769500,2.27476953125,0.0372166633605957,0.047881126403808594,0.01820516586303711
1761401398573936600,2.2949365234375,0.0029649734497070312,0.06517696380615234,-0.0017414093017578125
1761401398594092500,2.315092529296875,-0.013586997985839844,0.0469512939453125,-0.040575504302978516
1761401398614255400,2.33525537109375,0.010686397552490234,0.069122314453125,-0.03856039047241211
1761401398634417200,2.355417236328125,-0.0010800957679748535,0.0849771499633789,-0.07426691055297852
1761401398654574300,2.37557421875,-0.046192049980163574,0.07793712615966797,-0.07765555381774902
1761401398674702300,2.395702392578125,-0.04825031757354736,0.06520748138427734,-0.03335213661193848
1761401398694903000,2.415903076171875,-0.01555776596069336,0.009997367858886719,0.02873969078063965
1761401398715065000,2.436065185546875,-0.015312254428863525,0.036609649658203125,-0.009514808654785156
1761401398735227000,2.456226806640625,-0.010915696620941162,0.06780529022216797,-0.02205038070678711
1761401398755389200,2.47638916015625,-0.06725543737411499,0.04693317413330078,0.02134394645690918
1761401398775541200,2.496541259765625,-0.07438194751739502,0.06307697296142578,0.002701282501220703
1761401398795700700,2.51670068359375,-0.031020045280456543,0.06589603424072266,-0.02251291275024414
1761401398815874800,2.536874755859375,-0.004196226596832275,0.030745506286621094,0.0132904052734375
1761401398836036600,2.55703662109375,-0.02513563632965088,0.02537250518798828,0.0393068790435791
1761401398856197400,2.577197265625,-0.028360486030578613,0.01772594451904297,0.05384206771850586
1761401398876338000,2.597337890625,-0.04437893629074097,0.05906200408935547,0.05709218978881836
1761401398896492300,2.6174921875,-0.06347346305847168,0.03983020782470703,0.012112140655517578
1761401398916684300,2.637684326171875,-0.024513721466064453,0.032370567321777344,0.007422685623168945
1761401398936846800,2.657846923828125,-0.010911226272583008,0.032876014709472656,0.04665040969848633
1761401398957008400,2.67800830078125,-0.02149784564971924,0.020170211791992188,0.04688692092895508
1761401398977170200,2.698170166015625,-0.030040979385375977,0.03729534149169922,0.06581234931945801
1761401398997318700,2.718318603515625,-0.04153066873550415,0.048442840576171875,0.0708005428314209
1761401399017494500,2.73849462890625,-0.03824412822723389,0.015875816345214844,0.05614328384399414
1761401399037637000,2.75863720703125,-0.020416617393493652,0.0064754486083984375,0.06145954132080078
1761401399057818000,2.778818115234375,-0.011260032653808594,0.02410602569580078,0.0885171890258789
1761401399077957600,2.79895751953125,-0.010992884635925293,0.041357994079589844,0.08271217346191406
1761401399098119200,2.819119140625,-0.008975028991699219,0.004547119140625,0.06516909599304199
1761401399118283500,2.839283447265625,-0.0006263852119445801,-0.009415626525878906,0.059889793395996094
1761401399138442500,2.8594423828125,-0.019144415855407715,0.025562286376953125,0.02814006805419922
1761401399158627800,2.8796279296875,-0.01687467098236084,0.07037830352783203,0.004503726959228516
1761401399178752800,2.899752685546875,-0.01492154598236084,0.059042930603027344,0.028864145278930664
1761401399198952700,2.91995263671875,-0.012063026428222656,-0.0005941390991210938,0.03684425354003906
1761401399219136500,2.940136474609375,0.008235275745391846,0.041357994079589844,0.06134819984436035
1761401399239259100,2.960259033203125,-0.008001148700714111,0.07662487030029297,-0.00029850006103515625
1761401399259437000,2.98043701171875,-0.0010306835174560547,0.04530048370361328,-0.010957479476928711
1761401399279599600,3.000599609375,-0.004540443420410156,0.04428672790527344,0.009601831436157227
1761401399299762200,3.02076220703125,-0.0059479475021362305,0.02709484100341797,0.03173971176147461
1761401399319922400,3.04092236328125,-0.00005745887756347656,0.019598007202148438,0.0285799503326416
1761401399340082200,3.061082275390625,0.0034859180450439453,0.022889137268066406,0.02834796905517578
1761401399360226300,3.081226318359375,0.0037851333618164062,0.04957103729248047,0.023329496383666992
1761401399380432600,3.1014326171875,-0.028651654720306396,0.07787036895751953,0.02704000473022461
1761401399400572200,3.121572265625,-0.06948232650756836,0.08613109588623047,0.00535130500793457
1761401399420710100,3.141710205078125,-0.025272905826568604,0.053030967712402344,-0.0006656646728515625
1761401399440894500,3.16189453125,0.0018826723098754883,0.025940895080566406,0.009870290756225586
1761401399461080800,3.182080810546875,0.004681527614593506,0.010501861572265625,-0.01157522201538086
1761401399481216000,3.202216064453125,-0.02688843011856079,0.06666946411132812,-0.0062999725341796875
1761401399501381400,3.22238134765625,-0.039669811725616455,0.06610298156738281,-0.00640869140625
1761401399521543000,3.24254296875,-0.030241847038269043,0.014492034912109375,-0.025658845901489258
1761401399541704400,3.262704345703125,-0.0005505084991455078,0.05872154235839844,-0.030088186264038086
1761401399561867000,3.282866943359375,-0.011375844478607178,0.073455810546875,-0.03312063217163086
1761401399582029300,3.303029296875,-0.012727618217468262,0.033156394958496094,-0.02139902114868164
1761401399602191000,3.323191162109375,-0.016271591186523438,0.03138923645019531,-0.011413335800170898
1761401399622329600,3.34332958984375,-0.0026550889015197754,0.04820537567138672,0.0174713134765625
1761401399642491600,3.36349169921875,-0.020235955715179443,0.03888130187988281,0.01165461540222168
1761401399662654000,3.383654052734375,-0.0188291072845459,0.047034263610839844,-0.015042304992675781
1761401399682815700,3.403815673828125,-0.0005369782447814941,0.054248809814453125,-0.010520219802856445
1761401399702967300,3.42396728515625,0.0018465518951416016,0.06725597381591797,-0.00775456428527832
1761401399723147800,3.444147705078125,-0.0029597878456115723,0.050116539001464844,-0.04836225509643555
1761401399743325400,3.464325439453125,0.015206456184387207,0.055533409118652344,-0.05590009689331055
1761401399763486000,3.48448583984375,0.003535449504852295,0.039463043212890625,-0.0393671989440918
1761401399783626200,3.504626220703125,0.017399191856384277,0.057503700256347656,-0.03719282150268555
1761401399803809800,3.524809814453125,0.014971137046813965,0.05864524841308594,-0.013136625289916992
1761401399823972600,3.54497265625,0.005539953708648682,0.06031227111816406,-0.008131027221679688
1761401399844134700,3.565134765625,-0.011946141719818115,0.047995567321777344,-0.0043065547943115234
1761401399864273200,3.585273193359375,-0.013688743114471436,0.04530906677246094,-0.007438182830810547
1761401399884458000,3.6054580078125,-0.025378704071044922,0.042761802673339844,-0.0054018497467041016
1761401399904621000,3.62562109375,-0.014699697494506836,0.05093193054199219,0.017687320709228516
1761401399924782600,3.645782470703125,-0.021396875381469727,0.07269477844238281,0.008286237716674805
1761401399944943900,3.66594384765625,0.0015524029731750488,0.033043861389160156,0.008138179779052734
1761401399965106400,3.6861064453125,0.0231664776802063,-0.0012731552124023438,0.047954559326171875
1761401399985268000,3.70626806640625,0.015947580337524414,0.02623748779296875,0.06774783134460449
1761401400005407700,3.72640771484375,-0.012819647789001465,0.04625129699707031,0.03923320770263672
1761401400025591800,3.746591796875,-0.0369948148727417,0.015005111694335938,0.04315495491027832
1761401400045753600,3.766753662109375,-0.0409509539604187,0.015505790710449219,0.021000146865844727
1761401400065916700,3.786916748046875,-0.01823526620864868,0.05605030059814453,-0.009165763854980469
1761401400086077700,3.80707763671875,-0.0186498761177063,0.09028911590576172,-0.015103578567504883
1761401400106240300,3.827240234375,-0.022810041904449463,0.05066394805908203,-0.012157440185546875
1761401400126370000,3.8473701171875,-0.05052793025970459,0.0071659088134765625,-0.01641678810119629
1761401400146564000,3.867564208984375,-0.06381493806838989,0.026368141174316406,-0.023276567459106445
1761401400166726400,3.887726318359375,-0.026875436305999756,0.049648284912109375,0.0749049186706543
1761401400186887200,3.90788720703125,0.003036797046661377,0.038338661193847656,0.07359766960144043
1761401400207049000,3.928049072265625,-0.006159603595733643,0.05054759979248047,0.016990184783935547
1761401400227211500,3.94821142578125,-0.017423927783966064,0.01337432861328125,0.026238203048706055
1761401400247373800,3.968373779296875,-0.03150254487991333,-0.020178794860839844,0.08424043655395508
1761401400267512300,3.98851220703125,-0.019250869750976562,0.025742530822753906,0.08233809471130371
1761401400287696600,4.008696533203125,-0.02299731969833374,0.05023670196533203,0.051690101623535156
1761401400307859200,4.028859130859375,-0.017623960971832275,0.03453540802001953,0.015941619873046875
1761401400328021000,4.04902099609375,-0.026988863945007324,0.046309471130371094,0.008002996444702148
1761401400348184300,4.069184326171875,-0.022872745990753174,0.047654151916503906,-0.0030357837677001953
1761401400368347000,4.089346923828125,-0.005273044109344482,0.06768989562988281,-0.02497386932373047
1761401400388506400,4.10950634765625,-0.014198660850524902,0.04950714111328125,-0.03252363204956055
1761401400408668700,4.129668701171875,-0.013865232467651367,0.035592079162597656,0.021484851837158203
1761401400428830700,4.149830810546875,-0.00827634334564209,0.04531288146972656,0.03746223449707031
1761401400448953900,4.169953857421875,-0.0018090605735778809,0.019066810607910156,0.027693510055541992
1761401400469154800,4.19015478515625,0.004494965076446533,0.02998638153076172,-0.002008676528930664
1761401400489317000,4.210317138671875,-0.006764054298400879,0.04446601867675781,0.007294893264770508
1761401400509479200,4.230479248046875,-0.02962338924407959,0.0512542724609375,0.04650425910949707
1761401400529602600,4.2506025390625,-0.055603086948394775,0.04580879211425781,0.056058406829833984
1761401400549783300,4.270783203125,-0.04021561145782471,0.0711507797241211,0.023859500885009766
1761401400569941800,4.290941650390625,-0.0351373553276062,0.07532119750976562,0.03169608116149902
1761401400590126300,4.311126220703125,-0.025688648223876953,0.032050132751464844,0.0213468074798584
1761401400610259200,4.33125927734375,-0.03298729658126831,0.03514671325683594,-0.012647867202758789
1761401400630431000,4.351430908203125,0.0021404623985290527,0.05660247802734375,0.006828784942626953
1761401400650612200,4.3716123046875,0.014607131481170654,0.06916427612304688,-0.020511865615844727
1761401400670751200,4.391751220703125,0.012615501880645752,0.05181598663330078,-0.03959989547729492
1761401400690936000,4.41193603515625,0.0035709142684936523,0.07236671447753906,-0.026558876037597656
1761401400711078400,4.432078369140625,0.0168612003326416,0.033112525939941406,-0.00583195686340332
1761401400731260400,4.452260498046875,0.0443720817565918,0.0342559814453125,-0.006309032440185547
1761401400751397000,4.472397216796875,0.02876901626586914,0.09564781188964844,-0.0765681266784668
1761401400771584300,4.492584228515625,-0.005392670631408691,0.07349395751953125,-0.07388114929199219
1761401400791734800,4.51273486328125,-0.0175020694732666,0.06287288665771484,-0.01377105712890625
1761401400811907800,4.532907958984375,-0.014721810817718506,0.06275463104248047,-0.009896039962768555
1761401400832070100,4.553070068359375,-0.0094718337059021,0.06653118133544922,-0.00003910064697265625
1761401400852232200,4.573232177734375,-0.007052302360534668,0.06716251373291016,0.025436878204345703
1761401400872394000,4.59339404296875,-0.00528949499130249,0.07998466491699219,-0.02032923698425293
1761401400892544300,4.613544189453125,0.01356816291809082,0.04114532470703125,-0.02915024757385254
1761401400912726300,4.633726318359375,0.04207050800323486,0.019392013549804688,-0.003411531448364258
1761401400932879600,4.653879638671875,0.015853404998779297,0.04658222198486328,-0.012306928634643555
1761401400953041700,4.674041748046875,-0.03158295154571533,0.07363224029541016,-0.012616395950317383
1761401400973204000,4.694203857421875,-0.03883993625640869,0.044264793395996094,0.0021142959594726562
1761401400993364700,4.71436474609375,0.0053528547286987305,0.03300952911376953,0.012358665466308594
1761401401013528000,4.734528076171875,0.0064203739166259766,0.06276702880859375,-0.012987613677978516
1761401401033659100,4.7546591796875,-0.013766705989837646,0.041065216064453125,0.010227441787719727
1761401401053851100,4.77485107421875,-0.027803778648376465,0.0221710205078125,0.04322648048400879
1761401401074013200,4.79501318359375,-0.035443007946014404,0.044503211975097656,-0.01916790008544922
1761401401094175000,4.815175048828125,-0.010853826999664307,0.07550430297851562,-0.02268815040588379
1761401401114337300,4.835337158203125,-0.008306384086608887,0.05462837219238281,0.0368349552154541
1761401401134498800,4.855498779296875,-0.019766569137573242,0.06772994995117188,0.00193023681640625
1761401401154685700,4.875685791015625,0.0017940402030944824,0.032258033752441406,-0.020795106887817383
1761401401174824200,4.89582421875,0.028519928455352783,0.02145099639892578,0.0061151981353759766
1761401401194962200,4.915962158203125,0.026246488094329834,0.038791656494140625,0.04373931884765625
1761401401215147300,4.936147216796875,-0.028763651847839355,0.048987388610839844,0.010782480239868164
1761401401235309800,4.956309814453125,-0.055243611335754395,0.054986000061035156,0.01159811019897461
1761401401255470800,4.976470947265625,-0.03053414821624756,0.052153587341308594,0.0344851016998291
1761401401275610400,4.9966103515625,0.015651822090148926,0.05278587341308594,0.03245043754577637
1761401401295794200,5.016794189453125,0.010845005512237549,0.046176910400390625,0.0303652286529541
1761401401315956700,5.036956787109375,-0.04171234369277954,0.04168510437011719,0.011689901351928711
1761401401336118500,5.057118408203125,-0.04313009977340698,0.0506439208984375,0.00892949104309082
1761401401356280300,5.0772802734375,-0.030701816082000732,0.07886409759521484,-0.0015125274658203125
1761401401376420000,5.097420166015625,0.016120493412017822,0.08513164520263672,-0.037561893463134766
1761401401396604700,5.117604736328125,0.030794262886047363,0.030861854553222656,-0.030717849731445312
1761401401416766200,5.13776611328125,0.0389556884765625,0.02369213104248047,0.01150202751159668
1761401401436928800,5.1579287109375,0.0023137927055358887,0.026236534118652344,0.019440889358520508
1761401401457090300,5.17809033203125,-0.053376972675323486,0.03254890441894531,0.011011123657226562
1761401401477253000,5.198253173828125,-0.03954124450683594,0.026689529418945312,0.03864336013793945
1761401401497414000,5.218413818359375,-0.0028340816497802734,0.05239105224609375,0.0610198974609375
1761401401517576200,5.238576171875,0.012661457061767578,0.032227516174316406,0.037848711013793945
1761401401537739000,5.258739013671875,-0.007493138313293457,0.04151439666748047,0.02187347412109375
1761401401557900300,5.278900390625,0.002884387969970703,0.04924964904785156,0.03023982048034668
1761401401578038800,5.299038818359375,-0.018321633338928223,0.03110218048095703,0.039769649505615234
1761401401598225700,5.3192255859375,-0.010558664798736572,0.03429222106933594,0.026131153106689453
1761401401618364200,5.3393642578125,0.02248317003250122,0.05498981475830078,0.018733978271484375
1761401401638548200,5.35954833984375,0.020998477935791016,0.03403186798095703,0.03189396858215332
1761401401658710500,5.37971044921875,0.007812082767486572,0.021816253662109375,0.04859471321105957
1761401401678872600,5.39987255859375,-0.007904887199401855,0.007899284362792969,0.023035764694213867
1761401401699034000,5.4200341796875,-0.017929494380950928,0.04639244079589844,0.007890462875366211
1761401401719195400,5.4401953125,-0.02722257375717163,0.09129047393798828,-0.028000593185424805
1761401401739373000,5.460373046875,-0.018561720848083496,0.06097412109375,-0.008517265319824219
1761401401759520000,5.48052001953125,-0.003229379653930664,0.0667562484741211,0.024847030639648438
1761401401779681300,5.500681396484375,0.026685714721679688,0.052276611328125,0.022412538528442383
1761401401799843000,5.520843017578125,0.038021087646484375,0.0015993118286132812,0.027797460556030273
1761401401820004900,5.5410048828125,0.010342657566070557,0.004475593566894531,0.013717412948608398
1761401401840166700,5.561166748046875,-0.04215902090072632,0.06599235534667969,0.002297639846801758
1761401401860329700,5.581329833984375,-0.04119729995727539,0.04949378967285156,0.05173063278198242
1761401401880469000,5.601468994140625,-0.006640374660491943,0.043758392333984375,0.0636909008026123
1761401401900653300,5.6216533203125,0.03342467546463013,0.041617393493652344,0.01835489273071289
1761401401920792300,5.641792236328125,0.00026160478591918945,0.03424358367919922,-0.012223482131958008
1761401401940978000,5.66197802734375,-0.032855451107025146,0.046713829040527344,0.025073528289794922
1761401401961116700,5.68211669921875,-0.03768998384475708,0.01685333251953125,0.01342320442199707
1761401401981300200,5.70230029296875,-0.017010092735290527,0.010923385620117188,0.02485346794128418
1761401402001463000,5.722463134765625,-0.0047501325607299805,0.0652761459350586,-0.020063400268554688
1761401402021625900,5.7426259765625,0.017385482788085938,0.060474395751953125,-0.0071506500244140625
1761401402041764000,5.76276416015625,0.0024060606956481934,0.03477954864501953,-0.0023686885833740234
1761401402061948400,5.782948486328125,-0.01734381914138794,0.08039474487304688,-0.03964734077453613
1761401402082110500,5.8031103515625,-0.010037243366241455,0.05814552307128906,-0.02591109275817871
1761401402102272000,5.82327197265625,-0.02768641710281372,0.00162506103515625,0.0011525154113769531
1761401402122434800,5.843434814453125,-0.02410721778869629,0.029349327087402344,0.034201860427856445
1761401402142596900,5.863596923828125,-0.023968219757080078,0.03183746337890625,0.03858804702758789
1761401402162758400,5.88375830078125,-0.010984301567077637,0.045452117919921875,0.034732818603515625
1761401402182920700,5.903920654296875,-0.022316396236419678,0.05409526824951172,-0.0003616809844970703
1761401402203078400,5.924078369140625,-0.049187660217285156,0.07299518585205078,-0.02468705177307129
1761401402223243800,5.944243896484375,-0.054133057594299316,0.050683021545410156,-0.00034499168395996094
1761401402243377000,5.964376953125,-0.02779221534729004,0.03064250946044922,0.018848180770874023
1761401402263568400,5.984568359375,0.0053032636642456055,0.041851043701171875,0.026402950286865234
1761401402283730000,6.00472998046875,0.015711724758148193,0.04859447479248047,0.02560257911682129
1761401402303893200,6.024893310546875,-0.002563953399658203,0.03996467590332031,0.019556760787963867
1761401402324053800,6.0450537109375,-0.04299193620681763,0.025277137756347656,-0.0003635883331298828
1761401402344216600,6.065216552734375,-0.03110140562057495,0.022798538208007812,0.03042125701904297
1761401402364378000,6.085378173828125,0.0026009678840637207,0.041266441345214844,0.05561256408691406
1761401402384540000,6.105539794921875,0.013462483882904053,0.06199455261230469,0.03180885314941406
1761401402404701700,6.12570166015625,0.010809600353240967,0.036210060119628906,0.040146827697753906
1761401402424863500,6.145863525390625,-0.010254085063934326,-0.00443267822265625,0.042473554611206055
1761401402445026300,6.1660263671875,-0.014934360980987549,0.020516395568847656,-0.01098775863647461
1761401402465189000,6.186189208984375,-0.009241759777069092,0.0914163589477539,-0.012009859085083008
1761401402485349600,6.206349609375,-0.0203782320022583,0.049019813537597656,0.05198407173156738
1761401402505511700,6.22651171875,0.005453526973724365,0.017325401306152344,0.04344677925109863
1761401402525673200,6.246673095703125,0.017902374267578125,0.04703712463378906,0.02440500259399414
1761401402545836300,6.266836181640625,0.00013744831085205078,0.024183273315429688,-0.004827737808227539
1761401402565998000,6.286998046875,0.003965854644775391,0.02686309814453125,0.014253377914428711
1761401402586159400,6.307159423828125,0.0019314885139465332,0.030284881591796875,0.02465987205505371
1761401402606310100,6.32731005859375,-0.02024364471435547,0.0304107666015625,0.03513479232788086
1761401402626460700,6.347460693359375,-0.0030251741409301758,0.08641719818115234,-0.011060237884521484
1761401402646644700,6.367644775390625,-0.022416353225708008,0.06216621398925781,-0.10245728492736816
1761401402666786600,6.38778662109375,-0.010768115520477295,0.050495147705078125,-0.08765578269958496
1761401402686968800,6.40796875,-0.04347902536392212,0.045352935791015625,-0.03738570213317871
1761401402707131400,6.42813134765625,-0.06093567609786987,0.06105613708496094,0.001369476318359375
1761401402727293200,6.448293212890625,-0.049725115299224854,0.041449546813964844,0.05402708053588867
1761401402747455200,6.468455322265625,-0.04824948310852051,0.04912281036376953,0.09769439697265625
1761401402767618000,6.4886181640625,-0.04280740022659302,0.0020618438720703125,0.10190677642822266
1761401402787778600,6.508778564453125,-0.03295105695724487,0.02744770050048828,0.10483837127685547
1761401402807942400,6.5289423828125,-0.02402395009994507,0.00955963134765625,0.10838937759399414
1761401402828103400,6.549103515625,-0.011620879173278809,-0.004978179931640625,0.11673307418823242
1761401402848265500,6.569265380859375,-0.02339184284210205,0.02005767822265625,0.11196660995483398
1761401402868426200,6.58942626953125,-0.02642124891281128,0.023161888122558594,0.0737009048461914
1761401402888588300,6.60958837890625,-0.025249481201171875,0.020661354064941406,0.003648519515991211
1761401402908727800,6.629727783203125,-0.012617886066436768,0.04793739318847656,-0.042413949966430664
1761401402928889300,6.649889404296875,-0.03812813758850098,0.11227226257324219,-0.04395103454589844
1761401402949052200,6.67005224609375,-0.023918211460113525,0.10733604431152344,-0.0925600528717041
1761401402969203000,6.690202880859375,0.030798017978668213,0.06061363220214844,-0.11864805221557617
1761401402989384000,6.710384033203125,0.018530607223510742,0.053275108337402344,-0.10060977935791016
1761401403009559600,6.7305595703125,-0.0005159378051757812,0.06440162658691406,-0.07486534118652344
1761401403029722000,6.75072216796875,0.007586061954498291,0.07284355163574219,-0.05689597129821777
1761401403049863400,6.770863525390625,0.013591587543487549,0.07761573791503906,-0.027998924255371094
1761401403070046500,6.79104638671875,0.0225522518157959,0.0541229248046875,-0.02845287322998047
1761401403090209000,6.811208984375,-0.00006967782974243164,0.053503990173339844,-0.005221366882324219
1761401403110340900,6.8313408203125,-0.0005887746810913086,0.07112979888916016,0.009803295135498047
1761401403130532000,6.851531982421875,-0.007870316505432129,0.061237335205078125,0.0023865699768066406
1761401403150693600,6.871693603515625,-0.006842672824859619,0.04060077667236328,0.05100274085998535
1761401403170855400,6.89185546875,0.007575511932373047,0.016752243041992188,0.04637289047241211
1761401403191018500,6.9120185546875,0.026407361030578613,0.04726886749267578,0.013339042663574219
1761401403211177500,6.932177490234375,0.031127512454986572,0.07400035858154297,-0.03960895538330078
1761401403231341800,6.952341796875,0.02739495038986206,0.0737457275390625,-0.034955501556396484
1761401403251503600,6.972503662109375,0.0037450194358825684,0.029621124267578125,0.014925003051757812
1761401403271664600,6.99266455078125,-0.029344022274017334,0.025443077087402344,0.02610325813293457
1761401403291828200,7.012828125,-0.017491459846496582,0.06310081481933594,-0.022063493728637695
1761401403311966200,7.03296630859375,-0.006327211856842041,0.03708648681640625,0.02049422264099121
1761401403332129000,7.05312890625,-0.028694510459899902,0.0293426513671875,0.035836219787597656
1761401403352309200,7.073309326171875,-0.022908329963684082,0.021582603454589844,-0.002687692642211914
1761401403372475100,7.09347509765625,0.01582932472229004,0.0775594711303711,0.00018787384033203125
1761401403392637400,7.113637451171875,0.009403109550476074,0.10367774963378906,-0.011214017868041992
1761401403412781000,7.133781005859375,-0.017379701137542725,0.042029380798339844,0.0086517333984375
1761401403432961000,7.1539609375,-0.0036209821701049805,-0.011485099792480469,0.06182050704956055
1761401403453097700,7.17409765625,0.019375979900360107,0.0044803619384765625,0.05253267288208008
1761401403473278000,7.19427783203125,0.02770376205444336,0.027304649353027344,0.028972864151000977
1761401403493447000,7.214447021484375,0.016247332096099854,0.03391075134277344,0.047174930572509766
1761401403513609200,7.234609130859375,-0.03420466184616089,0.054203033447265625,0.024097919464111328
1761401403533748700,7.254748779296875,-0.05487614870071411,0.056456565856933594,0.02640509605407715
1761401403553933300,7.274933349609375,-0.0344809889793396,0.045432090759277344,0.04466891288757324
1761401403574095400,7.295095458984375,-0.0023020505905151367,0.03873252868652344,0.039308786392211914
1761401403594256600,7.315256591796875,-0.003898322582244873,0.040617942810058594,0.025732040405273438
1761401403614397200,7.335397216796875,-0.019551753997802734,0.04069995880126953,0.011765480041503906
1761401403634580700,7.355580810546875,-0.005050301551818848,0.04553985595703125,0.002464771270751953
1761401403654742800,7.37574267578125,-0.0040361881256103516,0.04430103302001953,-0.03201556205749512
1761401403674905000,7.395905029296875,-0.010556042194366455,0.06705951690673828,-0.030005931854248047
1761401403695066400,7.41606640625,0.01606351137161255,0.06864452362060547,0.011453390121459961
1761401403715206700,7.43620654296875,0.0052942633628845215,0.062439918518066406,-0.017589569091796875
1761401403735390700,7.456390625,-0.010231077671051025,0.03880500793457031,-0.0251462459564209
1761401403755553000,7.476552978515625,-0.0034757256507873535,0.019010543823242188,-0.009306669235229492
1761401403775714300,7.49671435546875,-0.021478891372680664,0.04996490478515625,0.009359359741210938
1761401403795875800,7.516875732421875,-0.017002463340759277,0.06897640228271484,-0.006787776947021484
1761401403816038400,7.537038330078125,0.007200658321380615,0.09776115417480469,-0.02472686767578125
1761401403836199400,7.557199462890625,-0.007830023765563965,0.06685066223144531,-0.015349149703979492
1761401403856362800,7.57736279296875,-0.004846453666687012,0.03312397003173828,-0.02538466453552246
1761401403876524500,7.597524658203125,0.025274276733398438,0.04240226745605469,-0.023251056671142578
1761401403896685800,7.617685791015625,0.02116680145263672,0.045558929443359375,0.013525009155273438
1761401403916847600,7.63784765625,-0.01133817434310913,0.04366016387939453,0.05657148361206055
1761401403937009200,7.658009033203125,-0.029291212558746338,0.04284095764160156,0.0306246280670166
1761401403957172200,7.678172119140625,-0.021941959857940674,0.018877029418945312,0.028763771057128906
1761401403977333500,7.69833349609375,-0.01167982816696167,0.051726341247558594,0.025567293167114258
1761401403997496300,7.718496337890625,-0.012620627880096436,0.05256938934326172,0.021194934844970703
1761401404017657900,7.738657958984375,-0.03488582372665405,0.05305194854736328,0.05217313766479492
1761401404037812700,7.758812744140625,-0.025654196739196777,0.04582500457763672,0.047814130783081055
1761401404057986600,7.778986572265625,-0.010418415069580078,0.032158851623535156,0.04239153861999512
1761401404078120700,7.79912060546875,0.020116686820983887,0.029183387756347656,0.0017423629760742188
1761401404098305800,7.819305908203125,0.012314379215240479,0.019209861755371094,-0.0040721893310546875
1761401404118467300,7.83946728515625,-0.02142709493637085,0.03876304626464844,0.04127049446105957
1761401404138592500,7.859592529296875,-0.019282162189483643,0.04244804382324219,0.03647041320800781
1761401404158790400,7.879790283203125,-0.016382813453674316,0.005814552307128906,0.044258832931518555
1761401404178952700,7.89995263671875,-0.019291937351226807,0.05100059509277344,0.05966591835021973
1761401404199092200,7.92009228515625,0.009994149208068848,0.046776771545410156,0.05424070358276367
1761401404219277000,7.940277099609375,0.012204468250274658,0.009919166564941406,0.049033403396606445
1761401404239438800,7.96043896484375,-0.02362591028213501,0.03143024444580078,0.03691816329956055
1761401404259601000,7.980600830078125,-0.012757718563079834,0.031365394592285156,0.03619217872619629
1761401404279762700,8.0007626953125,-0.007262229919433594,0.07112503051757812,0.018950700759887695
1761401404299925800,8.02092578125,0.01749211549758911,0.05205821990966797,0.010487556457519531
1761401404320086300,8.041086181640624,0.04114454984664917,0.03636741638183594,-0.00020885467529296875
1761401404340249300,8.061249267578125,0.0038324594497680664,0.019899368286132812,0.001813650131225586
1761401404360391000,8.081390869140625,0.0028545260429382324,0.025209426879882812,-0.012277841567993164
1761401404380573000,8.101572998046874,-0.008866310119628906,0.04210662841796875,0.04557037353515625
1761401404400735000,8.12173486328125,-0.01873624324798584,0.04327678680419922,0.045774221420288086
1761401404420896800,8.141896728515626,-0.024178743362426758,0.05023002624511719,0.03838634490966797
1761401404441058800,8.162058837890624,-0.02651679515838623,0.053768157958984375,0.02152538299560547
1761401404461221000,8.18222119140625,-0.016053855419158936,0.01816082000732422,0.014866113662719727
1761401404481376300,8.202376220703124,-0.024427831172943115,0.048030853271484375,0.005300283432006836
1761401404501544000,8.2225439453125,-0.017955243587493896,0.051573753356933594,0.002389192581176758
1761401404521706800,8.242706787109375,-0.026133716106414795,0.045081138610839844,0.009485244750976562
1761401404541867500,8.262867431640625,0.0017197728157043457,0.05890083312988281,0.0211026668548584
1761401404562030600,8.283030517578124,-0.016958534717559814,0.04341316223144531,-0.03111553192138672
1761401404582192400,8.3031923828125,0.008683264255523682,0.03995990753173828,-0.013309955596923828
1761401404602333700,8.323333740234375,0.006001710891723633,0.031833648681640625,0.025483131408691406
1761401404622493200,8.3434931640625,-0.02492046356201172,0.07251262664794922,-0.006281137466430664
1761401404642677800,8.363677734375,-0.020624995231628418,0.054126739501953125,-0.002597808837890625
1761401404662840600,8.383840576171876,-0.028870463371276855,0.020208358764648438,0.012004375457763672
1761401404683001900,8.404001953125,-0.02628690004348755,0.037456512451171875,-0.020001649856567383
1761401404703164700,8.42416455078125,-0.005394041538238525,0.06667232513427734,0.00992131233215332
1761401404723326000,8.444325927734376,-0.015020430088043213,0.057915687561035156,0.013194084167480469
1761401404743483000,8.46448291015625,-0.02044379711151123,0.050240516662597656,-0.03153824806213379
1761401404763649300,8.484649169921875,0.0002490878105163574,0.036108970642089844,-0.02603888511657715
1761401404783811300,8.504811279296876,-0.0046929121017456055,0.039277076721191406,-0.036019325256347656
1761401404803974000,8.524973876953124,0.00953829288482666,0.051532745361328125,-0.030170440673828125
1761401404824135400,8.545135498046875,-0.011611521244049072,0.04921531677246094,0.021645307540893555
1761401404844297200,8.565297119140626,-0.03965252637863159,0.02681255340576172,0.04509425163269043
1761401404864459800,8.585459716796874,-0.06074577569961548,0.0449981689453125,0.01557469367980957
1761401404884621600,8.60562158203125,-0.03601551055908203,0.07857704162597656,-0.021470069885253906
1761401404904784000,8.625783935546876,0.0036475062370300293,0.049057960510253906,0.009037256240844727
1761401404924944600,8.645944580078124,0.002557218074798584,0.05057239532470703,-0.008019447326660156
1761401404945106700,8.666106689453125,-0.032702744007110596,0.07553386688232422,-0.032186031341552734
1761401404965269000,8.68626904296875,-0.04972195625305176,0.037217140197753906,-0.009941339492797852
1761401404985431300,8.706431396484374,-0.017684876918792725,0.033133506774902344,0.0055119991302490234
1761401405005592800,8.7265927734375,0.007346630096435547,0.050004005432128906,-0.009456396102905273
1761401405025755600,8.746755615234376,-0.00819474458694458,0.08090686798095703,0.01315617561340332
1761401405045916400,8.76691650390625,-0.026531696319580078,0.016771316528320312,0.008327960968017578
1761401405066079200,8.787079345703125,-0.02944040298461914,0.02347278594970703,0.009323596954345703
1761401405086220000,8.807219970703125,-0.020199835300445557,0.016605377197265625,0.08215689659118652
1761401405106403300,8.8274033203125,-0.01881861686706543,0.034073829650878906,0.0811452865600586
1761401405126564900,8.84756494140625,-0.01791173219680786,0.06247234344482422,0.03121805191040039
1761401405146725400,8.867725341796875,-0.023473799228668213,0.036917686462402344,0.07271003723144531
1761401405166888700,8.887888671875,-0.037432968616485596,0.03137779235839844,0.017513036727905273
1761401405187050200,8.90805029296875,0.0026677846908569336,0.056262969970703125,-0.028265714645385742
1761401405207212500,8.928212646484376,0.017428934574127197,0.051009178161621094,-0.0012352466583251953
1761401405227374300,8.948374267578124,0.0073639750480651855,0.014964103698730469,0.031560659408569336
1761401405247537000,8.968536865234375,-0.015396296977996826,0.020769119262695312,0.028906583786010742
1761401405267704800,8.988704833984375,-0.018857359886169434,0.03314399719238281,0.02787613868713379
1761401405287860500,9.008860595703124,0.007702887058258057,0.034111976623535156,0.02568817138671875
1761401405307999700,9.028999755859376,-0.012515723705291748,0.04779338836669922,0.0313565731048584
1761401405328184000,9.04918408203125,-0.011860191822052002,0.03518104553222656,0.023578405380249023
1761401405348345600,9.069345703125,-0.017029881477355957,0.045599937438964844,0.03515028953552246
1761401405368497700,9.08949755859375,-0.025516271591186523,0.04688262939453125,0.050551414489746094
1761401405388670000,9.109669921875,-0.03368431329727173,0.04115009307861328,0.03552055358886719
1761401405408820500,9.129820556640626,-0.0013123154640197754,0.00937652587890625,0.039090633392333984
1761401405428994000,9.149994140625,0.003942608833312988,0.034354209899902344,0.028104305267333984
1761401405449155800,9.17015576171875,0.002659916877746582,0.03483009338378906,0.03930401802062988
1761401405469316600,9.190316650390624,-0.0014957189559936523,0.05072498321533203,0.028626441955566406
1761401405489479700,9.210479736328125,-0.02361851930618286,0.01435089111328125,-0.005365133285522461
1761401405509628700,9.230628662109375,-0.05136376619338989,0.033247947692871094,0.028215885162353516
1761401405529804000,9.250803955078124,-0.020849883556365967,0.06596183776855469,0.04422116279602051
1761401405549959700,9.270959716796876,0.005207061767578125,0.025234222412109375,0.02812504768371582
1761401405570126600,9.291126708984375,0.006027281284332275,0.022161483764648438,0.013854026794433594
1761401405590290200,9.311290283203125,-0.02533501386642456,0.046416282653808594,0.009685516357421875
1761401405610428700,9.3314287109375,-0.03146618604660034,0.061675071716308594,-0.03750777244567871
1761401405630613800,9.35161376953125,-0.00268709659576416,0.04470634460449219,-0.0074367523193359375
1761401405650775300,9.371775390625,0.018104135990142822,0.046133995056152344,0.02525806427001953
1761401405670936300,9.391936279296875,0.0020219087600708008,0.030412673950195312,0.030498504638671875
1761401405691086600,9.412086669921875,-0.018804848194122314,0.023970603942871094,0.023697853088378906
1761401405711261200,9.43226123046875,-0.03608512878417969,0.03421783447265625,-0.0172882080078125
1761401405731423200,9.45242333984375,-0.00957101583480835,0.047616004943847656,0.024961233139038086
1761401405751583200,9.472583251953125,-0.005959987640380859,0.06968021392822266,0.026027917861938477
1761401405776778800,9.49777880859375,-0.024877071380615234,0.05197715759277344,-0.030573368072509766
1761401405796950000,9.517949951171875,-0.030590951442718506,0.04803657531738281,-0.02805614471435547
1761401405817111600,9.538111572265626,-0.039439260959625244,0.04505729675292969,-0.012383460998535156
1761401405837274000,9.558274169921875,-0.020130515098571777,0.03922462463378906,-0.022374391555786133
1761401405857436000,9.578435791015625,0.011168122291564941,0.05173969268798828,-0.019939422607421875
1761401405877598000,9.598597900390626,0.006253838539123535,0.06809425354003906,-0.012482643127441406
1761401405897759200,9.61875927734375,-0.01779991388320923,0.06723976135253906,-0.00738525390625
1761401405917921500,9.638921630859375,-0.03596764802932739,0.042891502380371094,0.0038607120513916016
1761401405938083600,9.65908349609375,-0.013961315155029297,0.016678810119628906,0.029287099838256836
1761401405958245600,9.67924560546875,-0.03193509578704834,0.05907440185546875,-0.010346651077270508
1761401405978407700,9.69940771484375,-0.021361470222473145,0.07824897766113281,-0.0229339599609375
1761401405998551300,9.71955126953125,-0.027513444423675537,0.03032970428466797,0.026418447494506836
1761401406018730800,9.739730712890625,-0.01018822193145752,0.03735160827636719,0.0026748180389404297
1761401406038893000,9.75989306640625,-0.0009058117866516113,0.07354354858398438,-0.001941680908203125
1761401406059055400,9.780055419921876,-0.021215498447418213,0.06177234649658203,-0.013286590576171875
1761401406079218000,9.800218017578125,-0.02989143133163452,0.03100872039794922,-0.02449822425842285
1761401406099378400,9.82037841796875,0.0057811737060546875,0.022573471069335938,-0.0015866756439208984
1761401406119509200,9.84050927734375,0.03437989950180054,0.029148101806640625,0.006971597671508789
1761401406139703000,9.860703125,0.023444831371307373,0.049957275390625,0.011562108993530273
1761401406159845400,9.880845458984375,-0.006549954414367676,0.042275428771972656,0.03527331352233887
1761401406180004000,9.901004150390625,-0.026649177074432373,0.045889854431152344,0.014794588088989258
1761401406200166000,9.921165771484375,-0.045123279094696045,0.06458854675292969,0.003258943557739258
1761401406220328200,9.941328125,-0.025238454341888428,0.06783485412597656,-0.01193380355834961
1761401406240498000,9.961497802734375,-0.0043795108795166016,0.07180309295654297,0.017876386642456055
1761401406260674600,9.981674560546875,0.004309535026550293,0.01634693145751953,0.016713380813598633
1761401406280836400,10.00183642578125,0.0026050209999084473,0.01631927490234375,-0.0163114070892334
1761401406300959500,10.02195947265625,-0.005526721477508545,0.03809928894042969,-0.01478433609008789
1761401406321160700,10.04216064453125,-0.0016078352928161621,0.04761695861816406,0.024544477462768555
1761401406341322800,10.06232275390625,0.0036072134971618652,0.06544017791748047,0.055968284606933594
1761401406361484800,10.08248486328125,0.011559665203094482,0.05482769012451172,0.04787468910217285
1761401406381623800,10.102623779296875,0.009274542331695557,0.033186912536621094,-0.010613441467285156
1761401406401808400,10.122808349609375,-0.000287473201751709,0.023474693298339844,0.012285709381103516
1761401406421970000,10.142969970703126,-0.013156592845916748,0.02164459228515625,0.05367302894592285
1761401406442132000,10.163132080078125,-0.023706555366516113,0.0279083251953125,0.06408214569091797
1761401406462293800,10.183293701171875,-0.006207823753356934,0.045340538024902344,0.020994901657104492
1761401406482434000,10.20343408203125,0.00741809606552124,0.06469917297363281,0.014273405075073242
1761401406502617300,10.223617431640625,-0.012267768383026123,0.06398296356201172,0.00006604194641113281
1761401406522780000,10.24377978515625,0.0125771164894104,0.05392932891845703,-0.007308483123779297
1761401406542941400,10.26394140625,0.02748584747314453,0.034638404846191406,0.024141550064086914
1761401406563103700,10.284103759765625,-0.0002142786979675293,0.008039474487304688,0.02914714813232422
1761401406583266000,10.30426611328125,-0.029096782207489014,0.020216941833496094,0.04754209518432617
1761401406603428000,10.324427978515626,-0.04777592420578003,0.03933238983154297,0.07055163383483887
1761401406623589600,10.344589599609375,-0.04337209463119507,0.054107666015625,0.05818581581115723
1761401406643751000,10.3647509765625,-0.017211735248565674,0.04543781280517578,0.03441476821899414
1761401406663913500,10.38491357421875,-0.0012220144271850586,0.031777381896972656,0.015219449996948242
1761401406684075800,10.40507568359375,-0.01723545789718628,0.05671882629394531,0.01953291893005371
1761401406704236800,10.42523681640625,-0.03519272804260254,0.038344383239746094,0.0018699169158935547
1761401406724397800,10.445397705078125,-0.02117711305618286,0.026925086975097656,0.025124549865722656
1761401406744544000,10.4655439453125,0.002645254135131836,0.05309581756591797,0.011777639389038086
1761401406764723000,10.485722900390625,-0.0024029016494750977,0.036307334899902344,-0.0020880699157714844
1761401406784885200,10.50588525390625,-0.003302335739135742,0.05570220947265625,0.0020759105682373047
1761401406805047000,10.526047119140625,0.0015025734901428223,0.03563976287841797,0.0023603439331054688
1761401406825186000,10.54618603515625,-0.018327713012695312,0.013648033142089844,-0.007197380065917969
1761401406845371000,10.566370849609376,-0.0317072868347168,0.07076168060302734,0.014079093933105469
1761401406865525800,10.58652587890625,-0.01757633686065674,0.05945014953613281,0.038084983825683594
1761401406885695000,10.606695068359375,0.0011609196662902832,0.033171653747558594,0.03366255760192871
1761401406905857000,10.62685693359375,0.008197307586669922,0.032538414001464844,-0.025517702102661133
1761401406926018600,10.6470185546875,-0.01460421085357666,0.051314353942871094,-0.034813642501831055
1761401406946204200,10.6672041015625,-0.021072328090667725,0.045828819274902344,0.01645970344543457
1761401406966342700,10.6873427734375,-0.007783114910125732,0.05684471130371094,0.032628774642944336
1761401406986504400,10.70750439453125,0.029216289520263672,0.06529712677001953,-0.006391048431396484
1761401407006666500,10.72766650390625,0.009058058261871338,0.034049034118652344,-0.02400374412536621
1761401407026828500,10.74782861328125,-0.011215269565582275,0.02681255340576172,-0.008232831954956055
1761401407046990800,10.767990966796875,-0.021910905838012695,0.04702949523925781,0.013387918472290039
1761401407067152000,10.78815185546875,-0.012770473957061768,0.0673074722290039,-0.00153350830078125
1761401407087291400,10.80829150390625,-0.007877886295318604,0.08275699615478516,-0.0066106319427490234
1761401407107476500,10.8284765625,-0.014834225177764893,0.05649852752685547,-0.0034325122833251953
1761401407127638500,10.848638427734375,-0.003849625587463379,0.05015754699707031,-0.014043331146240234
1761401407147801000,10.868801025390624,-0.01741880178451538,0.04359245300292969,-0.01558995246887207
1761401407167964000,10.8889638671875,-0.02480107545852661,0.04098987579345703,-0.0004105567932128906
1761401407188124000,10.9091240234375,-0.015476584434509277,0.036163330078125,0.01774740219116211
1761401407208285400,10.929285400390626,0.0023244619369506836,0.04541206359863281,0.009196281433105469
1761401407228434400,10.949434326171875,0.000325620174407959,0.06680965423583984,0.0036935806274414062
1761401407248610000,10.969610107421875,0.00301283597946167,0.04654407501220703,0.024055004119873047
1761401407268772000,10.989772216796876,-0.0126570463180542,0.010528564453125,0.016346216201782227
1761401407288932600,11.0099326171875,-0.03628647327423096,0.05546855926513672,-0.0003876686096191406
1761401407309096200,11.03009619140625,-0.0338132381439209,0.044506072998046875,0.042858123779296875
1761401407329258500,11.050258544921874,-0.02226841449737549,0.028824806213378906,0.04926800727844238
1761401407349420000,11.070419921875,0.013933539390563965,0.027606964111328125,-0.0257871150970459
1761401407369558800,11.090558837890624,0.005549013614654541,0.06925678253173828,-0.0196835994720459
1761401407389720800,11.110720947265625,-0.01868671178817749,0.05298042297363281,-0.003544330596923828
1761401407409906400,11.130906494140625,0.008975446224212646,0.061989784240722656,-0.016858339309692383
1761401407430067500,11.1510673828125,0.02253514528274536,0.06926631927490234,-0.02434992790222168
1761401407450229800,11.171229736328126,0.015175938606262207,0.0038118362426757812,0.0007610321044921875
1761401407470390500,11.191390625,-0.01932317018508911,0.022200584411621094,0.02423691749572754
1761401407490553000,11.211552978515625,-0.03167986869812012,0.03712272644042969,0.03064584732055664
1761401407510692000,11.231692138671875,-0.010330736637115479,0.05658531188964844,0.034961700439453125
1761401407530877400,11.25187744140625,0.0017093420028686523,0.06231117248535156,0.03222250938415527
1761401407551038700,11.272038818359375,-0.01417011022567749,0.034008026123046875,0.024747610092163086
1761401407571201300,11.292201171875,-0.033436477184295654,0.037163734436035156,0.03847932815551758
1761401407591363300,11.31236328125,-0.029196977615356445,0.045281410217285156,0.03609180450439453
1761401407611526100,11.332526123046875,-0.008540868759155273,0.03997611999511719,0.028752565383911133
1761401407631686400,11.352686279296876,0.010441362857818604,0.028476715087890625,0.038083553314208984
1761401407651849000,11.372848876953125,-0.014659643173217773,0.02266216278076172,0.00804758071899414
1761401407672010500,11.393010498046875,-0.020901858806610107,0.054306983947753906,0.017600536346435547
1761401407692172300,11.41317236328125,0.002759575843811035,0.04096794128417969,0.015313148498535156
1761401407712341500,11.433341552734374,0.0072013139724731445,0.044442176818847656,-0.00026726722717285156
1761401407732495600,11.45349560546875,-0.005891680717468262,0.05399894714355469,0.02769947052001953
1761401407752634600,11.473634521484374,-0.0012696385383605957,0.01990795135498047,0.05402684211730957
1761401407772819700,11.49381982421875,-0.009831488132476807,0.0257720947265625,0.028222322463989258
1761401407792982000,11.51398193359375,-0.011447548866271973,0.048890113830566406,0.00009036064147949219
1761401407813145300,11.534145263671874,-0.027386248111724854,0.07026386260986328,0.024488449096679688
1761401407833306000,11.55430615234375,-0.018380939960479736,0.03885459899902344,0.03218340873718262
1761401407853468000,11.574468017578125,-0.0027167797088623047,0.03925037384033203,0.01586747169494629
1761401407873630000,11.5946298828125,0.007744193077087402,0.03338050842285156,-0.01073002815246582
1761401407893791500,11.61479150390625,-0.0019924044609069824,0.022993087768554688,-0.0045261383056640625
1761401407913955000,11.634955078125,-0.01568901538848877,0.03176403045654297,0.02329874038696289
1761401407934115800,11.65511572265625,-0.01358652114868164,0.05368328094482422,0.046082258224487305
1761401407954278000,11.67527783203125,-0.0030966997146606445,0.03436756134033203,0.048219919204711914
1761401407974439400,11.695439453125,0.006249845027923584,0.03388500213623047,0.02868175506591797
1761401407994601500,11.7156015625,-0.02859264612197876,0.046837806701660156,0.0033473968505859375
1761401408014763800,11.735763671875,-0.03816497325897217,0.02562713623046875,0.004364490509033203
1761401408034926000,11.755926025390625,-0.01546245813369751,0.05084514617919922,0.030775785446166992
1761401408055087600,11.776087646484376,0.004300832748413086,0.051711082458496094,0.031331777572631836
1761401408075249700,11.796249755859375,0.004439949989318848,0.05078697204589844,-0.0018944740295410156
1761401408095410700,11.81641064453125,-0.017177462577819824,0.041271209716796875,-0.02225470542907715
1761401408115574000,11.836573974609376,-0.030668556690216064,0.03439807891845703,-0.020924806594848633
1761401408135734500,11.856734619140624,-0.002062201499938965,0.05182647705078125,0.008731842041015625
1761401408155904300,11.876904296875,0.01120847463607788,0.05053520202636719,0.020026445388793945
1761401408176060000,11.897059814453126,-0.008835136890411377,0.0633697509765625,0.02172994613647461
1761401408196220700,11.917220703125,-0.018457353115081787,0.015048027038574219,0.013523578643798828
1761401408216384300,11.93738427734375,-0.029065608978271484,0.011129379272460938,0.01253199577331543
1761401408236544500,11.95754443359375,-0.037754952907562256,0.05035591125488281,0.004863262176513672
1761401408256684500,11.9776845703125,-0.024501144886016846,0.07559013366699219,0.05437612533569336
1761401408276868400,11.997868408203125,-0.017129480838775635,0.04166984558105469,0.030479907989501953
1761401408297007600,12.018007568359375,-0.006871581077575684,0.031154632568359375,-0.00018596649169921875
1761401408317192000,12.03819189453125,-0.0054239630699157715,0.023893356323242188,0.018470287322998047
1761401408337354500,12.0583544921875,-0.00976639986038208,0.026399612426757812,0.002264738082885742
1761401408357516500,12.0785166015625,-0.04270803928375244,0.045966148376464844,0.015840768814086914
1761401408377678000,12.098677978515624,-0.07417070865631104,0.047049522399902344,0.052065372467041016
1761401408397840400,12.11884033203125,-0.051796913146972656,0.04626655578613281,0.031217098236083984
1761401408418004700,12.139004638671874,0.00012165307998657227,0.042197227478027344,-0.006986856460571289
1761401408438167600,12.15916748046875,0.01091831922531128,0.051543235778808594,-0.026171445846557617
1761401408458305500,12.179305419921874,-0.021573126316070557,0.039315223693847656,-0.0072743892669677734
1761401408478488600,12.199488525390626,-0.06143081188201904,0.050667762756347656,0.0059053897857666016
1761401408498649300,12.2196494140625,-0.04789024591445923,0.06837654113769531,-0.012398242950439453
1761401408518791200,12.239791259765624,0.02093791961669922,0.06862354278564453,-0.02335667610168457
1761401408538973400,12.259973388671876,0.03180032968521118,0.059566497802734375,-0.04323887825012207
1761401408559135500,12.280135498046874,0.007879793643951416,0.056677818298339844,-0.02245926856994629
1761401408579298300,12.30029833984375,-0.015450000762939453,0.047489166259765625,0.03347277641296387
1761401408599460000,12.320460205078126,-0.014065742492675781,0.01590442657470703,0.040307044982910156
1761401408619621600,12.34062158203125,0.007528960704803467,0.0474090576171875,0.047983407974243164
1761401408639784700,12.36078466796875,0.0278434157371521,0.05027961730957031,0.05436086654663086
1761401408659923200,12.380923095703125,0.035611093044281006,0.029297828674316406,0.011628389358520508
1761401408680107300,12.401107177734374,0.03190082311630249,0.044579505920410156,-0.01939558982849121
1761401408700269800,12.421269775390625,-0.005825042724609375,0.06647109985351562,0.020852088928222656
1761401408720431000,12.44143115234375,-0.0021625757217407227,0.044465065002441406,0.026241540908813477
1761401408740558300,12.461558349609374,0.02315431833267212,0.07539844512939453,-0.04496955871582031
1761401408760755200,12.481755126953125,0.02482551336288452,0.07313251495361328,-0.05504488945007324
1761401408780897000,12.50189697265625,0.03432786464691162,0.043631553649902344,-0.021425724029541016
1761401408801078000,12.522078125,0.01631385087966919,0.01881694793701172,-0.014153718948364258
1761401408821240600,12.542240478515625,-0.008086919784545898,0.037718772888183594,0.005616664886474609
1761401408841403000,12.56240283203125,0.002962470054626465,0.07803726196289062,0.008121728897094727
1761401408861565700,12.582565673828125,0.010075807571411133,0.07710933685302734,0.023020505905151367
1761401408881725700,12.6027255859375,-0.009608089923858643,0.037128448486328125,0.03249311447143555
1761401408901888500,12.622888427734376,-0.009412586688995361,0.02237701416015625,0.021691560745239258
1761401408922050800,12.64305078125,-0.020114362239837646,0.03850078582763672,0.014596700668334961
1761401408942212000,12.663212158203125,-0.01832050085067749,0.05733203887939453,0.02456951141357422
1761401408962374400,12.68337451171875,-0.004488885402679443,0.04945850372314453,0.028006792068481445
1761401408982535700,12.70353564453125,0.011236250400543213,0.02507781982421875,0.02901315689086914
1761401409002698000,12.723697998046875,-0.005233287811279297,0.03487396240234375,0.023049116134643555
1761401409022860800,12.74386083984375,-0.00996476411819458,0.034361839294433594,0.011091470718383789
1761401409043021800,12.764021728515624,-0.02596384286880493,0.02967548370361328,0.0033571720123291016
1761401409063184000,12.784183837890625,-0.04098808765411377,0.051392555236816406,0.007179975509643555
1761401409083346000,12.804345947265626,-0.04009401798248291,0.04420948028564453,0.05683541297912598
1761401409103501600,12.82450146484375,-0.024888336658477783,0.015413284301757812,0.09037041664123535
1761401409123670300,12.844670166015625,-0.004757940769195557,0.01779460906982422,0.03174400329589844
1761401409143811000,12.86481103515625,-0.013542771339416504,0.04861259460449219,-0.000164031982421875
1761401409163994000,12.884994140625,-0.033445000648498535,0.06188011169433594,-0.012606620788574219
1761401409184156200,12.90515625,-0.02207881212234497,0.05014991760253906,0.005067110061645508
1761401409204320300,12.9253203125,0.009552001953125,0.03573131561279297,0.034911155700683594
1761401409224479500,12.9454794921875,0.0034813284873962402,0.019887924194335938,0.031551361083984375
1761401409244641500,12.9656416015625,-0.008640706539154053,0.023326873779296875,0.008889436721801758
1761401409264795600,12.985795654296876,-0.01742410659790039,0.036406517028808594,0.011078119277954102
1761401409284966000,13.0059658203125,-0.014408290386199951,0.053112030029296875,0.028937339782714844
1761401409305127200,13.026127197265625,-0.020979225635528564,0.062232017517089844,-0.00090789794921875
1761401409325289700,13.046289794921876,-0.03257399797439575,0.056288719177246094,0.011712789535522461
1761401409345451000,13.066450927734374,-0.0318569540977478,0.033576011657714844,0.038622379302978516
1761401409365613000,13.086613037109375,0.0026619434356689453,0.04248332977294922,0.006501674652099609
1761401409385752300,13.10675244140625,0.012436926364898682,0.042919158935546875,-0.004098176956176758
1761401409405913600,13.12691357421875,0.006547033786773682,0.018387794494628906,-0.0014269351959228516
1761401409426076400,13.147076416015626,-0.03237885236740112,0.044147491455078125,-0.002653837203979492
1761401409446261000,13.167260986328126,-0.05180317163467407,0.09058475494384766,0.003648519515991211
1761401409466423300,13.18742333984375,-0.002991795539855957,0.04507255554199219,0.009808540344238281
1761401409486562000,13.20756201171875,0.010241985321044922,0.034976959228515625,-0.004499197006225586
1761401409506705000,13.227704833984374,-0.012649357318878174,0.04827308654785156,-0.0488896369934082
1761401409526899000,13.24789892578125,-0.005943238735198975,0.04158496856689453,-0.04149675369262695
1761401409547071500,13.268071533203125,-0.017079710960388184,0.05081367492675781,-0.032741546630859375
1761401409567233000,13.28823291015625,-0.02886754274368286,0.06899166107177734,-0.044106483459472656
1761401409587394800,13.308394775390624,-0.02705329656600952,0.0845479965209961,-0.05204653739929199
1761401409607535900,13.328535888671874,-0.032337069511413574,0.09749603271484375,-0.08344769477844238
1761401409627718700,13.34871875,-0.025992751121520996,0.06868743896484375,-0.14079976081848145
1761401409647880200,13.368880126953124,0.002864360809326172,0.07520771026611328,-0.13784408569335938
1761401409668044500,13.38904443359375,0.00945889949798584,0.07181262969970703,-0.1110537052154541
1761401409688206000,13.4092060546875,-0.01639038324356079,0.0854635238647461,-0.12057042121887207
1761401409708366800,13.429366943359375,-0.0423659086227417,0.02801036834716797,-0.08858346939086914
1761401409728528400,13.4495283203125,-0.07251757383346558,0.047852516174316406,-0.06983041763305664
1761401409748690400,13.4696904296875,-0.07955968379974365,0.07466411590576172,-0.03479766845703125
1761401409768852200,13.489852294921874,-0.08274209499359131,0.021241188049316406,0.14016270637512207
1761401409789013200,13.51001318359375,-0.11744022369384766,-0.038964271545410156,0.25647783279418945
1761401409809176300,13.53017626953125,-0.1297297477722168,-0.012004852294921875,0.24640727043151855
1761401409829338000,13.550338134765624,-0.10937082767486572,-0.03501319885253906,0.20020031929016113
1761401409849486000,13.570486083984376,-0.06985759735107422,-0.0055084228515625,0.15442419052124023
1761401409869641500,13.590641357421875,-0.036302149295806885,0.009942054748535156,0.07855367660522461
1761401409889824000,13.610823974609374,-0.04155588150024414,0.02283763885498047,0.03130793571472168
1761401409909985500,13.630985595703125,-0.0499567985534668,0.06701469421386719,0.04171180725097656
1761401409930147000,13.65114697265625,-0.09838932752609253,-0.0038385391235351562,0.04046130180358887
1761401409950319000,13.671319091796875,-0.16162019968032837,-0.0821990966796875,0.11477422714233398
1761401409970471400,13.691471435546875,-0.2127668857574463,0.009981155395507812,0.2217252254486084
1761401409990633700,13.7116337890625,-0.24356019496917725,0.09267044067382812,0.12353801727294922
1761401410010772500,13.7317724609375,-0.22250968217849731,0.04677391052246094,-0.005672931671142578
1761401410030934500,13.7519345703125,-0.11576575040817261,0.11567497253417969,-0.03350996971130371
1761401410051119900,13.772119873046876,-0.08120626211166382,0.1454486846923828,-0.09866929054260254
1761401410071280600,13.79228076171875,-0.031916022300720215,0.16308307647705078,-0.17983627319335938
1761401410091420400,13.81242041015625,0.02567577362060547,0.16051864624023438,-0.17779898643493652
1761401410111604700,13.832604736328125,0.09008097648620605,0.13345909118652344,-0.14832377433776855
1761401410131738400,13.85273828125,0.14691996574401855,0.04305267333984375,-0.14900636672973633
1761401410151928800,13.8729287109375,0.13539749383926392,-0.0019092559814453125,-0.04532217979431152
1761401410172091000,13.8930908203125,0.10355484485626221,0.04398632049560547,0.043752193450927734
1761401410192231000,13.91323095703125,0.10409855842590332,0.048309326171875,0.11510419845581055
1761401410212396300,13.933396240234375,0.17082470655441284,0.026666641235351562,0.16513776779174805
1761401410232577000,13.953576904296876,0.20860427618026733,0.0363311767578125,0.10921883583068848
1761401410252738600,13.973738525390624,0.17388677597045898,0.052451133728027344,0.0025718212127685547
1761401410272900900,13.99390087890625,0.12867510318756104,0.02318859100341797,-0.11394858360290527
1761401410293062400,14.0140625,0.09226399660110474,0.07955074310302734,-0.07179141044616699
1761401410313225700,14.034225830078125,0.11189061403274536,0.14787864685058594,-0.019661426544189453
1761401410333363500,14.054363525390626,0.1491471529006958,0.157379150390625,-0.012877941131591797
1761401410353548000,14.074548095703125,0.19881707429885864,0.15545654296875,-0.018972158432006836
1761401410373710000,14.0947099609375,0.230421781539917,0.09879589080810547,-0.08776426315307617
1761401410393872600,14.11487255859375,0.2296069860458374,0.003753662109375,-0.15446162223815918
1761401410414011100,14.13501123046875,0.21479207277297974,-0.017925262451171875,-0.13017535209655762
1761401410434196000,14.155196044921874,0.16050857305526733,0.033034324645996094,0.012904882431030273
1761401410454358000,14.17535791015625,0.08675765991210938,0.11413002014160156,0.06825995445251465
1761401410474519800,14.195519775390625,-0.007819950580596924,0.053536415100097656,0.01709604263305664
1761401410494681300,14.215681396484374,-0.05951523780822754,0.011763572692871094,0.02913832664489746
1761401410514844200,14.23584423828125,-0.1312718391418457,-0.009629249572753906,0.11603426933288574
1761401410535005700,14.256005615234375,-0.16349899768829346,0.12047195434570312,0.22456741333007812
1761401410555167500,14.27616748046875,-0.13137024641036987,0.07406330108642578,0.17228150367736816
1761401410575330000,14.296330078125,-0.05568408966064453,-0.1052703857421875,0.10093140602111816
1761401410595460600,14.316460693359375,-0.14405757188796997,-0.12256050109863281,0.11040043830871582
1761401410615653400,14.3366533203125,-0.20691299438476562,0.064300537109375,0.18889474868774414
1761401410635815700,14.356815673828125,-0.13941961526870728,0.13726139068603516,0.2022852897644043
1761401410655977000,14.37697705078125,0.006093263626098633,0.030449867248535156,0.11747288703918457
1761401410676138800,14.397138671875,0.0885809063911438,-0.07947921752929688,0.045723915100097656
1761401410696300800,14.41730078125,0.02265864610671997,-0.07514572143554688,-0.015275239944458008
1761401410716440800,14.43744091796875,-0.006392776966094971,0.07253646850585938,-0.0294191837310791
1761401410736625200,14.457625244140624,0.029819905757904053,0.07476520538330078,-0.012279272079467773
1761401410756786400,14.477786376953125,0.054632723331451416,0.009479522705078125,0.06649565696716309
1761401410776948700,14.49794873046875,0.008002638816833496,0.025989532470703125,0.05175471305847168
1761401410797110500,14.518110595703124,-0.0007903575897216797,0.08798599243164062,-0.05516362190246582
1761401410817273300,14.5382734375,0.035788655281066895,0.0449981689453125,-0.12174630165100098
1761401410837434600,14.5584345703125,0.07137995958328247,0.0024471282958984375,-0.08361077308654785
1761401410857579300,14.578579345703124,0.010546743869781494,0.07350349426269531,-0.05054211616516113
1761401410877758500,14.598758544921875,0.008869707584381104,0.0762796401977539,0.024570226669311523
1761401410897921000,14.618921142578126,-0.018000304698944092,-0.07449054718017578,0.09877514839172363
1761401410918060300,14.639060302734375,-0.06282472610473633,0.028978347778320312,0.04335141181945801
1761401410938254000,14.659254150390625,0.006465613842010498,0.0199737548828125,-0.02206134796142578
1761401410958406100,14.67940625,0.026680350303649902,0.06937026977539062,-0.06660795211791992
1761401410978567700,14.699567626953124,0.01031041145324707,0.08850574493408203,-0.10684823989868164
1761401410998707000,14.71970703125,0.0028928518295288086,0.06450462341308594,-0.06898069381713867
1761401411018892300,14.739892333984375,-0.05283540487289429,0.10721111297607422,-0.1085808277130127
1761401411039053600,14.760053466796874,-0.015058577060699463,0.09599018096923828,-0.0610051155090332
1761401411059192800,14.78019287109375,0.03939247131347656,0.005225181579589844,-0.02904343605041504
1761401411079377400,14.80037744140625,0.036069393157958984,-0.002277374267578125,-0.06856298446655273
1761401411099539700,14.820539794921874,-0.025242745876312256,0.05079364776611328,-0.056389570236206055
1761401411119659300,14.8406591796875,-0.024586081504821777,0.08847713470458984,-0.040441274642944336
1761401411139863800,14.86086376953125,-0.024688363075256348,0.07918453216552734,-0.025528430938720703
1761401411160025300,14.881025390625,-0.02908986806869507,0.037255287170410156,0.0658559799194336
1761401411180187600,14.901187744140625,-0.043000876903533936,-0.005024909973144531,0.0915834903717041
1761401411200330200,14.921330322265625,-0.04697585105895996,0.02513599395751953,0.05474400520324707
1761401411220512500,14.941512451171874,-0.02225857973098755,0.06270885467529297,0.04778861999511719
1761401411240673500,14.961673583984375,-0.02388310432434082,0.031044960021972656,0.049674272537231445
1761401411260835600,14.981835693359375,-0.04183661937713623,0.01765918731689453,0.03719162940979004
1761401411280996600,15.00199658203125,-0.008529186248779297,0.046520233154296875,0.02447056770324707
1761401411301160000,15.022159912109375,-0.018707871437072754,0.04642772674560547,-0.0039784908294677734
1761401411321321200,15.0423212890625,-0.008163630962371826,0.02216815948486328,0.019429445266723633
1761401411341483500,15.0624833984375,-0.01788109540939331,0.029876708984375,0.038127899169921875
1761401411361645300,15.082645263671875,0.007330596446990967,0.07082653045654297,0.046758174896240234
1761401411381806800,15.102806884765625,0.020849943161010742,0.030710220336914062,0.01165628433227539
1761401411401969000,15.122968994140624,0.01936471462249756,0.023453712463378906,0.04602670669555664
1761401411422130200,15.143130126953125,0.018277764320373535,0.0633382797241211,0.016625165939331055
1761401411442291200,15.163291259765625,0.03052663803100586,0.044678688049316406,0.0007948875427246094
1761401411462455000,15.183455078125,0.05073350667953491,0.01727294921875,-0.015784263610839844
1761401411482615800,15.20361572265625,0.045326411724090576,0.040230751037597656,0.003515481948852539
1761401411502778600,15.223778564453125,-0.009614646434783936,0.06188201904296875,0.0025396347045898438
1761401411522912800,15.243912841796876,0.038263797760009766,0.02030467987060547,-0.0017313957214355469
1761401411543079700,15.26407958984375,0.01819455623626709,0.03417015075683594,0.004892110824584961
1761401411563264300,15.28426416015625,0.014065265655517578,0.03549480438232422,0.028966665267944336
1761401411583426000,15.304426025390624,0.040212035179138184,0.017330169677734375,0.01261281967163086
1761401411603567000,15.324567138671876,0.04394078254699707,0.027220726013183594,-0.0088958740234375
1761401411623731200,15.344731201171875,0.010708153247833252,0.07378673553466797,-0.013877153396606445
1761401411643911700,15.36491162109375,-0.029040992259979248,0.07624435424804688,0.023193359375
