time,seconds_elapsed,z,y,x
1761400815354868000,0.123867919921875,-0.881739616394043,-9.082703590393066,0.7837269902229309
1761400815364968700,0.13396875,-0.9888800978660583,-9.180865287780762,0.7808090448379517
1761400815375049500,0.144049560546875,-1.095272421836853,-9.40060806274414,0.8491185903549194
1761400815385120000,0.1541201171875,-1.1124807596206665,-9.512088775634766,0.9192986488342285
1761400815395202800,0.164202880859375,-1.0236709117889404,-9.510068893432617,0.9347861409187317
1761400815405280500,0.174280517578125,-1.0130466222763062,-9.438467025756836,0.9356091618537903
1761400815415361300,0.184361328125,-0.9163058996200562,-9.341950416564941,1.0449942350387573
1761400815425442000,0.194442138671875,-0.8216601014137268,-9.187824249267578,1.0266636610031128
1761400815435532300,0.2045322265625,-0.7906851172447205,-8.97189712524414,0.9638906121253967
1761400815445613800,0.21461376953125,-0.8023568391799927,-8.734795570373535,0.9763853549957275
1761400815455683800,0.224683837890625,-0.7595604658126831,-8.686014175415039,1.0554687976837158
1761400815465785900,0.234785888671875,-0.7181108593940735,-8.72873592376709,1.0575637817382812
1761400815475847000,0.244846923828125,-0.8020575642585754,-8.634538650512695,0.9862614870071411
1761400815485937400,0.2549375,-0.8030301928520203,-8.655263900756836,1.020678162574768
1761400815496005000,0.265005126953125,-0.783801794052124,-8.809016227722168,0.941444993019104
1761400815506100700,0.275100830078125,-0.792705237865448,-8.793229103088379,0.9026140570640564
1761400815516182000,0.28518212890625,-0.7693617343902588,-8.794501304626465,0.9659855961799622
1761400815526250500,0.29525048828125,-0.743025541305542,-8.835053443908691,0.9512462615966797
1761400815536330200,0.305330322265625,-0.806696355342865,-8.82203483581543,0.85487961769104
1761400815546398200,0.315398193359375,-0.7897872924804688,-8.78193187713623,0.7725041508674622
1761400815556505000,0.325505126953125,-0.7463923692703247,-8.908899307250977,0.6789806485176086
1761400815566585600,0.335585693359375,-0.6061071157455444,-9.033697128295898,0.6073790192604065
1761400815576654000,0.345654052734375,-0.4644751250743866,-9.128118515014648,0.49567458033561707
1761400815586753800,0.35575390625,-0.43118077516555786,-9.229273796081543,0.3684826195240021
1761400815596827000,0.365826904296875,-0.4272153675556183,-9.378387451171875,0.4354454278945923
1761400815606909400,0.375909423828125,-0.38411974906921387,-9.59177017211914,0.6141127347946167
1761400815616990700,0.38599072265625,-0.4712088108062744,-9.942147254943848,0.792705237865448
1761400815627070700,0.39607080078125,-0.5824643969535828,-10.368240356445312,0.992321789264679
1761400815637151700,0.40615185546875,-0.6085013151168823,-10.792238235473633,1.021650791168213
1761400815647217700,0.4162177734375,-0.5963058471679688,-11.317241668701172,0.9864858984947205
1761400815657313500,0.4263134765625,-0.36399346590042114,-11.817405700683594,0.8739584684371948
1761400815667383000,0.436383056640625,-0.22924481332302094,-12.386178016662598,0.5556792616844177
1761400815687555800,0.456555908203125,-0.2933645248413086,-14.079401969909668,0.1678185760974884
1761400815697628700,0.466628662109375,-0.2965069115161896,-14.921487808227539,0.13789105415344238
1761400815707708400,0.47670849609375,-0.33997663855552673,-15.356484413146973,-0.056338559836149216
1761400815717790500,0.48679052734375,-0.2568529546260834,-15.399430274963379,-0.15809212625026703
1761400815727868700,0.49686865234375,-0.12023381888866425,-15.310470581054688,-0.0463128387928009
1761400815737949000,0.506948974609375,-0.01593640446662903,-15.42479419708252,0.13759177923202515
1761400815748041200,0.517041259765625,0.0578349344432354,-15.789161682128906,0.5346551537513733
1761400815758122200,0.527122314453125,-0.009202713146805763,-16.065168380737305,0.6901286244392395
1761400815768191500,0.53719140625,0.05297171324491501,-16.60550880432129,0.8519617319107056
1761400815778271000,0.54727099609375,0.0752677172422409,-17.498620986938477,0.95162034034729
1761400815788349400,0.557349365234375,-0.14028525352478027,-18.529550552368164,1.1124060153961182
1761400815798443500,0.567443603515625,-0.25812485814094543,-19.464784622192383,1.3518261909484863
1761400815808526800,0.57752685546875,-0.3090016543865204,-20.397327423095703,1.5025112628936768
1761400815818607900,0.58760791015625,-0.276754766702652,-21.253253936767578,1.3929016590118408
1761400815828688100,0.597688232421875,-0.012494740076363087,-21.92609977722168,1.1967267990112305
1761400815838754000,0.607754150390625,0.2910451292991638,-22.015731811523438,0.7389104962348938
1761400815848838000,0.617837890625,0.563535213470459,-21.479656219482422,0.15263035893440247
1761400815858905300,0.6279052734375,0.7746738791465759,-20.483293533325195,-0.2472013235092163
1761400815868999400,0.63799951171875,0.9077017307281494,-19.137752532958984,-0.6166566014289856
1761400815879086800,0.6480869140625,1.021575927734375,-17.54298973083496,-0.8922890424728394
1761400815889173000,0.658173095703125,1.1161469221115112,-15.96393871307373,-1.1616367101669312
1761400815899254300,0.668254150390625,1.184755802154541,-14.229713439941406,-1.3306523561477661
1761400815909328000,0.678327880859375,1.1885714530944824,-12.538957595825195,-1.3415011167526245
1761400815919403300,0.6884033203125,1.003769040107727,-10.996942520141602,-1.143680214881897
1761400815929497000,0.6984970703125,0.7065888047218323,-9.382502555847168,-0.6885574460029602
1761400815939564500,0.708564453125,0.35673606395721436,-7.755941390991211,-0.35015198588371277
1761400815949658000,0.718658203125,0.11095628142356873,-6.275501728057861,-0.24084173142910004
1761400815959726600,0.7287265625,-0.3196259140968323,-5.112219333648682,-0.25827449560165405
1761400815969798100,0.738798095703125,-0.7218518257141113,-4.124910354614258,-0.10197802633047104
1761400815979890700,0.748890625,-1.1019313335418701,-3.222745180130005,0.06958148628473282
1761400815989979400,0.7589794921875,-1.3986626863479614,-2.514061450958252,0.41606736183166504
1761400816000063000,0.76906298828125,-1.6708534955978394,-2.0579659938812256,0.8114098906517029
1761400816010131500,0.77913134765625,-1.9048118591308594,-1.5856349468231201,0.8628104329109192
1761400816020224300,0.789224365234375,-2.0831050872802734,-1.1680711507797241,0.8291419744491577
1761400816030293000,0.79929296875,-2.1475989818573,-1.039382815361023,0.9269301295280457
1761400816040376000,0.8093759765625,-2.183661699295044,-0.9544634819030762,0.9719710946083069
1761400816050456600,0.81945654296875,-2.0563199520111084,-0.5438578724861145,0.763301432132721
1761400816060546000,0.829546142578125,-1.71477210521698,0.04578910768032074,0.5597943067550659
1761400816070626800,0.839626708984375,-1.4829834699630737,0.6287772059440613,0.2513911724090576
1761400816080708000,0.8497080078125,-1.5640870332717896,1.3055132627487183,-0.4356698989868164
1761400816090790100,0.8597900390625,-1.8302923440933228,1.1892448663711548,-1.079036831855774
1761400816100882000,0.8698818359375,-2.115351915359497,0.37229835987091064,-1.1449521780014038
1761400816110952200,0.8799521484375,-2.3067386150360107,-0.13429975509643555,-0.795174241065979
1761400816121038800,0.890038818359375,-2.276736259460449,-0.20216040313243866,-0.31872808933258057
1761400816131114000,0.900114013671875,-2.155080795288086,-0.16998831927776337,0.14365209639072418
1761400816141182000,0.910181884765625,-2.048987627029419,-0.39474400877952576,0.6598270535469055
1761400816151251200,0.920251220703125,-1.7840543985366821,-0.6860884428024292,1.1341782808303833
1761400816161357000,0.930357177734375,-1.1933598518371582,-0.6547393202781677,1.2550106048583984
1761400816171424300,0.94042431640625,-0.5446808934211731,-0.2429366558790207,1.0475380420684814
1761400816181491500,0.950491455078125,0.030376434326171875,0.03950432687997818,0.5312883257865906
1761400816191598800,0.960598876953125,0.2801964282989502,0.20343232154846191,-0.41861119866371155
1761400816201679600,0.9706796875,0.3506008982658386,0.11701660603284836,-1.3299041986465454
1761400816211728400,0.980728271484375,0.39055415987968445,-0.7247697710990906,-1.66928231716156
1761400816221842200,0.99084228515625,0.23994390666484833,-1.7805378437042236,-1.4928596019744873
1761400816231896800,1.000896728515625,0.07234977930784225,-2.4759037494659424,-0.9513959288597107
1761400816242000100,1.011000244140625,0.07227496057748795,-3.115903854370117,-0.5642085671424866
1761400816252084700,1.021084716796875,0.4480150043964386,-3.7941362857818604,-0.33586159348487854
1761400816262126600,1.031126708984375,0.7154921889305115,-4.273874282836914,-0.233135387301445
1761400816272220200,1.04122021484375,0.6569839119911194,-4.821922302246094,-0.15809212625026703
1761400816282315500,1.0513154296875,0.4705354571342468,-5.51197624206543,0.19295769929885864
1761400816292408000,1.061407958984375,0.5071966648101807,-6.583007335662842,0.8283189535140991
1761400816302489000,1.071489013671875,0.37574002146720886,-7.592462539672852,1.2120646238327026
1761400816312544000,1.0815439453125,0.7139210104942322,-8.743624687194824,1.1811645030975342
1761400816322627000,1.091626953125,1.0081833600997925,-9.932046890258789,0.6379051208496094
1761400816332704800,1.101704833984375,1.3833997249603271,-10.764256477355957,0.6332663297653198
1761400816342812200,1.111812255859375,1.5919196605682373,-11.350536346435547,0.6559364199638367
1761400816352867800,1.121867919921875,1.3299041986465454,-12.140996932983398,0.5554547905921936
1761400816362948400,1.1319482421875,1.2732664346694946,-13.220183372497559,0.8347533941268921
1761400816373029400,1.142029296875,0.8225579261779785,-14.452598571777344,0.918550431728363
1761400816383110000,1.15210986328125,0.39377135038375854,-15.973589897155762,0.7582137584686279
1761400816393191000,1.16219091796875,0.49298110604286194,-17.071481704711914,0.2927659749984741
1761400816403260200,1.17226025390625,0.899471640586853,-17.793033599853516,-0.24765023589134216
1761400816413362200,1.182362060546875,1.3647698163986206,-18.303373336791992,-0.7606827616691589
1761400816423442400,1.1924423828125,1.6598551273345947,-19.1898250579834,-0.8057236671447754
1761400816433539300,1.202539306640625,1.573813557624817,-20.57681655883789,-0.25423428416252136
1761400816443616300,1.2126162109375,1.2841150760650635,-22.018051147460938,0.3892074227333069
1761400816453676000,1.222676025390625,1.3235446214675903,-23.288997650146484,0.9678560495376587
1761400816463782400,1.232782470703125,1.9259108304977417,-24.33541488647461,1.4413094520568848
1761400816473862700,1.242862548828125,2.5925464630126953,-24.468366622924805,1.830741286277771
1761400816483943400,1.252943359375,3.1630396842956543,-24.071378707885742,2.339733600616455
1761400816494024700,1.263024658203125,3.1500213146209717,-23.94149398803711,2.7712135314941406
1761400816514187000,1.28318701171875,2.585812568664551,-25.011926651000977,2.8460323810577393
1761400816524267500,1.293267578125,2.7420341968536377,-24.769962310791016,2.41507625579834
1761400816534323200,1.3033232421875,3.0078654289245605,-24.465150833129883,2.062904119491577
1761400816544410400,1.313410400390625,3.0587422847747803,-24.023420333862305,1.858648657798767
1761400816554509600,1.323509521484375,3.026869535446167,-23.74337387084961,1.7474679946899414
1761400816564590600,1.333590576171875,2.906934976577759,-23.309797286987305,1.4583680629730225
1761400816574672000,1.343671875,2.8011412620544434,-22.842031478881836,1.0736498832702637
1761400816604914200,1.3739140625,2.1989245414733887,-21.751022338867188,0.7842506766319275
1761400816614995700,1.38399560546875,1.8411411046981812,-21.402742385864258,1.0019733905792236
1761400816625075500,1.394075439453125,1.525405764579773,-21.10855484008789,1.2236615419387817
1761400816635157500,1.404157470703125,1.3481600284576416,-20.3599910736084,1.143904685974121
1761400816645237800,1.41423779296875,1.081056833267212,-19.458051681518555,0.9070283770561218
1761400816655318000,1.424318115234375,0.9394248723983765,-18.365772247314453,1.041926622390747
1761400816665399800,1.43439990234375,0.9774328470230103,-17.127296447753906,1.2141594886779785
1761400816675480000,1.44447998046875,1.0859949588775635,-15.562235832214355,1.1067945957183838
1761400816685540400,1.454540283203125,1.2194716930389404,-13.374011039733887,0.6146364808082581
1761400816695641900,1.464641845703125,1.2343605756759644,-10.72946548461914,-0.6075286865234375
1761400816705722600,1.47472265625,0.36317047476768494,-8.638877868652344,-1.9636943340301514
1761400816715804000,1.484803955078125,-0.9573065638542175,-7.384466171264648,-2.508824110031128
1761400816725885000,1.494885009765625,-2.2666356563568115,-6.648772716522217,-2.2708253860473633
1761400816735965700,1.504965576171875,-3.310657262802124,-6.030470371246338,-1.6879122257232666
1761400816746020900,1.515020751953125,-3.9291841983795166,-4.958765983581543,-1.0371382236480713
1761400816756115000,1.525114990234375,-3.9740006923675537,-3.646219491958618,-0.5095160603523254
1761400816766208800,1.535208740234375,-3.9742252826690674,-2.4280197620391846,0.3083283007144928
1761400816776289300,1.545289306640625,-3.785532236099243,-1.4334534406661987,1.1887211799621582
1761400816786369500,1.55536962890625,-3.979686975479126,-0.7041197419166565,2.078690767288208
1761400816796450300,1.5654501953125,-4.107253074645996,-0.04436755180358887,2.507103204727173
1761400816806531600,1.575531494140625,-3.8866124153137207,-0.26164135336875916,2.449866771697998
1761400816816611800,1.58561181640625,-3.6293106079101562,-0.5689970254898071,2.0266168117523193
1761400816826694000,1.59569384765625,-3.3384897708892822,-0.5695207118988037,1.4609867334365845
1761400816836774400,1.6057744140625,-2.909179449081421,-0.47667059302330017,0.8567501306533813
1761400816846829600,1.61582958984375,-2.589254379272461,-0.13018471002578735,0.28962358832359314
1761400816856936000,1.62593603515625,-2.3214778900146484,0.3390040099620819,-0.12217910587787628
1761400816867016400,1.636016357421875,-1.936460256576538,0.8267477750778198,-0.1710357815027237
1761400816877084400,1.64608447265625,-1.7515082359313965,1.157970666885376,-0.15966331958770752
1761400816887178500,1.656178466796875,-2.2090251445770264,1.3519757986068726,-0.2198176383972168
1761400816897239800,1.66623974609375,-2.7364230155944824,1.4949544668197632,-0.08072949200868607
1761400816907340500,1.676340576171875,-2.8778305053710938,1.4065934419631958,0.530465304851532
1761400816917420800,1.6864208984375,-2.488847494125366,0.996362030506134,0.8934113383293152
1761400816927476200,1.696476318359375,-2.080411672592163,0.224905326962471,1.0041431188583374
1761400816937582600,1.70658251953125,-1.9783587455749512,-0.21779753267765045,1.1193641424179077
1761400816947638800,1.716638671875,-1.8826655149459839,-0.02693476900458336,1.1670236587524414
1761400816957745000,1.726744873046875,-1.5017629861831665,0.005461772438138723,0.8206126093864441
1761400816967825200,1.7368251953125,-0.9629179835319519,-0.44262802600860596,0.26665422320365906
1761400816977881000,1.746881103515625,-0.5146785378456116,-1.157970666885376,-0.05222352594137192
1761400816987992000,1.756991943359375,-0.28902503848075867,-1.7527800798416138,-0.21218612790107727
1761400816998045200,1.767045166015625,0.02528875507414341,-2.0620062351226807,0.017133506014943123
1761400817008145200,1.777145263671875,0.842235267162323,-2.2997803688049316,0.5369745492935181
1761400817018227000,1.78722705078125,1.951723337173462,-2.6109516620635986,1.2523170709609985
1761400817028295400,1.79729541015625,3.0341269969940186,-2.9979894161224365,1.959205150604248
1761400817038391600,1.8073916015625,3.975646734237671,-3.2741456031799316,2.3826048374176025
1761400817048446700,1.81744677734375,4.088024616241455,-3.276240587234497,2.238877773284912
1761400817058553000,1.827552978515625,3.716249942779541,-3.243694305419922,1.698461651802063
1761400817068633600,1.837633544921875,3.441215991973877,-3.541996955871582,1.1056722402572632
1761400817078694100,1.847694091796875,3.129520893096924,-4.122066974639893,0.48317983746528625
1761400817088770300,1.857770263671875,2.7852795124053955,-4.679616928100586,-0.03613748028874397
1761400817098876200,1.867876220703125,2.6027965545654297,-5.309666156768799,-0.1794154942035675
1761400817108957200,1.877957275390625,2.759317398071289,-6.310367584228516,0.2934393584728241
1761400817119038200,1.8880380859375,3.1710453033447266,-7.147664546966553,1.2053309679031372
1761400817129112800,1.89811279296875,3.534440279006958,-7.9812211990356445,1.712377905845642
1761400817139174700,1.908174560546875,3.881150484085083,-9.055020332336426,2.3283610343933105
1761400817149257700,1.9182578125,4.05353307723999,-10.133907318115234,2.9531729221343994
1761400817159361500,1.928361572265625,3.860201358795166,-10.794707298278809,3.1769559383392334
1761400817169441800,1.93844189453125,3.6501102447509766,-11.030311584472656,3.060612678527832
1761400817179518000,1.94851806640625,3.676745653152466,-12.046126365661621,2.767622232437134
1761400817189603800,1.958603759765625,3.8460605144500732,-13.794342994689941,2.388066530227661
1761400817199659000,1.968658935546875,4.169651985168457,-15.38588809967041,2.0860230922698975
1761400817209737000,1.978737060546875,4.688819408416748,-16.061052322387695,2.1746084690093994
1761400817219821300,1.9888212890625,5.493645668029785,-15.927576065063477,2.5085997581481934
1761400817229927700,1.998927734375,6.279392719268799,-15.602937698364258,2.230273723602295
1761400817239986700,2.008986572265625,5.72476053237915,-16.27391242980957,1.964442491531372
1761400817250089200,2.019089111328125,4.997073173522949,-18.541820526123047,2.5959880352020264
1761400817260170200,2.029170166015625,4.180201530456543,-21.103166580200195,3.114407539367676
1761400817270226200,2.03922607421875,3.671882390975952,-23.571962356567383,3.4641106128692627
1761400817280329200,2.0493291015625,3.8786067962646484,-24.92760467529297,3.6947021484375
1761400817290412500,2.05941259765625,4.028618335723877,-25.714099884033203,3.6581156253814697
1761400817300468200,2.06946826171875,4.195838451385498,-25.91813087463379,3.220350980758667
1761400817310548700,2.079548828125,4.997297286987305,-23.823429107666016,3.759270668029785
1761400817320630300,2.08963037109375,5.5370402336120605,-22.77155113220215,3.6639516353607178
1761400817330732000,2.09973193359375,5.543699264526367,-21.82097816467285,3.1115643978118896
1761400817340791300,2.109791259765625,5.240608215332031,-21.36690330505371,2.6884641647338867
1761400817350897400,2.1198974609375,4.637119770050049,-21.980791091918945,2.7007343769073486
1761400817360978400,2.129978515625,4.230105400085449,-22.511930465698242,2.960505247116089
1761400817371082800,2.140082763671875,4.116680145263672,-22.936302185058594,3.061884641647339
1761400817381140000,2.150139892578125,4.088772773742676,-23.319374084472656,2.787973165512085
1761400817391221000,2.160220947265625,4.12835168838501,-23.012617111206055,2.6559178829193115
1761400817401276400,2.1702763671875,4.2416276931762695,-23.157691955566406,2.4366986751556396
1761400817411358000,2.18035791015625,4.725854873657227,-22.413991928100586,2.436549186706543
1761400817421438700,2.190438720703125,5.401693344116211,-21.71653175354004,2.36651873588562
1761400817431544800,2.200544921875,5.897966384887695,-21.029245376586914,1.8857331275939941
1761400817441624800,2.210624755859375,6.16334867477417,-20.471622467041016,1.603217363357544
1761400817451706000,2.2207060546875,6.078354358673096,-19.736003875732422,1.3585598468780518
1761400817461782800,2.23078271484375,6.055534839630127,-18.61858367919922,1.105522632598877
1761400817471868000,2.240867919921875,5.990816593170166,-17.391630172729492,0.8598924875259399
1761400817481949200,2.25094921875,6.11905574798584,-15.933486938476562,0.46155720949172974
1761400817492029200,2.261029296875,5.885097503662109,-14.47938346862793,-0.3115454912185669
1761400817502110200,2.271110107421875,5.413514614105225,-13.237765312194824,-0.5012111663818359
1761400817512191700,2.281191650390625,4.869656562805176,-11.865289688110352,-0.5276222229003906
1761400817522268200,2.29126806640625,4.40196418762207,-10.6732759475708,-0.6047604084014893
1761400817532353000,2.30135302734375,3.698143720626831,-9.275586128234863,-0.9433154463768005
1761400817542435000,2.31143505859375,2.469843626022339,-8.502035140991211,-1.616909146308899
1761400817552515000,2.32151513671875,0.9507973790168762,-7.973215579986572,-2.1127333641052246
1761400817562596400,2.331596435546875,-0.289399117231369,-6.420425891876221,-1.162908673286438
1761400817572676600,2.341676513671875,-1.6519991159439087,-5.689820289611816,-0.019228432327508926
1761400817582757400,2.35175732421875,-2.7283425331115723,-5.729474067687988,1.0001777410507202
1761400817592833500,2.36183349609375,-2.9730000495910645,-5.776161193847656,1.7184382677078247
1761400817602919200,2.371919189453125,-2.6895864009857178,-5.185616493225098,1.990928292274475
1761400817612975000,2.38197509765625,-2.4876503944396973,-4.827009677886963,2.4123077392578125
1761400817623080400,2.39208056640625,-2.762833833694458,-4.310610294342041,2.8122143745422363
1761400817633161500,2.402161376953125,-2.9296798706054688,-3.74827241897583,2.8988544940948486
1761400817643242500,2.412242431640625,-2.853813648223877,-3.242422580718994,2.6342203617095947
1761400817653319700,2.422319580078125,-2.4535329341888428,-2.6447699069976807,2.0079121589660645
1761400817663404000,2.432404052734375,-2.024596929550171,-2.1027824878692627,1.194931149482727
1761400817673485000,2.442485107421875,-1.8101661205291748,-1.6037410497665405,0.6612485647201538
1761400817683565600,2.452565673828125,-1.9407249689102173,-1.1597663164138794,0.36571431159973145
1761400817693616400,2.462616455078125,-1.9821745157241821,-0.3544166684150696,0.3241150677204132
1761400817703694000,2.472694091796875,-2.0127005577087402,0.6401496529579163,0.37244799733161926
1761400817713808600,2.48280859375,-2.202291488647461,1.6103999614715576,0.4611082971096039
1761400817723885300,2.49288525390625,-2.223240852355957,2.2833950519561768,0.6049100160598755
1761400817733970200,2.50297021484375,-2.0080618858337402,2.4142532348632812,0.6681318879127502
1761400817744051000,2.513051025390625,-1.920823097229004,2.086172580718994,0.6887819170951843
1761400817754132200,2.52313232421875,-1.9159599542617798,1.6251392364501953,0.6414964199066162
1761400817764207400,2.533207275390625,-1.9874118566513062,1.4173674583435059,0.7984662652015686
1761400817774293500,2.54329345703125,-2.0167407989501953,1.5055040121078491,1.2490999698638916
1761400817784374800,2.553374755859375,-2.047865390777588,1.5579519271850586,1.8106898069381714
1761400817794455300,2.563455322265625,-1.687089204788208,1.5301192998886108,2.1116859912872314
1761400817804536300,2.573536376953125,-1.2798504829406738,1.374122142791748,2.153808832168579
1761400817814617600,2.58361767578125,-0.9751134514808655,1.1783961057662964,2.0376901626586914
1761400817824697900,2.59369775390625,-0.6340145468711853,1.059808373451233,1.8289456367492676
1761400817834778400,2.6037783203125,-0.33099839091300964,1.0048913955688477,1.6018705368041992
1761400817844859600,2.613859619140625,-0.15584756433963776,0.6165817379951477,1.4730325937271118
1761400817854943700,2.62394384765625,0.17148469388484955,-0.25101709365844727,1.3872153759002686
1761400817865017900,2.634017822265625,0.39205053448677063,-1.2242600917816162,1.3309516906738281
1761400817875102200,2.644102294921875,0.7288099527359009,-1.887005090713501,1.0618284940719604
1761400817885183000,2.654182861328125,1.0555436611175537,-2.211120128631592,0.6089502573013306
1761400817895264300,2.66426416015625,1.1741315126419067,-2.2438907623291016,0.27899932861328125
1761400817905344800,2.6743447265625,1.1915642023086548,-2.7135283946990967,0.11544541269540787
1761400817915413200,2.684413330078125,1.4692168235778809,-3.4165258407592773,0.28476035594940186
1761400817925504300,2.694504150390625,2.1530606746673584,-4.728323936462402,0.840888500213623
1761400817935571000,2.704571044921875,3.3285388946533203,-5.997849464416504,1.2111667394638062
1761400817945676000,2.714676025390625,4.004152774810791,-6.602909088134766,0.6813748478889465
1761400817955753500,2.72475341796875,4.197110176086426,-6.651166915893555,-0.25580549240112305
1761400817965827800,2.734827880859375,4.492868900299072,-7.362020492553711,-0.48736968636512756
1761400817975908900,2.744908935546875,4.906167984008789,-8.756269454956055,-0.13856442272663116
1761400817985979400,2.7549794921875,5.461248874664307,-10.790218353271484,0.07115267962217331
1761400817996072700,2.76507275390625,6.161627769470215,-12.5756196975708,-0.047061026096343994
1761400818006142500,2.775142578125,6.892457962036133,-14.184298515319824,0.05065232887864113
1761400818016221700,2.7852216796875,7.43369722366333,-15.669526100158691,0.0005237316363491118
1761400818026315000,2.79531494140625,8.057536125183105,-17.36791229248047,-0.27151742577552795
1761400818036384800,2.805384765625,8.816722869873047,-18.28736114501953,-0.9936684966087341
1761400818046475300,2.815475341796875,9.3573637008667,-18.70163345336914,-1.8558056354522705
1761400818056545000,2.825544921875,9.429488182067871,-19.256189346313477,-2.2375311851501465
1761400818066626300,2.835626220703125,9.320552825927734,-20.030864715576172,-2.008136749267578
1761400818076722000,2.845721923828125,9.235333442687988,-20.865318298339844,-1.3825018405914307
1761400818086812000,2.85581201171875,9.006013870239258,-21.953857421875,-0.42354923486709595
1761400818096879400,2.86587939453125,8.99815845489502,-22.699800491333008,0.4985176920890808
1761400818106962000,2.8759619140625,8.760533332824707,-23.509563446044922,1.2173019647598267
1761400818117043000,2.88604296875,7.956456184387207,-24.525005340576172,1.656488299369812
1761400818127112700,2.89611279296875,7.569642543792725,-25.356616973876953,2.1205146312713623
1761400818137186000,2.90618603515625,7.739256858825684,-25.9129695892334,1.932719349861145
1761400818147273000,2.91627294921875,7.916053771972656,-25.68806266784668,1.0080337524414062
1761400818157364200,2.9263642578125,8.095319747924805,-25.04738998413086,0.44158056378364563
1761400818167434200,2.936434326171875,8.02962875366211,-25.02666473388672,0.2700958847999573
1761400818177528000,2.946528076171875,7.849091053009033,-25.075298309326172,0.2944868206977844
1761400818187609300,2.956609375,8.180014610290527,-23.95772933959961,0.6623708605766296
1761400818197677300,2.96667724609375,8.55605411529541,-22.918346405029297,0.7817816734313965
1761400818207758000,2.976758056640625,8.927603721618652,-21.96597671508789,0.3563619554042816
1761400818217846500,2.986846435546875,8.500463485717773,-21.109376907348633,0.3828478157520294
1761400818227930000,2.99693017578125,7.66346549987793,-21.29792022705078,1.3631237745285034
1761400818238013200,3.00701318359375,6.9771528244018555,-22.28620147705078,1.9616742134094238
1761400818248094200,3.01709423828125,6.594903469085693,-22.8596134185791,2.2778584957122803
1761400818258169600,3.027169677734375,6.152499675750732,-22.931589126586914,2.0144214630126953
1761400818268256000,3.037256103515625,5.932981491088867,-21.219810485839844,2.076895236968994
1761400818278339600,3.047339599609375,5.324031352996826,-20.328493118286133,1.8672528266906738
1761400818288415500,3.05741552734375,4.872798919677734,-19.746328353881836,2.0389621257781982
1761400818298498600,3.06749853515625,5.260136127471924,-18.49864959716797,1.6733973026275635
1761400818308567600,3.077567626953125,5.26799201965332,-17.076194763183594,0.2836380898952484
1761400818318660400,3.087660400390625,4.4607720375061035,-15.830087661743164,-1.1711387634277344
1761400818328724500,3.097724365234375,3.033902406692505,-15.090353965759277,-1.849969744682312
1761400818338808800,3.107808837890625,2.0488381385803223,-13.859659194946289,-1.5185972452163696
1761400818348902700,3.117902587890625,1.6924012899398804,-12.767603874206543,-0.8909423351287842
1761400818358981400,3.1279814453125,1.4989947080612183,-12.359317779541016,-0.7881412506103516
1761400818369064700,3.138064697265625,1.339780330657959,-12.100295066833496,-1.1700912714004517
1761400818379145500,3.1481455078125,0.4878185987472534,-11.933897972106934,-2.101959466934204
1761400818389213700,3.158213623046875,-0.022520460188388824,-8.770484924316406,-1.0902595520019531
1761400818399307000,3.16830712890625,-0.43447279930114746,-6.490082263946533,0.1454477459192276
1761400818409375000,3.178375,-0.9348609447479248,-5.478457450866699,0.5500678420066833
1761400818419443000,3.18844287109375,-1.1962778568267822,-4.761992454528809,0.8353519439697266
1761400818429528600,3.198528564453125,-1.2134861946105957,-4.030339241027832,1.306785225868225
1761400818439618000,3.2086181640625,-1.4045734405517578,-3.451017379760742,1.6956933736801147
1761400818449711400,3.21871142578125,-1.61339271068573,-3.2106244564056396,1.9575591087341309
1761400818459784000,3.228783935546875,-1.6915782690048218,-3.144484758377075,2.1955578327178955
1761400818469873200,3.238873046875,-1.9255367517471313,-3.069890260696411,2.3232734203338623
1761400818479952000,3.248951904296875,-2.3198318481445312,-2.9730746746063232,2.3383867740631104
1761400818490035700,3.25903564453125,-2.772336006164551,-2.294318675994873,2.044947624206543
1761400818500103200,3.269103271484375,-2.877082347869873,-1.2295721769332886,1.5039327144622803
1761400818510196500,3.279196533203125,-2.65906023979187,-0.2942623496055603,1.1440542936325073
1761400818520264700,3.2892646484375,-2.3856723308563232,0.4405331015586853,0.8975263833999634
1761400818530358000,3.29935791015625,-2.1435587406158447,1.0186580419540405,0.7471405863761902
1761400818540427800,3.309427734375,-1.9178303480148315,1.4786440134048462,0.5888239741325378
1761400818550517200,3.319517333984375,-1.7827075719833374,1.6196026802062988,0.5279214978218079
1761400818560589800,3.32958984375,-1.6663644313812256,1.6199018955230713,0.47973817586898804
1761400818570680300,3.339680419921875,-1.4511854648590088,1.5162779092788696,0.4395604729652405
1761400818580762600,3.3497626953125,-1.3591583967208862,1.5278748273849487,0.4489876329898834
1761400818590811600,3.359811767578125,-1.4533551931381226,1.9037644863128662,0.5692963004112244
1761400818600924200,3.369924072265625,-1.5743372440338135,2.423680305480957,0.7758709788322449
1761400818611000600,3.38000048828125,-1.6072574853897095,2.82747745513916,0.9620201587677002
1761400818621073400,3.390073486328125,-1.4899415969848633,2.7642555236816406,1.2012907266616821
1761400818631153700,3.400153564453125,-1.0987889766693115,2.2969372272491455,1.3911808729171753
1761400818641248000,3.410248046875,-0.5885995030403137,1.5503203868865967,1.4377928972244263
1761400818651328000,3.420327880859375,-0.0653168186545372,0.5758054852485657,1.4267197847366333
1761400818661402000,3.430402099609375,0.336460143327713,-0.2621650993824005,1.4451252222061157
1761400818671490000,3.440489990234375,0.5502923130989075,-0.9603741765022278,1.3765912055969238
1761400818681567700,3.450567626953125,0.5502923130989075,-1.4790180921554565,1.2918962240219116
1761400818691651800,3.46065185546875,0.6899790167808533,-1.7791911363601685,1.1543045043945312
1761400818701720800,3.470720947265625,0.838569164276123,-2.0481648445129395,1.0029460191726685
1761400818711813600,3.480813720703125,0.9872341156005859,-2.442384958267212,0.8559271097183228
1761400818721881600,3.490881591796875,1.0773159265518188,-3.0690672397613525,0.7462427616119385
1761400818731962600,3.500962646484375,1.1913398504257202,-3.8051347732543945,0.7806593775749207
1761400818742055000,3.511054931640625,1.5580267906188965,-4.601580619812012,0.847472608089447
1761400818752137000,3.521136962890625,2.0721068382263184,-5.351714134216309,0.8627356290817261
1761400818762218000,3.531218017578125,2.3989901542663574,-5.919514179229736,0.6226420998573303
1761400818772288300,3.541288330078125,2.5456349849700928,-6.361992359161377,0.18989011645317078
1761400818782379500,3.551379638671875,2.5359084606170654,-6.423493385314941,-0.17724575102329254
1761400818792460800,3.561460693359375,2.517428159713745,-6.000168800354004,-0.2050783336162567
1761400818802516000,3.571515869140625,2.6547207832336426,-5.6337809562683105,0.009726444259285927
1761400818812605700,3.581605712890625,2.7450270652770996,-6.104990005493164,0.22004209458827972
1761400818822703000,3.591703125,2.7957541942596436,-7.3611226081848145,0.21196167171001434
1761400818832784100,3.6017841796875,2.8833670616149902,-8.644938468933105,0.35509005188941956
1761400818842860500,3.611860595703125,3.2656164169311523,-9.561393737792969,0.6254851818084717
1761400818852945700,3.621945556640625,3.5322704315185547,-10.407968521118164,0.791508138179779
1761400818863020000,3.63202001953125,3.607762575149536,-11.392060279846191,1.0465654134750366
1761400818873105200,3.642105224609375,3.5398271083831787,-12.580931663513184,1.1248258352279663
1761400818883188500,3.6521884765625,3.41024112701416,-13.532177925109863,1.1181670427322388
1761400818893261300,3.66226123046875,3.3558478355407715,-14.098630905151367,1.0678887367248535
1761400818903350300,3.672350341796875,3.349039316177368,-14.596176147460938,0.8726117014884949
1761400818913431000,3.68243115234375,3.458648920059204,-14.971242904663086,0.714893639087677
1761400818923489500,3.692489501953125,3.734281301498413,-14.969596862792969,0.656609833240509
1761400818933590500,3.702590576171875,4.05353307723999,-14.712668418884277,0.5874772667884827
1761400818943673300,3.71267333984375,4.1395745277404785,-14.853178024291992,0.5196914076805115
1761400818953740000,3.722739990234375,4.109572410583496,-15.613561630249023,0.8383446931838989
1761400818963835100,3.732835205078125,3.9595606327056885,-16.97638702392578,1.1696423292160034
1761400818973891800,3.742891845703125,3.8808512687683105,-18.323274612426758,1.296385407447815
1761400818983987000,3.752987060546875,3.5422961711883545,-19.873519897460938,1.0030957460403442
1761400818994077400,3.763077392578125,3.0068180561065674,-20.690391540527344,1.0816553831100464
1761400819004143900,3.773143798828125,2.7799675464630127,-21.010168075561523,1.2047324180603027
1761400819014226700,3.783226806640625,2.551395893096924,-21.427507400512695,1.058835744857788
1761400819024308500,3.79330859375,2.4227824211120605,-21.682937622070312,1.0290578603744507
1761400819034413000,3.8034130859375,2.2316205501556396,-22.049474716186523,0.7920318245887756
1761400819044469000,3.813468994140625,1.6689082384109497,-23.176546096801758,0.21428105235099792
1761400819054557700,3.8235576171875,0.7359925508499146,-24.77347755432129,-0.3039887845516205
1761400819064641300,3.833641357421875,0.16138416528701782,-25.995195388793945,-0.3882347643375397
1761400819074724600,3.843724609375,-0.22288522124290466,-26.913969039916992,-0.5232079029083252
1761400819084795000,3.853794921875,-0.2876034677028656,-26.474557876586914,-0.37057754397392273
1761400819094886700,3.86388671875,-0.17627310752868652,-25.570598602294922,0.05686229094862938
1761400819104967000,3.873966796875,0.16265608370304108,-24.37738800048828,0.7716063261032104
1761400819115044400,3.88404443359375,0.6058078408241272,-23.312116622924805,1.3670144081115723
1761400819125117400,3.894117431640625,0.8814403414726257,-22.506393432617188,1.8213140964508057
1761400819135198000,3.904197998046875,1.2090718746185303,-22.010719299316406,2.3198318481445312
1761400819145269800,3.914269775390625,1.5923686027526855,-21.819782257080078,2.8080992698669434
1761400819155370800,3.924370849609375,1.7982699871063232,-21.688249588012695,3.132214307785034
1761400819165448400,3.934448486328125,2.0374655723571777,-21.535770416259766,3.1583261489868164
1761400819175531000,3.944531005859375,2.2987329959869385,-21.08551025390625,2.9577369689941406
1761400819185601000,3.95460107421875,2.4191911220550537,-20.658893585205078,2.4252514839172363
1761400819195692000,3.964692138671875,2.530222177505493,-19.969738006591797,1.9538930654525757
1761400819205776000,3.97477587890625,2.556034803390503,-19.386375427246094,1.2854619026184082
1761400819215853000,3.98485302734375,2.306588888168335,-18.94142723083496,0.7766191959381104
1761400819225937700,3.994937744140625,2.1710171699523926,-18.011205673217773,0.5550807118415833
1761400819236018000,4.005017822265625,2.178947925567627,-17.11001205444336,0.5116857886314392
1761400819246097200,4.01509716796875,2.299032211303711,-15.680524826049805,0.1562216579914093
1761400819256177400,4.025177490234375,2.3433997631073,-13.621661186218262,-0.3925742506980896
1761400819266260700,4.0352607421875,2.350806713104248,-11.154510498046875,-0.9687538743019104
1761400819276338700,4.045338623046875,2.1973533630371094,-8.753949165344238,-1.4954034090042114
1761400819286418200,4.055418212890625,1.9343653917312622,-6.5668463706970215,-1.7776199579238892
1761400819296503300,4.06550341796875,1.8241572380065918,-4.839504718780518,-1.913490891456604
1761400819306574300,4.07557421875,1.3935750722885132,-3.766827344894409,-1.9244892597198486
1761400819316663600,4.08566357421875,0.5613654851913452,-3.078195095062256,-1.8311153650283813
1761400819326743600,4.09574365234375,-0.5161001086235046,-1.9191771745681763,-1.6615760326385498
1761400819336827000,4.105826904296875,-1.3213748931884766,-0.5896469950675964,-1.141061544418335
1761400819346895600,4.1158955078125,-1.7137247323989868,0.057909753173589706,-0.5504419207572937
1761400819356975600,4.1259755859375,-1.8407670259475708,-0.03149871528148651,-0.12464812397956848
1761400819367050800,4.13605078125,-1.9351882934570312,-0.5336825251579285,0.20208558440208435
1761400819377149700,4.146149658203125,-2.1593453884124756,-1.1336544752120972,0.6342390179634094
1761400819387231700,4.156231689453125,-2.3434746265411377,-1.3950713872909546,0.9796773791313171
1761400819397311500,4.1663115234375,-2.3068132400512695,-1.344718337059021,1.2565070390701294
1761400819407393000,4.17639306640625,-2.084526777267456,-0.9872341156005859,1.4901660680770874
1761400819417448400,4.186448486328125,-1.834557056427002,-0.49881696701049805,1.57523512840271
1761400819427554800,4.196554931640625,-1.70512056350708,0.020201077684760094,1.6049381494522095
1761400819437635000,4.206635009765625,-1.7326538562774658,0.38636431097984314,1.5756092071533203
1761400819447716400,4.21671630859375,-1.7187376022338867,0.5736357569694519,1.5136592388153076
1761400819457797600,4.226797607421875,-1.7874212265014648,0.6759878993034363,1.3994108438491821
1761400819467877600,4.236877685546875,-1.8145055770874023,0.85256028175354,1.2480524778366089
1761400819477959700,4.246959716796875,-1.7675193548202515,1.0648212432861328,1.0455927848815918
1761400819488036900,4.257036865234375,-1.7274913787841797,1.243937373161316,0.8315361738204956
1761400819498095400,4.267095458984375,-1.6720505952835083,1.4017302989959717,0.5773767232894897
1761400819508197400,4.277197265625,-1.6175825595855713,1.5523405075073242,0.3457376956939697
1761400819518298600,4.287298583984375,-1.5328876972198486,1.6129437685012817,0.24278701841831207
1761400819528363500,4.297363525390625,-1.4133272171020508,1.6023943424224854,0.22520460188388824
1761400819538444300,4.3074443359375,-1.258152961730957,1.5735142230987549,0.21996727585792542
1761400819548518400,4.317518310546875,-1.1661258935928345,1.6222212314605713,0.24106618762016296
1761400819558606000,4.327606201171875,-1.0630255937576294,1.5153051614761353,0.29141923785209656
1761400819568682500,4.3376826171875,-0.7600094079971313,1.2725930213928223,0.30967503786087036
1761400819578768000,4.347767822265625,-0.3735702931880951,0.8450035452842712,0.37828385829925537
1761400819588847400,4.357847412109375,-0.11529577523469925,0.0802057534456253,0.6416460275650024
1761400819598903800,4.36790380859375,0.08087912946939468,-0.8035539388656616,0.8864531517028809
1761400819608984300,4.377984375,0.27817630767822266,-2.055945873260498,0.9715221524238586
1761400819619065300,4.3880654296875,0.6272808313369751,-2.9822773933410645,1.2942156791687012
1761400819629146400,4.398146484375,1.1981483697891235,-3.110741376876831,1.7714099884033203
1761400819639227100,4.40822705078125,1.661426305770874,-2.876633405685425,1.7752257585525513
1761400819649308400,4.418308349609375,1.6915782690048218,-2.7351510524749756,1.026888132095337
1761400819659389200,4.42838916015625,1.6253637075424194,-3.258882522583008,0.229020357131958
1761400819669495300,4.438495361328125,1.551891565322876,-4.958616256713867,-0.5850082039833069
1761400819679576300,4.448576416015625,1.6240917444229126,-6.738256454467773,-1.211316466331482
1761400819689631500,4.458631591796875,1.9463363885879517,-7.11766242980957,-1.3636474609375
1761400819699734000,4.468734130859375,2.38230562210083,-6.512378215789795,-1.063474416732788
1761400819709818000,4.478818115234375,2.867729902267456,-6.410774230957031,-0.6961141228675842
1761400819719899600,4.488899658203125,3.3382654190063477,-7.596876621246338,-0.4354454278945923
1761400819729979600,4.498979736328125,3.4736874103546143,-9.21483325958252,-0.26994624733924866
1761400819740060700,4.509060791015625,3.3300352096557617,-10.756773948669434,-0.15307927131652832
1761400819750141700,4.5191416015625,3.2357635498046875,-12.18873119354248,-0.00613514194265008
1761400819760198000,4.529197998046875,3.550226926803589,-12.807108879089355,0.1355716735124588
1761400819770303200,4.53930322265625,3.751339912414551,-13.041740417480469,-0.15726912021636963
1761400819780384000,4.549384033203125,3.7492449283599854,-13.313332557678223,-0.39474400877952576
1761400819790465300,4.55946533203125,3.7106385231018066,-13.618293762207031,-0.05140051618218422
1761400819800546000,4.569546142578125,3.4094929695129395,-14.5614595413208,0.41030630469322205
1761400819810601500,4.5796015625,3.086799383163452,-15.857172012329102,0.7665934562683105
1761400819820702500,4.589702392578125,2.951751470565796,-17.04334831237793,0.8975263833999634
1761400819830784500,4.599784423828125,3.1065514087677,-17.215059280395508,1.0004770755767822
1761400819840870100,4.6098701171875,3.3598880767822266,-16.93299102783203,0.9681553244590759
1761400819850925300,4.61992529296875,3.4491467475891113,-16.380603790283203,1.0381108522415161
1761400819861031000,4.630031005859375,3.505784749984741,-16.032398223876953,1.0339210033416748
1761400819871112000,4.64011181640625,3.398120403289795,-15.92824935913086,0.8328829407691956
1761400819881192700,4.650192626953125,3.215562582015991,-16.126070022583008,0.6291513442993164
1761400819891269400,4.660269287109375,3.0358476638793945,-16.727313995361328,0.31932663917541504
1761400819901354500,4.6703544921875,2.804882049560547,-17.635465621948242,0.04354454204440117
1761400819911435500,4.680435546875,2.4106619358062744,-18.964920043945312,-0.12711714208126068
1761400819921517600,4.690517578125,2.008286237716675,-20.25629234313965,-0.2644844651222229
1761400819931597000,4.70059716796875,1.5838392972946167,-21.807886123657227,-0.3594295382499695
1761400819941677800,4.710677734375,1.1855039596557617,-23.4516544342041,-0.3942950963973999
1761400819951723300,4.72072314453125,0.7962965369224548,-24.6426944732666,-0.4685901701450348
1761400819961835800,4.730835693359375,0.4197334945201874,-24.841938018798828,-0.5642834305763245
1761400819971921200,4.740921142578125,0.0007481880020350218,-24.633642196655273,-0.5739350318908691
1761400819981975800,4.750975830078125,-0.23163901269435883,-24.233436584472656,-0.5991489887237549
1761400819992082000,4.76108203125,-0.17492635548114777,-23.67214584350586,-0.7165396809577942
1761400820002163000,4.771162841796875,-0.2040308713912964,-23.4348201751709,-0.8536825180053711
1761400820012243700,4.78124365234375,-0.304063618183136,-23.234529495239258,-0.8496423363685608
1761400820022321200,4.791321044921875,-0.34349313378334045,-22.95829963684082,-0.7068132162094116
1761400820032405200,4.8014052734375,-0.2843862771987915,-22.7996826171875,-0.4622305631637573
1761400820042461000,4.8114609375,-0.1554734706878662,-22.994810104370117,0.19632454216480255
1761400820052567300,4.8215673828125,0.24907179176807404,-23.32259178161621,0.9524433612823486
1761400820062648300,4.8316484375,0.9041104316711426,-23.10142707824707,1.322871208190918
1761400820072729600,4.8417294921875,1.517849087715149,-22.50908660888672,1.5497967004776
1761400820082806000,4.851805908203125,1.9372832775115967,-22.254030227661133,1.6724246740341187
1761400820092865000,4.861864990234375,2.2946178913116455,-21.784317016601562,1.4977227449417114
1761400820102972000,4.871971923828125,2.6191070079803467,-21.109901428222656,1.044844627380371
1761400820113029000,4.882029052734375,2.752284526824951,-20.351985931396484,0.3768623173236847
1761400820123107800,4.89210791015625,2.7963528633117676,-19.815086364746094,-0.19931729137897491
1761400820133214200,4.902214111328125,2.985419988632202,-19.152341842651367,-0.8987982869148254
1761400820143295000,4.912294921875,3.0667479038238525,-18.231246948242188,-1.71245276927948
1761400820153372700,4.92237255859375,2.906785249710083,-17.08629608154297,-2.270975112915039
1761400820163460000,4.932460205078125,2.710909605026245,-15.502455711364746,-2.54496169090271
1761400820173537500,4.94253759765625,2.3784148693084717,-13.665430068969727,-2.704026460647583
1761400820183618800,4.952618896484375,1.8456302881240845,-11.639785766601562,-2.78086519241333
1761400820193674200,4.96267431640625,1.332223653793335,-9.184456825256348,-2.475080728530884
1761400820203781000,4.972781005859375,0.8535329103469849,-6.700547695159912,-2.145728349685669
1761400820213857500,4.982857421875,0.24099136888980865,-4.325349807739258,-1.7417817115783691
1761400820223942400,4.9929423828125,-0.281169056892395,-2.4699182510375977,-0.9814730882644653
1761400820234023200,5.003023193359375,-0.651522159576416,-1.9727473258972168,0.6281038522720337
1761400820244061200,5.013061279296875,-1.568800687789917,-0.6449381113052368,1.2936171293258667
1761400820254184400,5.023184326171875,-2.0896143913269043,0.25670331716537476,1.2551602125167847
1761400820264265200,5.03326513671875,-2.196305990219116,0.13572131097316742,0.8249521255493164
1761400820274346800,5.0433466796875,-2.215085506439209,-1.0314520597457886,0.8366986513137817
1761400820284423000,5.0534228515625,-2.5998785495758057,-1.7093104124069214,0.7540239095687866
1761400820294508500,5.063508544921875,-2.744353771209717,-1.5656583309173584,0.5333832502365112
1761400820304588800,5.0735888671875,-2.5894787311553955,-1.2896517515182495,0.47809216380119324
1761400820314670300,5.08367041015625,-2.314669370651245,-1.345840573310852,0.40791210532188416
1761400820324750000,5.09375,-2.15029239654541,-1.1938836574554443,0.5198410153388977
1761400820334831000,5.1038310546875,-1.9788076877593994,-0.6955155730247498,0.7826046943664551
1761400820344912400,5.113912353515625,-1.7758243083953857,-0.148889422416687,1.1585692167282104
1761400820354993000,5.123992919921875,-1.5098434686660767,0.03696049004793167,1.4357727766036987
1761400820365073700,5.13407373046875,-1.6978631019592285,0.038157589733600616,1.4913631677627563
1761400820375155000,5.144155029296875,-1.92134690284729,0.2273743450641632,1.436446189880371
1761400820385191200,5.154191162109375,-2.11482834815979,0.2505681812763214,1.5759832859039307
1761400820395316500,5.16431640625,-2.475080728530884,0.5554547905921936,1.6827497482299805
1761400820405397500,5.1743974609375,-2.927809476852417,1.389235496520996,1.742754340171814
1761400820415479000,5.18447900390625,-2.9198038578033447,2.3831284046173096,1.559747576713562
1761400820425559000,5.19455908203125,-2.97202730178833,2.547355890274048,1.591246247291565
1761400820435640800,5.204640869140625,-2.7305870056152344,2.1616649627685547,1.6502034664154053
1761400820445720800,5.214720947265625,-2.493112087249756,1.3156886100769043,1.6840964555740356
1761400820455801900,5.2248017578125,-2.3938276767730713,-0.010998363606631756,1.3631237745285034
1761400820465882600,5.234882568359375,-2.1348049640655518,-0.7980173826217651,1.0702829360961914
1761400820475963100,5.244963134765625,-1.798943281173706,-0.4141969084739685,1.0684125423431396
1761400820486044700,5.255044677734375,-1.6177321672439575,-0.36174890398979187,1.4496142864227295
1761400820496125200,5.265125244140625,-1.3246668577194214,-0.5615150928497314,1.5563058853149414
1761400820506180600,5.2751806640625,-1.4782699346542358,-1.0260651111602783,0.9200468063354492
1761400820516287000,5.285286865234375,-1.725246787071228,-1.6857424974441528,-0.016909049823880196
1761400820526367700,5.29536767578125,-1.3198784589767456,-2.459817886352539,-0.13923779129981995
1761400820536449300,5.30544921875,-0.5663034915924072,-3.5812020301818848,0.40948331356048584
1761400820546507800,5.3155078125,0.013691840693354607,-4.562076568603516,0.9420435428619385
1761400820556610800,5.32561083984375,0.6694038510322571,-5.345504283905029,1.2806735038757324
1761400820566691000,5.335691162109375,1.2893524169921875,-6.582483291625977,1.5390228033065796
1761400820576772400,5.3457724609375,1.820491075515747,-7.932065010070801,1.5107412338256836
1761400820586853400,5.355853271484375,2.4512884616851807,-8.776394844055176,1.4075661897659302
1761400820596934100,5.36593408203125,2.917334794998169,-9.598054885864258,1.3742717504501343
1761400820607015000,5.376014892578125,3.332728862762451,-10.787524223327637,1.4373440742492676
1761400820617095400,5.386095458984375,3.801992416381836,-12.898462295532227,0.927453875541687
1761400820627150600,5.396150634765625,3.9817070960998535,-13.974955558776855,-0.10339958220720291
1761400820637234000,5.40623388671875,4.046200752258301,-13.482124328613281,-0.44255322217941284
1761400820647337700,5.416337646484375,4.404956817626953,-13.096208572387695,0.06239888072013855
1761400820657393400,5.426393310546875,4.574795722961426,-12.803068161010742,0.5339069962501526
1761400820667499500,5.43649951171875,4.3761515617370605,-13.175890922546387,0.5762544274330139
1761400820677580300,5.446580322265625,4.276717662811279,-14.475717544555664,0.8717138767242432
1761400820687661300,5.456661376953125,4.198831081390381,-16.065841674804688,1.3450924158096313
1761400820697742600,5.46674267578125,4.000710964202881,-17.369483947753906,1.595361351966858
1761400820707823000,5.476822998046875,4.150348663330078,-18.485780715942383,1.7114801406860352
1761400820717878500,5.48687841796875,4.472443580627441,-19.3908634185791,1.3608044385910034
1761400820727988200,5.49698828125,4.620360374450684,-19.191022872924805,1.0824036598205566
1761400820738061600,5.5070615234375,4.576890468597412,-18.246660232543945,1.1981483697891235
1761400820748142800,5.517142822265625,4.0909423828125,-18.52902603149414,1.3449428081512451
1761400820758228500,5.527228515625,3.6438252925872803,-19.66679573059082,1.5773299932479858
1761400820768308000,5.537307861328125,3.6710593700408936,-20.407278060913086,1.702202558517456
1761400820778389500,5.547389404296875,3.808351993560791,-21.305328369140625,1.5390228033065796
1761400820788466000,5.5574658203125,4.0161237716674805,-21.76284408569336,1.6625486612319946
1761400820798550500,5.567550537109375,4.426280498504639,-21.328371047973633,1.490091323852539
1761400820808631600,5.577631591796875,4.451195240020752,-20.518308639526367,0.8630349040031433
1761400820818687000,5.58768701171875,3.720439910888672,-20.273351669311523,0.6888567209243774
1761400820828794400,5.59779443359375,2.7117326259613037,-21.03957176208496,0.7518541812896729
1761400820838875000,5.607875,1.7594389915466309,-22.36214256286621,0.8408136963844299
1761400820848951600,5.61795166015625,1.0323498249053955,-23.675960540771484,0.8936358094215393
1761400820859032800,5.62803271484375,0.7624036073684692,-24.408811569213867,0.8687959313392639
1761400820869117700,5.63811767578125,0.6140379309654236,-24.681900024414062,0.9690531492233276
1761400820879160800,5.648160888671875,0.5034556984901428,-24.256629943847656,1.3352164030075073
1761400820889278500,5.658278564453125,-0.011671733111143112,-23.574657440185547,1.287631630897522
1761400820899359700,5.66835986328125,-0.619649350643158,-22.72374153137207,1.3189058303833008
1761400820909440000,5.67843994140625,-0.9231144189834595,-22.169034957885742,1.4586673974990845
1761400820919518000,5.68851806640625,-0.9406968355178833,-22.14539337158203,1.561169147491455
1761400820929576700,5.69857666015625,-0.8446294665336609,-22.634408950805664,1.7738041877746582
1761400820939683300,5.708683349609375,-0.5357774496078491,-23.018753051757812,1.7893664836883545
1761400820949763300,5.718763427734375,0.20043957233428955,-22.910715103149414,1.7599626779556274
1761400820959844000,5.728843994140625,1.1787701845169067,-22.422222137451172,1.6686837673187256
1761400820969926000,5.73892578125,2.151414632797241,-21.481002807617188,1.311798095703125
1761400820980002600,5.74900244140625,3.283797264099121,-20.315399169921875,0.8395417928695679
1761400820990054000,5.759053955078125,3.7584476470947266,-19.44106674194336,-0.0006733692134730518
1761400821000143600,5.7691435546875,3.357344150543213,-18.082134246826172,-0.44689270853996277
1761400821010215000,5.77921484375,3.201646327972412,-16.51123809814453,-0.5719897747039795
1761400821020330000,5.789330078125,3.092560291290283,-14.677952766418457,-0.6923732161521912
1761400821030398200,5.799398193359375,2.790292501449585,-12.333580017089844,-0.9409212470054626
1761400821040489700,5.80948974609375,2.342052936553955,-10.091784477233887,-1.2210428714752197
1761400821050559700,5.819559814453125,1.7824832201004028,-8.295085906982422,-1.3441946506500244
1761400821060638700,5.829638671875,1.2410194873809814,-7.136965751647949,-1.2092214822769165
1761400821070732800,5.83973291015625,0.9608978629112244,-6.688352108001709,-0.5413888692855835
1761400821080815000,5.849815185546875,1.0235211849212646,-6.178237438201904,-0.14245499670505524
1761400821090895400,5.859895263671875,0.37484219670295715,-5.621286392211914,-0.43761518597602844
1761400821100977200,5.86997705078125,-0.6340145468711853,-5.238812446594238,-0.5604676604270935
1761400821111043300,5.880043212890625,-1.3123217821121216,-4.616095542907715,-0.3610755503177643
1761400821121138400,5.890138427734375,-1.6492308378219604,-3.76637864112854,-0.2296937257051468
1761400821131206400,5.900206298828125,-1.9567362070083618,-3.0715363025665283,-0.21667525172233582
1761400821141299700,5.9102998046875,-2.174907684326172,-2.570100784301758,-0.2636614739894867
1761400821151380700,5.920380615234375,-2.315417528152466,-2.3849990367889404,-0.09614216536283493
1761400821161438500,5.9304384765625,-2.5998036861419678,-2.5445127487182617,0.31356561183929443
1761400821171538200,5.9405380859375,-2.855085611343384,-2.523862600326538,0.6772598028182983
1761400821181610500,5.950610595703125,-2.8795511722564697,-2.3347954750061035,0.9139117002487183
1761400821191704000,5.9607041015625,-2.713827610015869,-2.124105930328369,1.1120318174362183
1761400821201772300,5.970772216796875,-2.4052748680114746,-2.018162488937378,1.3316998481750488
1761400821211866000,5.9808662109375,-2.0982184410095215,-1.8783260583877563,1.490989089012146
1761400821221947000,5.99094677734375,-1.9378069639205933,-1.5051298141479492,1.4981716871261597
1761400821232028000,6.00102783203125,-1.9254618883132935,-0.7683143019676208,1.4768483638763428
1761400821242104600,6.0111044921875,-1.9610756635665894,0.25677812099456787,1.4334534406661987
1761400821252172800,6.0211728515625,-1.915810227394104,1.2451344728469849,1.3152397871017456
1761400821262254300,6.03125439453125,-1.8522143363952637,2.1114614009857178,1.1647791862487793
1761400821272350700,6.041350830078125,-1.9078046083450317,2.627711296081543,0.9404723644256592
1761400821282431500,6.051431396484375,-1.9739444255828857,2.5439889430999756,0.6827964186668396
1761400821292500200,6.061500244140625,-1.9171570539474487,2.104952096939087,0.5571756362915039
1761400821302591500,6.071591552734375,-1.5818191766738892,1.4875473976135254,0.6523451209068298
1761400821312676600,6.081676513671875,-1.2898013591766357,0.6835445761680603,0.8791957497596741
1761400821322734800,6.09173486328125,-1.0218003988265991,0.2762310206890106,1.140163779258728
1761400821332836400,6.10183642578125,-0.7678653597831726,0.13676877319812775,1.4597896337509155
1761400821342917000,6.111917236328125,-0.5655553340911865,-0.05349544435739517,1.5398458242416382
1761400821352998400,6.121998291015625,-0.24779987335205078,-0.23081600666046143,1.3412766456604004
1761400821363081000,6.1320810546875,0.035913024097681046,-0.30698156356811523,1.1911901235580444
1761400821373159400,6.142159423828125,-0.0020201075822114944,-0.5447556972503662,1.329604983329773
1761400821383217400,6.152217529296875,0.14746786653995514,-0.8455272912979126,1.7562966346740723
1761400821403402000,6.172402099609375,0.9775076508522034,-1.6201263666152954,2.1726632118225098
1761400821413483500,6.1824833984375,1.2131121158599854,-1.8595465421676636,2.161365509033203
1761400821423563800,6.192563720703125,1.24184250831604,-2.193013906478882,2.146401882171631
1761400821433614000,6.202614013671875,1.4433295726776123,-2.733130931854248,1.708936333656311
1761400821443725600,6.2127255859375,1.4555250406265259,-3.8296751976013184,0.7163900136947632
1761400821453806300,6.222806396484375,1.3935002088546753,-4.768875598907471,-0.16819266974925995
1761400821463888000,6.232887939453125,1.490091323852539,-5.418601989746094,-0.5933130979537964
1761400821473967900,6.2429677734375,1.9039140939712524,-6.0271782875061035,-0.44921210408210754
1761400821484048600,6.253048583984375,2.51877498626709,-7.129034996032715,-0.1504606157541275
1761400821494125800,6.263125732421875,2.9227216243743896,-8.338181495666504,-0.024839842692017555
1761400821504211500,6.27321142578125,3.28267502784729,-9.191490173339844,-0.10938508808612823
1761400821514265900,6.283265869140625,3.6000564098358154,-10.38387680053711,-0.21203649044036865
1761400821524372500,6.29337255859375,3.983203411102295,-11.146505355834961,-0.07571662962436676
1761400821534436400,6.303436279296875,4.258162498474121,-11.679140090942383,0.25101709365844727
1761400821544534000,6.313533935546875,4.337919235229492,-12.2403564453125,0.2537853717803955
1761400821554615000,6.323614990234375,4.283825397491455,-13.070844650268555,0.21502923965454102
1761400821564670700,6.333670654296875,4.254271984100342,-14.422147750854492,-0.037409402430057526
1761400821574776600,6.343776611328125,4.071040630340576,-16.291271209716797,-0.6560112833976746
1761400821584857300,6.353857421875,4.014402866363525,-17.732206344604492,-1.3701567649841309
1761400821594938000,6.363938232421875,4.015450477600098,-19.206735610961914,-1.630825400352478
1761400821605019000,6.374018798828125,4.136357307434082,-20.46840476989746,-0.7769932746887207
1761400821615099600,6.384099609375,4.224943161010742,-21.446510314941406,0.4159925580024719
1761400821625181200,6.39418115234375,4.178330898284912,-22.131776809692383,1.1913398504257202
1761400821635261400,6.404261474609375,4.209156036376953,-22.549116134643555,1.757044792175293
1761400821645321200,6.4143212890625,4.317568778991699,-22.795717239379883,2.179396867752075
1761400821655398400,6.4243984375,4.252625942230225,-23.445669174194336,2.374075412750244
1761400821665504000,6.43450390625,4.07246208190918,-23.425018310546875,2.452709913253784
1761400821675584800,6.444584716796875,4.119672775268555,-23.097238540649414,2.4345290660858154
1761400821685666000,6.454666015625,4.118176460266113,-23.23191261291504,2.22428822517395
1761400821695742000,6.464741943359375,3.663128614425659,-24.079833984375,1.8694974184036255
1761400821705827300,6.474827392578125,3.307215452194214,-25.009681701660156,1.4829087257385254
1761400821715909000,6.4849091796875,3.396324634552002,-24.770858764648438,0.8352022767066956
1761400821725989400,6.4949892578125,3.398045539855957,-23.908647537231445,0.13272856175899506
1761400821736070700,6.505070556640625,3.5398271083831787,-22.2930850982666,0.0909048467874527
1761400821746151000,6.51515087890625,3.492392063140869,-21.199308395385742,-0.08948329091072083
1761400821756233000,6.52523291015625,3.3058688640594482,-20.568437576293945,-0.4092588424682617
1761400821766287600,6.53528759765625,3.161618232727051,-20.04874610900879,-0.6277297735214233
1761400821776393700,6.545393798828125,2.2655134201049805,-20.40652847290039,-0.9318681955337524
1761400821786475300,6.555475341796875,1.1612626314163208,-21.112594604492188,-0.8513631820678711
1761400821796555300,6.56555517578125,0.7407809495925903,-21.401020050048828,-0.21308395266532898
1761400821806636000,6.575635986328125,0.7902361750602722,-22.026206970214844,-0.08888474106788635
1761400821816717600,6.585717529296875,0.2882768511772156,-22.418781280517578,-0.3745429217815399
1761400821836851200,6.605851318359375,0.0005237316363491118,-20.916793823242188,-0.14859014749526978
1761400821846959400,6.61595947265625,-0.18083705008029938,-20.197336196899414,0.1256955862045288
1761400821857040100,6.6260400390625,-0.1619827151298523,-19.999515533447266,0.3205985724925995
1761400821867121200,6.63612109375,0.08289923518896103,-19.647268295288086,0.21854571998119354
1761400821877202000,6.646201904296875,0.5096656680107117,-18.75258445739746,-0.0146644851192832
1761400821887284200,6.6562841796875,0.9741408228874207,-17.272968292236328,-0.24196401238441467
1761400821897331000,6.6663310546875,1.5156044960021973,-15.522881507873535,-0.46836569905281067
1761400821907444500,6.676444580078125,2.174384117126465,-13.824719429016113,-0.6607248783111572
1761400821917500400,6.68650048828125,2.2380547523498535,-12.021361351013184,-1.1181670427322388
1761400821927606300,6.696606201171875,1.8265514373779297,-10.333673477172852,-1.5238345861434937
1761400821937687300,6.706687255859375,1.4117560386657715,-9.162983894348145,-1.5199439525604248
1761400821957849000,6.72684912109375,0.9976339340209961,-8.506000518798828,-0.8146271109580994
1761400821967929600,6.7369296875,0.6492775678634644,-7.955258846282959,-0.6058826446533203
1761400821978008300,6.74700830078125,0.20021511614322662,-7.3716721534729,-0.3885340392589569
1761400821988087300,6.75708740234375,-0.24772505462169647,-6.414216041564941,-0.14170680940151215
1761400821998168800,6.7671689453125,-0.35486558079719543,-4.817582607269287,0.3181295394897461
1761400822008253400,6.77725341796875,-0.5947346687316895,-3.3756747245788574,0.7306056022644043
1761400822018334200,6.787334228515625,-1.0965443849563599,-2.216806411743164,1.0720785856246948
1761400822028414500,6.79741455078125,-1.441758394241333,-1.0456676483154297,1.5568296909332275
1761400822038495700,6.807495849609375,-1.7616087198257446,-0.030226796865463257,1.8718916177749634
1761400822048551700,6.8175517578125,-1.8825159072875977,0.3867383897304535,1.8712183237075806
1761400822058632400,6.827632568359375,-1.7778444290161133,0.16385318338871002,1.7881693840026855
1761400822068735000,6.83773486328125,-1.6718261241912842,-0.5305401086807251,1.6650924682617188
1761400822078820000,6.847820068359375,-1.628580927848816,-1.336039423942566,1.5894505977630615
1761400822088900900,6.85790087890625,-1.7697639465332031,-2.0173394680023193,1.8174235820770264
1761400822098980600,6.867980712890625,-2.173112154006958,-2.2822728157043457,2.22159481048584
1761400822109061400,6.878061279296875,-2.464606285095215,-2.226682424545288,2.6268882751464844
1761400822119143200,6.88814306640625,-2.3920319080352783,-1.5416414737701416,3.138274669647217
1761400822129220000,6.89822021484375,-2.0057425498962402,-0.5704934000968933,3.4705450534820557
1761400822139305000,6.908304931640625,-1.530568242073059,0.5233575105667114,3.462165355682373
1761400822149402400,6.91840234375,-1.171587586402893,1.4532055854797363,3.092710018157959
1761400822159445800,6.92844580078125,-1.0550199747085571,1.4059948921203613,2.776750326156616
1761400822169547300,6.93854736328125,-1.2105681896209717,0.7234230041503906,2.3657705783843994
1761400822179628000,6.9486279296875,-1.4550760984420776,0.6988075971603394,1.9295768737792969
1761400822189683500,6.958683349609375,-1.768641710281372,1.4766238927841187,1.6582090854644775
1761400822199785700,6.96878564453125,-2.196904420852661,2.6373627185821533,1.3851953744888306
1761400822209870300,6.978870361328125,-2.1472249031066895,3.884068489074707,0.6694786548614502
1761400822219951000,6.988951171875,-3.142165184020996,3.9223756790161133,-0.02536357380449772
1761400822230032400,6.999032470703125,-3.6617069244384766,2.4198646545410156,-0.175225630402565
1761400822240113000,7.00911279296875,-4.052186489105225,0.819490373134613,0.3794061541557312
1761400822250193700,7.019193603515625,-4.00460147857666,0.05596446618437767,0.7753472328186035
1761400822260270600,7.0292705078125,-3.6034979820251465,-0.5693711042404175,0.6935703158378601
1761400822270356000,7.03935595703125,-2.622399091720581,-2.1697452068328857,0.26493337750434875
1761400822280437000,7.04943701171875,-1.0435726642608643,-4.561028957366943,0.35247138142585754
1761400822290517000,7.05951708984375,0.6293757557868958,-6.164470672607422,0.8392425179481506
1761400822300603100,7.06960302734375,2.0386626720428467,-6.363264560699463,1.4024784564971924
1761400822310654000,7.079654052734375,3.4734628200531006,-5.687650680541992,1.9197008609771729
1761400822320737500,7.089737548828125,3.2212488651275635,-5.422567367553711,1.9835960865020752
1761400822330817000,7.099817138671875,3.5422213077545166,-6.5347490310668945,2.4093151092529297
1761400822340921300,7.10992138671875,3.7600936889648438,-9.049858093261719,2.7654526233673096
1761400822351002400,7.12000244140625,3.728969097137451,-10.476353645324707,2.7100119590759277
1761400822361083400,7.13008349609375,4.519130706787109,-10.561646461486816,1.9385552406311035
1761400822371164400,7.140164306640625,5.692513942718506,-9.578078269958496,1.442880630493164
1761400822381244700,7.15024462890625,6.555922985076904,-9.158345222473145,2.161964178085327
1761400822391321600,7.160321533203125,6.8814592361450195,-9.306486129760742,3.605443239212036
1761400822401395200,7.170395263671875,6.937723159790039,-9.760336875915527,4.156783103942871
1761400822411487700,7.18048779296875,6.3132853507995605,-9.751209259033203,4.031985282897949
1761400822421543000,7.19054296875,5.283778667449951,-8.160112380981445,3.5505263805389404
1761400822431650000,7.200650146484375,5.22983455657959,-8.639925956726074,3.3189620971679688
1761400822441729800,7.210729736328125,5.061267375946045,-9.580023765563965,3.371784210205078
1761400822451807000,7.220806884765625,4.9671454429626465,-10.526631355285645,3.1295957565307617
1761400822461866000,7.230865966796875,4.566939830780029,-11.801843643188477,1.944091796875
1761400822471972400,7.240972412109375,3.7661540508270264,-13.795465469360352,0.99112468957901
1761400822482053600,7.2510537109375,3.102586030960083,-14.71566104888916,0.47891515493392944
1761400822492134100,7.261134033203125,3.049689292907715,-15.298873901367188,-0.043020810931921005
1761400822502215700,7.271215576171875,3.444807291030884,-15.911640167236328,-0.3654898405075073
1761400822512296400,7.28129638671875,3.940032958984375,-16.004940032958984,-0.5110872387886047
1761400822522373000,7.291373046875,4.287342071533203,-16.381053924560547,-0.43103113770484924
1761400822532451800,7.301451904296875,4.485836029052734,-16.75028419494629,0.42122986912727356
1761400822542526500,7.3115263671875,4.521300315856934,-16.931570053100586,1.4865000247955322
1761400822552619500,7.32161962890625,4.513070106506348,-17.073650360107422,2.0842273235321045
1761400822562675500,7.331675537109375,4.369866847991943,-17.341501235961914,1.7758243083953857
1761400822572768800,7.341768798828125,3.7449803352355957,-19.405603408813477,1.7841291427612305
1761400822582859800,7.35185986328125,3.622352361679077,-20.653356552124023,1.7417069673538208
1761400822592925700,7.36192578125,2.6961703300476074,-21.54160499572754,1.9929484128952026
1761400822603023400,7.3720234375,2.6292824745178223,-22.150779724121094,1.7432032823562622
1761400822613091800,7.382091796875,2.734851598739624,-22.262409210205078,1.3527239561080933
1761400822623172900,7.3921728515625,3.3081881999969482,-22.195222854614258,1.2272528409957886
1761400822633266000,7.402265869140625,3.8977603912353516,-21.882104873657227,1.3963433504104614
1761400822643345200,7.41234521484375,4.328866481781006,-21.086782455444336,1.9957915544509888
1761400822653415400,7.42241552734375,4.562450408935547,-20.605321884155273,2.8268039226531982
1761400822663483400,7.4324833984375,4.7607951164245605,-20.45508575439453,3.5493292808532715
1761400822673564700,7.442564697265625,5.0266265869140625,-20.084135055541992,4.01769495010376
1761400822683645700,7.452645751953125,5.345055103302002,-19.769895553588867,4.202048301696777
1761400822693727200,7.462727294921875,5.58986234664917,-19.869853973388672,4.154613494873047
1761400822703809300,7.472809326171875,5.304503440856934,-19.578359603881836,3.520972967147827
1761400822713901800,7.48290185546875,4.859256744384766,-19.532196044921875,2.5014171600341797
1761400822723959000,7.492958984375,4.649090766906738,-19.55381965637207,1.345017671585083
1761400822734074600,7.50307470703125,4.472293853759766,-19.380313873291016,0.27480944991111755
1761400822744145200,7.513145263671875,4.6746039390563965,-19.21309471130371,-0.3056347966194153
1761400822754236700,7.523236572265625,4.893373966217041,-18.79807472229004,-0.3560626804828644
1761400822764302800,7.533302734375,4.775310039520264,-18.69916343688965,0.20477905869483948
1761400822774396000,7.54339599609375,4.703409194946289,-19.215639114379883,1.029207468032837
1761400822784489700,7.55348974609375,4.895169734954834,-20.1276798248291,2.2638673782348633
1761400822794547500,7.56354736328125,4.740145206451416,-20.186187744140625,2.447547435760498
1761400822804640500,7.573640625,4.7322893142700195,-19.833044052124023,1.601720929145813
1761400822814721800,7.5837216796875,4.739097595214844,-19.370588302612305,0.7130979895591736
1761400822824802600,7.593802490234375,4.538134574890137,-18.666393280029297,-0.1726817935705185
1761400822834883300,7.60388330078125,4.357671737670898,-18.053926467895508,-0.6544400453567505
1761400822844961800,7.6139619140625,4.536189079284668,-16.847698211669922,-0.698433518409729
1761400822855045400,7.62404541015625,5.1128926277160645,-15.627403259277344,-0.3684077858924866
1761400822865107500,7.634107421875,5.90784215927124,-14.581137657165527,-0.011746551841497421
1761400822875181000,7.64418115234375,6.3880295753479,-12.986075401306152,0.4671685993671417
1761400822885287200,7.654287109375,6.751424312591553,-12.313753128051758,0.6664859056472778
1761400822895369000,7.664368896484375,7.02593469619751,-11.740416526794434,0.4040215313434601
1761400822905449000,7.674448974609375,6.689698696136475,-11.163414001464844,-0.4933551847934723
1761400822915530000,7.684530029296875,4.949413299560547,-11.385102272033691,-1.965714454650879
1761400822925611300,7.694611328125,2.5436148643493652,-11.529876708984375,-2.56463885307312
1761400822935691300,7.704691162109375,0.4198082983493805,-11.661482810974121,-2.1116859912872314
1761400822945773600,7.714773681640625,-0.821959376335144,-11.493814468383789,-1.245358943939209
1761400822955853300,7.724853271484375,-2.166752576828003,-10.951078414916992,-0.5007622241973877
1761400822965935000,7.73493505859375,-2.875810384750366,-10.501118659973145,0.13213001191616058
1761400822976014800,7.745014892578125,-3.324049711227417,-9.902194023132324,0.9154080748558044
1761400822986096600,7.7550966796875,-3.8359601497650146,-8.776470184326172,1.468019723892212
1761400822996177400,7.765177490234375,-4.358120441436768,-7.467141151428223,1.313219666481018
1761400823006234400,7.775234375,-4.462043762207031,-5.655104637145996,0.671648383140564
1761400823016339000,7.7853388671875,-4.377199172973633,-3.77872371673584,0.20313304662704468
1761400823026419200,7.795419189453125,-4.237287998199463,-2.5207951068878174,0.04975450411438942
1761400823036475600,7.8054755859375,-4.085031986236572,-1.9842694997787476,0.1975216418504715
1761400823046556000,7.815555908203125,-3.976768970489502,-1.5811457633972168,0.3903296887874603
1761400823056661800,7.825661865234375,-3.8337903022766113,-1.1370213031768799,0.6131401062011719
1761400823066743300,7.835743408203125,-3.6612582206726074,-0.17372925579547882,0.7250690460205078
1761400823076823300,7.8458232421875,-3.6307320594787598,1.2394483089447021,0.772429347038269
1761400823086904600,7.855904541015625,-3.6985177993774414,2.54960036277771,0.8135796785354614
1761400823096986000,7.865986083984375,-3.812990665435791,3.308337926864624,0.8964788913726807
1761400823107067000,7.87606689453125,-3.8367083072662354,3.529801607131958,1.016563057899475
1761400823117147000,7.88614697265625,-3.8656630516052246,3.3640778064727783,1.0605565309524536
1761400823147390500,7.916390380859375,-2.3644237518310547,1.6647931337356567,0.6116437315940857
1761400823167551700,7.9365517578125,-1.2663830518722534,0.4556465148925781,0.2414402812719345
1761400823177633500,7.946633544921875,-0.7400327920913696,0.08140286058187485,0.21218612790107727
1761400823187713000,7.956713134765625,-0.23777416348457336,-0.2247556895017624,0.342894583940506
1761400823197793300,7.966793212890625,0.11768997460603714,-0.3859902024269104,0.5541828870773315
1761400823207863600,7.976863525390625,0.34528878331184387,-0.5272480845451355,0.7466168403625488
1761400823217942800,7.98694287109375,0.5764040350914001,-0.9190741777420044,0.996212363243103
1761400823228036600,7.99703662109375,0.8429834842681885,-1.2464812994003296,1.2538883686065674
1761400823238118100,8.0071181640625,1.0643723011016846,-1.480738878250122,1.3190555572509766
1761400823248208600,8.017208740234375,1.2120646238327026,-1.787870168685913,1.2796260118484497
1761400823258279200,8.027279052734375,1.4483424425125122,-2.1913678646087646,1.158868432044983
1761400823268360000,8.03735986328125,1.694945216178894,-2.958036184310913,0.8872013688087463
1761400823278438700,8.047438720703125,2.076521158218384,-4.263699054718018,0.3340659439563751
1761400823288502800,8.057502685546876,2.5147347450256348,-4.959813117980957,-0.10362404584884644
1761400823298606300,8.0676064453125,2.898705005645752,-4.984802722930908,-0.22363340854644775
1761400823308683500,8.07768359375,3.1461305618286133,-5.0930657386779785,-0.32598552107810974
1761400823318756900,8.0877568359375,3.2502036094665527,-5.970839977264404,-0.5191676616668701
1761400823328820000,8.097820068359376,3.3568203449249268,-7.671845436096191,-0.7793126702308655
1761400823338926000,8.107926025390626,3.366472005844116,-8.709432601928711,-0.6206219792366028
1761400823349004500,8.118004638671875,3.2102503776550293,-9.064223289489746,-0.3077297508716583
1761400823359087600,8.128087646484374,2.904465913772583,-9.24363899230957,0.08686462789773941
1761400823369168600,8.138168701171875,2.556633234024048,-10.813711166381836,0.24974516034126282
1761400823379236600,8.148236572265626,2.290951728820801,-12.251653671264648,0.16976386308670044
1761400823389330200,8.158330078125,2.21620774269104,-13.219809532165527,0.016834231093525887
1761400823399411000,8.168410888671875,2.466850757598877,-13.984756469726562,-0.13332711160182953
1761400823409478100,8.17847802734375,2.955716848373413,-14.836792945861816,-0.10758943855762482
1761400823419547400,8.18854736328125,3.624896287918091,-15.67962646484375,0.160261869430542
1761400823429654000,8.198654052734375,4.249109268188477,-16.952070236206055,0.5130325555801392
1761400823439727900,8.208727783203125,4.668468952178955,-19.64150619506836,0.8041524887084961
1761400823449815000,8.21881494140625,4.922553539276123,-21.486988067626953,1.4639794826507568
1761400823459896000,8.22889599609375,5.312583923339844,-21.939268112182617,1.9057846069335938
1761400823469974500,8.238974609375,5.494393825531006,-21.03485679626465,1.7573440074920654
1761400823480055600,8.2490556640625,5.345429420471191,-20.646472930908203,1.3858686685562134
1761400823490138000,8.25913818359375,5.55746603012085,-20.344654083251953,1.9550901651382446
1761400823500219100,8.26921923828125,6.140603542327881,-20.636747360229492,3.0609121322631836
1761400823510275000,8.279275146484375,6.893879413604736,-21.4267578125,3.9023241996765137
1761400823520381400,8.28938134765625,7.757213592529297,-22.218490600585938,4.288015365600586
1761400823530451200,8.299451171875,8.069058418273926,-22.32009506225586,4.165910720825195
1761400823540529000,8.30952880859375,7.987954616546631,-22.38900375366211,3.9864206314086914
1761400823550593000,8.319593017578125,7.8208842277526855,-22.168886184692383,4.026523590087891
1761400823560703200,8.329703125,7.878270149230957,-21.79247283935547,3.911975860595703
1761400823570785500,8.33978564453125,7.581089973449707,-21.118728637695312,3.355623245239258
1761400823580855300,8.349855224609374,6.9619646072387695,-21.413366317749023,2.903867483139038
1761400823590947000,8.359947021484375,6.204349040985107,-21.779829025268555,2.780266761779785
1761400823601024000,8.37002392578125,5.42915153503418,-21.715559005737305,2.6319010257720947
1761400823611094500,8.380094482421875,4.892850399017334,-21.726707458496094,2.3092074394226074
1761400823621189600,8.390189697265624,4.778078556060791,-21.599140167236328,2.4723124504089355
1761400823631270100,8.400270263671874,5.080047130584717,-21.371915817260742,2.632349967956543
1761400823641351400,8.410351318359375,5.3897223472595215,-21.137958526611328,2.630030632019043
1761400823651431700,8.420431640625,5.343259811401367,-21.186290740966797,2.5521442890167236
1761400823661513000,8.430512939453125,4.922703266143799,-21.467010498046875,2.1482722759246826
1761400823671589600,8.440589599609375,4.341510772705078,-22.048952102661133,1.5579519271850586
1761400823681649400,8.4506494140625,3.7445313930511475,-22.076934814453125,1.0444705486297607
1761400823691743500,8.460743408203125,3.199476480484009,-22.197765350341797,0.5782745480537415
1761400823701830100,8.470830078125,2.803086519241333,-21.915176391601562,0.18951602280139923
1761400823711917600,8.48091748046875,2.514585256576538,-21.455638885498047,-0.038382045924663544
1761400823742160100,8.51116015625,2.8755857944488525,-20.015750885009766,0.8207622766494751
1761400823752240600,8.52124072265625,3.2287306785583496,-19.6552734375,1.4104092121124268
1761400823762322000,8.531322021484375,3.423109769821167,-19.612852096557617,1.2486510276794434
1761400823772402400,8.54140234375,3.4432361125946045,-18.698640823364258,0.9166799783706665
1761400823782483200,8.551483154296875,3.41682505607605,-17.048362731933594,0.8239046335220337
1761400823792564000,8.56156396484375,3.9413797855377197,-15.694067001342773,0.9608230590820312
1761400823802643200,8.571643310546875,4.535141944885254,-14.916325569152832,0.701052188873291
1761400823812713200,8.581713134765625,4.3628339767456055,-14.15601634979248,0.12217910587787628
1761400823822806300,8.59180615234375,3.934272050857544,-13.33690071105957,-0.24742577970027924
1761400823832888000,8.60188818359375,3.234342098236084,-12.30709457397461,-0.34334349632263184
1761400823842979600,8.6119794921875,2.420762300491333,-11.619135856628418,-0.7775170207023621
1761400823853049300,8.62204931640625,2.0526537895202637,-10.565312385559082,-1.4345756769180298
1761400823863128600,8.632128662109375,1.9695302248001099,-8.745195388793945,-1.7218799591064453
1761400823873203500,8.642203369140624,2.2690298557281494,-7.175422668457031,-1.762207269668579
1761400823883291600,8.652291748046874,2.5078513622283936,-6.15489387512207,-1.8136825561523438
1761400823893372700,8.66237255859375,2.4361751079559326,-5.395258903503418,-1.5807716846466064
1761400823903440400,8.6724404296875,2.044872760772705,-5.026850700378418,-1.1238532066345215
1761400823913526500,8.682526611328125,1.4299370050430298,-4.996773719787598,-0.6026654839515686
1761400823923590700,8.692590576171876,0.7332242727279663,-5.4048357009887695,-0.13190555572509766
1761400823933683500,8.702683349609375,0.14170680940151215,-6.2696661949157715,0.11948563158512115
1761400823943777000,8.712777099609376,-0.40903440117836,-7.015833854675293,0.3100491166114807
1761400823953858000,8.722858154296874,-0.8592191338539124,-7.317653179168701,0.4721066355705261
1761400823963925800,8.73292578125,-1.2251578569412231,-6.847042560577393,0.38801032304763794
1761400823974019800,8.743019775390625,-1.7004069089889526,-6.054262638092041,0.1678185760974884
1761400823984101600,8.7531015625,-1.9143139123916626,-5.1169328689575195,-0.05776011571288109
1761400823994179000,8.763178955078125,-1.9779099225997925,-4.167781352996826,-0.23687632381916046
1761400824004262400,8.773262451171876,-2.038363456726074,-3.2601544857025146,-0.36728549003601074
1761400824014330600,8.78333056640625,-1.8701708316802979,-2.526780605316162,-0.37828385829925537
1761400824024423700,8.793423583984374,-1.7374422550201416,-2.095001220703125,-0.4015525281429291
1761400824034504400,8.80350439453125,-1.7358710765838623,-2.0511574745178223,-0.5484218001365662
1761400824044585500,8.81358544921875,-1.8250551223754883,-1.6127941608428955,-0.6119430065155029
1761400824054635000,8.823635009765624,-1.9708020687103271,-0.6192752122879028,-0.5496188998222351
1761400824064747800,8.833747802734376,-2.0866215229034424,0.6822726726531982,-0.4652233123779297
1761400824074827800,8.843827880859376,-2.158522367477417,1.7818846702575684,-0.3297264575958252
1761400824084908800,8.85390869140625,-2.2393267154693604,2.519298791885376,-0.051026422530412674
1761400824094989600,8.863989501953125,-2.286163330078125,2.9483096599578857,0.38045361638069153
1761400824105060400,8.874060302734375,-2.279055595397949,3.1169512271881104,0.9318681955337524
1761400824115150800,8.88415087890625,-2.2807765007019043,3.183166027069092,1.3997101783752441
1761400824125217500,8.894217529296874,-2.2018425464630127,3.135282039642334,1.7993922233581543
1761400824135312600,8.904312744140626,-2.0691888332366943,2.930652618408203,2.0994904041290283
1761400824145394200,8.914394287109374,-2.273893117904663,3.048492193222046,2.395698070526123
1761400824155455700,8.924455810546876,-2.185906171798706,3.23374342918396,2.7672481536865234
1761400824165553700,8.9345537109375,-1.779789686203003,2.9156887531280518,3.250577688217163
1761400824175625700,8.944625732421875,-1.2342109680175781,2.061781644821167,3.7298669815063477
1761400824185702100,8.9547021484375,-0.7180360555648804,0.9371803402900696,4.081365585327148
1761400824195798300,8.96479833984375,-0.26396074891090393,0.09891045838594437,4.232275009155273
1761400824205878500,8.97487841796875,0.21136312186717987,-0.425494521856308,4.152518272399902
1761400824215960000,8.9849599609375,0.6176292300224304,-0.9326163530349731,3.850250482559204
1761400824226028300,8.9950283203125,1.0020482540130615,-1.4612860679626465,3.229703187942505
1761400824236119300,9.005119384765624,1.4259716272354126,-1.7058687210083008,2.334645986557007
1761400824246200300,9.015200439453125,1.8112883567810059,-2.0141971111297607,1.6639702320098877
1761400824256285200,9.02528515625,2.2055835723876953,-2.4438066482543945,1.2024129629135132
1761400824266364200,9.0353642578125,2.4298901557922363,-3.4817678928375244,0.4465186297893524
1761400824276432100,9.04543212890625,2.733130931854248,-5.022212028503418,-0.6776338815689087
1761400824286526000,9.05552587890625,3.1232361793518066,-6.775366306304932,-1.7868974208831787
1761400824296594000,9.065593994140626,3.3166427612304688,-8.737264633178711,-2.5142858028411865
1761400824306651600,9.075651611328125,3.4682257175445557,-10.391658782958984,-2.562544107437134
1761400824316767700,9.085767822265625,3.9119012355804443,-11.944297790527344,-2.0755484104156494
1761400824326849000,9.09584912109375,4.389993190765381,-13.003283500671387,-1.6650176048278809
1761400824336930000,9.105929931640626,4.551751613616943,-13.61447811126709,-1.1665748357772827
1761400824347005400,9.11600537109375,4.635398864746094,-14.630742073059082,-0.40634092688560486
1761400824357091300,9.12609130859375,4.80553674697876,-15.355137825012207,0.5823147296905518
1761400824367172400,9.13617236328125,5.194519996643066,-16.279598236083984,1.4571709632873535
1761400824377253600,9.146253662109375,5.74593448638916,-16.885406494140625,1.6219968795776367
1761400824387312400,9.1563125,6.254627704620361,-17.5816707611084,0.7498340606689453
1761400824397389800,9.166389892578126,6.778733253479004,-18.232219696044922,-0.32785600423812866
1761400824407495700,9.17649560546875,7.381099224090576,-18.591873168945312,-0.7720552086830139
1761400824417576400,9.186576416015624,7.809811115264893,-17.98240089416504,-0.2505681812763214
1761400824427658200,9.196658203125,8.036811828613281,-16.645387649536133,1.1480945348739624
1761400824437738000,9.206738037109375,7.949497699737549,-15.313164710998535,2.369960308074951
1761400824447819000,9.216819091796875,7.245527744293213,-15.725191116333008,2.6628761291503906
1761400824457899800,9.226899658203125,6.2683939933776855,-16.39384651184082,2.6665420532226562
1761400824467985000,9.23698486328125,5.37094259262085,-16.643741607666016,3.004723072052002
1761400824478058000,9.24705810546875,4.469376087188721,-17.46727180480957,2.5545384883880615
1761400824488139300,9.25713916015625,3.6658220291137695,-19.073183059692383,1.1892448663711548
1761400824498218800,9.26721875,3.2120461463928223,-20.407278060913086,-0.09472060203552246
1761400824508304100,9.27730419921875,3.0450503826141357,-21.782148361206055,-0.8621370792388916
1761400824518357000,9.28735693359375,2.610727310180664,-22.307674407958984,-0.9971101880073547
1761400824528466200,9.297466064453126,2.254140853881836,-22.477962493896484,-0.6638672351837158
1761400824538546400,9.30754638671875,2.429516077041626,-22.88939094543457,0.06651391834020615
1761400824548628000,9.3176279296875,3.3714101314544678,-23.387834548950195,1.0164134502410889
1761400824558683100,9.32768310546875,4.665925025939941,-23.85956573486328,1.6849942207336426
1761400824568790000,9.3377900390625,5.590535640716553,-23.39801025390625,2.1315128803253174
1761400824578870000,9.3478701171875,6.286949157714844,-23.207744598388672,2.3431005477905273
1761400824588951600,9.35795166015625,6.774094581604004,-23.099931716918945,2.0072388648986816
1761400824599031600,9.368031494140626,6.877269744873047,-22.83604621887207,1.5101426839828491
1761400824609112800,9.37811279296875,6.866196155548096,-22.349647521972656,1.07379949092865
1761400824619193900,9.38819384765625,7.028927326202393,-21.662736892700195,0.7649474143981934
1761400824629270500,9.3982705078125,7.107711315155029,-21.27719497680664,0.517746090888977
1761400824639355400,9.40835546875,6.927173614501953,-20.91971206665039,0.4504092037677765
1761400824649436400,9.4184365234375,6.524947643280029,-20.672883987426758,0.596754789352417
1761400824659499800,9.428499755859375,5.9642558097839355,-20.513744354248047,1.1070938110351562
1761400824669598000,9.438597900390626,5.514669418334961,-20.372785568237305,1.6393548250198364
1761400824679679000,9.448678955078124,5.089698791503906,-20.170101165771484,1.9336919784545898
1761400824689741600,9.458741455078124,4.435557842254639,-20.006399154663086,1.9074305295944214
1761400824699815000,9.46881494140625,3.7108631134033203,-19.5791072845459,1.8494459390640259
1761400824709921000,9.478921142578125,2.815431594848633,-18.97113037109375,1.8344074487686157
1761400824720001800,9.489001708984375,2.2269067764282227,-18.774057388305664,1.90825355052948
1761400824730082300,9.499082275390625,1.7435026168823242,-18.078317642211914,2.058789014816284
1761400824740163800,9.509163818359376,1.4012813568115234,-17.052627563476562,2.248230218887329
1761400824750244600,9.51924462890625,1.3885622024536133,-16.14432716369629,2.2833950519561768
1761400824760321300,9.5293212890625,1.5254806280136108,-15.515624046325684,1.6659902334213257
1761400824770406100,9.53940625,1.5047557353973389,-13.490802764892578,1.0386346578598022
1761400824780488200,9.54948828125,1.4214075803756714,-11.805809020996094,0.4139724373817444
1761400824790568700,9.559568603515626,1.2577788829803467,-10.39539909362793,-0.33002573251724243
1761400824800648400,9.5696484375,0.8857049942016602,-9.110910415649414,-1.3378350734710693
1761400824810704600,9.57970458984375,0.33511340618133545,-7.867271900177002,-2.1995232105255127
1761400824820806400,9.589806396484375,-0.3494037985801697,-7.096264362335205,-2.582819938659668
1761400824830891500,9.5998916015625,-1.080159068107605,-7.069254398345947,-2.5665841102600098
1761400824840976600,9.6099765625,-1.8350059986114502,-7.242983818054199,-2.2245125770568848
1761400824851052800,9.620052734375,-2.419116258621216,-7.3279032707214355,-1.6983120441436768
1761400824861133800,9.6301337890625,-2.5118167400360107,-7.449259281158447,-1.119513750076294
1761400824871214600,9.640214599609376,-2.6630256175994873,-7.370325565338135,-0.4761468768119812
1761400824881270000,9.65027001953125,-2.7642555236816406,-6.71102237701416,0.011671733111143112
1761400824891376000,9.660376220703125,-2.7612626552581787,-5.739649772644043,0.3206733763217926
1761400824901457000,9.670456787109375,-2.6863691806793213,-4.514491558074951,0.4976198673248291
1761400824911538400,9.680538330078125,-2.5166800022125244,-3.283348321914673,0.7059902548789978
1761400824921619500,9.690619384765625,-2.279878616333008,-2.3686885833740234,0.8760533928871155
1761400824931700000,9.700699951171876,-2.0552725791931152,-1.6564134359359741,0.9296984672546387
1761400824941757000,9.7107568359375,-1.871592402458191,-1.0717045068740845,0.9355342984199524
1761400824951857400,9.720857421875,-1.66928231716156,-0.6638672351837158,0.897002637386322
1761400824961942500,9.730942626953125,-1.5753098726272583,-0.44996029138565063,0.7811083197593689
1761400824972023000,9.74102294921875,-1.529221534729004,-0.3496282696723938,0.7410802245140076
1761400824982104000,9.75110400390625,-1.5854852199554443,-0.2859574556350708,0.7238719463348389
1761400824992184600,9.7611845703125,-1.5997756719589233,-0.2650830149650574,0.693345844745636
1761400825002265600,9.771265625,-1.7157447338104248,-0.02281973510980606,0.6385036706924438
1761400825012343000,9.781343017578125,-1.746570110321045,0.3643675744533539,0.5516390204429626
1761400825022402300,9.79140234375,-1.7320553064346313,0.6485294103622437,0.4944026470184326
1761400825032508000,9.8015078125,-1.7411831617355347,0.5734112858772278,0.4762216806411743
1761400825042589000,9.8115888671875,-1.609352469444275,0.09629180282354355,0.5235819816589355
1761400825052670000,9.821669921875,-1.38407301902771,-0.3486556112766266,0.5008370876312256
1761400825062726700,9.8317265625,-1.146224021911621,-0.6471078395843506,0.4961234927177429
1761400825072831500,9.84183154296875,-0.8658031821250916,-0.8893710970878601,0.5053262114524841
1761400825082887000,9.851886962890624,-0.5262754559516907,-1.3453917503356934,0.48482584953308105
1761400825092993300,9.8619931640625,-0.20926819741725922,-1.9499276876449585,0.38726213574409485
1761400825103074000,9.872073974609375,-0.049305591732263565,-2.468122720718384,0.33264440298080444
1761400825113165800,9.882165771484376,0.0892588347196579,-2.805929660797119,0.33092355728149414
1761400825123236600,9.892236572265626,0.4016273319721222,-3.220949411392212,0.42758944630622864
1761400825133316000,9.902316162109376,0.9022399187088013,-4.173467636108398,0.6771849989891052
1761400825143393500,9.9123935546875,1.3908815383911133,-5.854496479034424,0.8730605840682983
1761400825153479200,9.922479248046875,1.8587983846664429,-8.016535758972168,0.9715221524238586
1761400825163534000,9.9325341796875,2.496553897857666,-9.38669204711914,0.9976339340209961
1761400825173640200,9.94264013671875,3.1162779331207275,-9.49345874786377,0.9412205219268799
1761400825183720700,9.952720703125,3.5702035427093506,-9.406518936157227,0.7588123083114624
1761400825193777200,9.962777099609376,3.716848611831665,-9.66067886352539,0.48310500383377075
1761400825203878700,9.972878662109375,3.6123266220092773,-10.207529067993164,0.11694178730249405
1761400825213963300,9.98296337890625,3.4576761722564697,-11.32921314239502,-0.44674307107925415
1761400825224019200,9.993019287109375,3.6272904872894287,-12.326248168945312,-0.8860790729522705
1761400825234125000,10.003125,4.0708909034729,-13.43027400970459,-1.1798925399780273
1761400825244206000,10.0132060546875,4.657171249389648,-14.06735610961914,-1.1522843837738037
1761400825254275800,10.02327587890625,5.1361613273620605,-13.858088493347168,-1.0152912139892578
1761400825264368000,10.0333681640625,5.376254558563232,-13.774291038513184,-0.8944587707519531
1761400825274444800,10.04344482421875,5.52589225769043,-14.199935913085938,-0.5437082648277283
1761400825284529400,10.053529296875,5.459752559661865,-14.582035064697266,0.11394903808832169
1761400825294610200,10.063610107421875,5.2252702713012695,-15.072247505187988,0.8246528506278992
1761400825304691200,10.073691162109375,5.481075763702393,-15.688006401062012,1.560046911239624
1761400825314772200,10.083772216796875,6.229488372802734,-16.38404655456543,2.126051187515259
1761400825324852500,10.0938525390625,6.66096830368042,-17.383176803588867,1.8216134309768677
1761400825334933800,10.103933837890626,6.180781364440918,-17.892019271850586,0.9621698260307312
1761400825345014500,10.1140146484375,5.207164287567139,-17.971101760864258,0.8586205840110779
1761400825355095300,10.12409521484375,4.322581768035889,-19.552621841430664,0.8150760531425476
1761400825365176300,10.13417626953125,3.667991876602173,-21.41261863708496,0.45003509521484375
1761400825375221200,10.14422119140625,3.218555212020874,-22.789358139038086,0.03164835274219513
1761400825385337900,10.154337890625,2.8162546157836914,-23.8710880279541,-0.2462286800146103
1761400825395419100,10.164419189453126,2.669684648513794,-24.394969940185547,-0.06329670548439026
1761400825405499400,10.17449951171875,2.852616548538208,-24.634389877319336,0.45661914348602295
1761400825415581000,10.184580810546874,3.205836057662964,-25.161413192749023,0.8140285611152649
1761400825425636400,10.19463623046875,2.9943981170654297,-25.7519588470459,0.7895628213882446
1761400825435742000,10.204741943359375,2.456974744796753,-25.396944046020508,0.8481459617614746
1761400825445797600,10.214797607421875,2.4420857429504395,-25.299453735351562,1.2458078861236572
1761400825455903500,10.224903564453125,2.832265853881836,-25.222915649414062,1.6793080568313599
1761400825465985000,10.234985107421876,3.4847605228424072,-24.302419662475586,1.829544186592102
1761400825476065300,10.245065185546874,3.9151182174682617,-23.058780670166016,2.092158079147339
1761400825486146300,10.255146240234374,4.2521772384643555,-21.941884994506836,2.5230395793914795
1761400825496227300,10.265227294921875,4.364629745483398,-20.693235397338867,2.593893051147461
1761400825506308000,10.27530810546875,4.380715847015381,-19.760543823242188,2.5206453800201416
1761400825516383200,10.28538330078125,4.19232177734375,-19.30280303955078,2.352602481842041
1761400825526470100,10.29547021484375,3.733682632446289,-19.182270050048828,1.8887258768081665
1761400825536550000,10.3055498046875,2.895787000656128,-18.817079544067383,1.1798925399780273
1761400825546654000,10.315654052734375,1.9581576585769653,-18.716148376464844,0.7324760556221008
1761400825556680400,10.325680419921875,1.0480618476867676,-18.67177963256836,0.7240963578224182
1761400825566793000,10.33579296875,0.6973860859870911,-18.060510635375977,1.0274118185043335
1761400825576848400,10.345848388671875,0.9457845091819763,-17.120038986206055,1.5576527118682861
1761400825586954800,10.355954833984375,1.6892589330673218,-16.236053466796875,2.0509331226348877
1761400825597035500,10.366035400390626,2.610203504562378,-15.585654258728027,2.2927474975585938
1761400825607117000,10.376116943359374,3.2152631282806396,-14.593033790588379,2.209698438644409
1761400825617197300,10.386197265625,3.358466386795044,-12.758999824523926,1.733102798461914
1761400825627278600,10.396278564453125,3.2870893478393555,-11.095778465270996,0.9460837841033936
1761400825637359000,10.406359130859375,3.1483752727508545,-9.473706245422363,0.24278701841831207
1761400825647440600,10.416440673828125,3.0450503826141357,-7.630246162414551,-0.1239747554063797
1761400825657520600,10.426520751953126,3.160196542739868,-5.925724029541016,-0.15427637100219727
1761400825667602000,10.436601806640626,3.494786262512207,-5.154267311096191,-0.18712182343006134
1761400825677682000,10.446681884765624,3.509899616241455,-4.3769001960754395,-0.6425438523292542
1761400825687763500,10.456763427734375,2.816478967666626,-3.4298436641693115,-1.1484686136245728
1761400825697843700,10.46684375,2.0132243633270264,-3.047295093536377,-1.3705308437347412
1761400825707899600,10.476899658203125,1.2350339889526367,-3.139247417449951,-1.136048674583435
1761400825717980700,10.486980712890626,0.5779004096984863,-3.473163604736328,-0.606780469417572
1761400825728061400,10.4970615234375,-0.13504794239997864,-4.007594585418701,0.04264671728014946
1761400825738142500,10.507142578125,-0.8630349040031433,-5.196989059448242,0.47644615173339844
1761400825748223000,10.517222900390625,-1.3308768272399902,-6.283806800842285,0.596754789352417
1761400825758288100,10.5272880859375,-1.5156793594360352,-6.59812068939209,0.5490952134132385
1761400825768410000,10.53741015625,-1.6199018955230713,-6.325031757354736,0.47562313079833984
1761400825778486500,10.547486572265624,-1.7303344011306763,-5.8232221603393555,0.2670283019542694
1761400825788551200,10.55755126953125,-1.7104326486587524,-5.341987609863281,-0.05671265348792076
1761400825798652700,10.567652587890626,-1.5998504161834717,-4.872425079345703,-0.40222588181495667
1761400825808733200,10.577733154296874,-1.4737060070037842,-4.337395668029785,-0.6102221608161926
1761400825828870000,10.597869873046875,-1.3531728982925415,-3.0138509273529053,-0.7981669902801514
1761400825838972200,10.60797216796875,-1.41257905960083,-2.5545384883880615,-1.0004770755767822
1761400825849057500,10.6180576171875,-1.525106430053711,-2.0394108295440674,-1.2066776752471924
1761400825859138300,10.62813818359375,-1.6280571222305298,-1.194706678390503,-1.4273183345794678
1761400825869219000,10.638218994140624,-1.782408356666565,-0.18450316786766052,-1.5869067907333374
1761400825879299800,10.6482998046875,-1.8815432786941528,0.8276455998420715,-1.579050898551941
1761400825889379800,10.6583798828125,-2.0106804370880127,1.6826748847961426,-1.4005331993103027
1761400825899461600,10.668461669921875,-2.208651065826416,2.3895628452301025,-1.125648856163025
1761400825919597600,10.68859765625,-2.0937294960021973,3.229553699493408,-0.07504326105117798
1761400825929678600,10.6986787109375,-2.03043270111084,3.4536359310150146,0.40230071544647217
1761400825939784200,10.7087841796875,-2.0335001945495605,3.6412816047668457,0.8133552074432373
1761400825949865700,10.71886572265625,-1.9678093194961548,3.6793642044067383,1.201964020729065
1761400825959945700,10.72894580078125,-1.7411084175109863,3.549478769302368,1.5531635284423828
1761400825970023400,10.7390234375,-1.4730325937271118,3.3412580490112305,1.9176807403564453
1761400825980107300,10.749107177734375,-1.1010334491729736,2.896310806274414,2.3460183143615723
1761400825990188500,10.7591884765625,-0.6739677786827087,2.065298318862915,2.7130794525146484
1761400826000270300,10.769270263671874,-0.42758944630622864,1.459191083908081,2.9998598098754883
1761400826010328600,10.77932861328125,-0.04279635474085808,1.145999550819397,3.132214307785034
1761400826020405800,10.78940576171875,0.5079448819160461,0.6572831869125366,2.8583028316497803
1761400826030512400,10.799512451171875,0.8724620342254639,0.16916531324386597,2.4803929328918457
1761400826040589600,10.809589599609374,1.1002105474472046,-0.2015618532896042,2.202216625213623
1761400826050673400,10.81967333984375,1.2297966480255127,-0.5106383562088013,1.7323545217514038
1761400826060755000,10.8297548828125,1.3283330202102661,-1.0452934503555298,0.9000701904296875
1761400826070836200,10.839836181640624,1.655066728591919,-1.9173815250396729,0.044517189264297485
1761400826080915700,10.849915771484374,2.149768590927124,-3.8353614807128906,-0.5500678420066833
1761400826090997500,10.85999755859375,2.4275708198547363,-6.819284915924072,-1.0004770755767822
1761400826101074000,10.870073974609374,2.973149538040161,-9.796324729919434,-1.6466121673583984
1761400826111159000,10.880158935546875,3.223268747329712,-12.244321823120117,-2.2883331775665283
1761400826121239600,10.890239501953126,3.091063976287842,-13.755586624145508,-2.7014825344085693
1761400826131320300,10.9003203125,2.7828104496002197,-14.46703815460205,-3.1123125553131104
1761400826141401600,10.910401611328124,2.7246015071868896,-15.171682357788086,-3.158475875854492
1761400826151458300,10.920458251953125,3.2106993198394775,-16.079832077026367,-2.256460189819336
1761400826161559000,10.93055908203125,4.3617119789123535,-17.074848175048828,-0.8177695274353027
1761400826171644400,10.94064453125,5.300388336181641,-18.579004287719727,0.06456862390041351
1761400826181725700,10.9507255859375,5.885322093963623,-19.695301055908203,0.47397711873054504
1761400826191806000,10.960805908203126,6.038625717163086,-19.203367233276367,0.6607248783111572
1761400826201886500,10.970886474609374,5.684658050537109,-18.467151641845703,0.7829039692878723
1761400826211941600,10.980941650390625,5.3728132247924805,-18.295217514038086,1.4407109022140503
1761400826222024000,10.99102392578125,5.383512020111084,-18.583419799804688,2.690558910369873
1761400826232125000,11.001125,5.783718109130859,-18.629058837890625,3.9466171264648438
1761400826242209500,11.01120947265625,6.171504020690918,-19.39026641845703,4.708646774291992
1761400826252290600,11.02129052734375,6.339696407318115,-20.261903762817383,5.084610939025879
1761400826262371000,11.03137109375,6.081871032714844,-19.687969207763672,4.8365864753723145
1761400826272452000,11.0414521484375,5.762693881988525,-18.757673263549805,4.3522844314575195
1761400826282532900,11.051532958984374,5.071368217468262,-18.352603912353516,4.005125522613525
1761400826292610000,11.061610107421876,3.989712715148926,-19.87868309020996,3.635819673538208
1761400826302694700,11.071694580078125,3.122936725616455,-21.907020568847656,2.8349592685699463
1761400826312798700,11.081798828125,3.065924882888794,-22.956802368164062,1.9491794109344482
1761400826322856400,11.0918564453125,3.6267666816711426,-23.00872802734375,1.2493243217468262
1761400826332937500,11.1019375,4.019340991973877,-23.4116268157959,0.5673509836196899
1761400826343018000,11.11201806640625,3.539228677749634,-23.752351760864258,-0.3761141300201416
1761400826353121300,11.122121337890626,2.1805191040039062,-23.293113708496094,-1.0971429347991943
1761400826363153200,11.132153076171875,0.8723124265670776,-23.565902709960938,-1.1682207584381104
1761400826373260800,11.1422607421875,0.2123357653617859,-24.629526138305664,-0.5874772667884827
1761400826383341800,11.152341796875,0.2916437089443207,-25.33761215209961,0.06509235501289368
1761400826393398300,11.162398193359374,0.9537152647972107,-25.267730712890625,0.5524620413780212
1761400826403503000,11.172503173828124,1.8464531898498535,-24.817920684814453,1.1367969512939453
1761400826413584400,11.18258447265625,2.683151960372925,-23.796119689941406,1.8344074487686157
1761400826423661000,11.1926611328125,3.1342344284057617,-22.42416763305664,1.9494038820266724
1761400826433745700,11.20274560546875,3.230376720428467,-21.41261863708496,1.752031922340393
1761400826443826700,11.21282666015625,2.9238440990448,-20.92225456237793,1.3316998481750488
1761400826453907700,11.22290771484375,2.448071241378784,-20.809728622436523,1.0794109106063843
1761400826463989000,11.232989013671874,2.077568531036377,-21.068450927734375,0.9677063822746277
1761400826474069200,11.2430693359375,1.8623896837234497,-21.259313583374023,0.9910498857498169
1761400826484146700,11.253146728515626,2.026317596435547,-21.05550765991211,1.3265373706817627
1761400826494231600,11.2632314453125,2.250100612640381,-20.37166404724121,1.6595559120178223
1761400826504311300,11.273311279296875,2.483610153198242,-19.29786491394043,1.8576760292053223
1761400826514392300,11.283392333984375,2.7549030780792236,-17.94820785522461,1.867701768875122
1761400826524472800,11.293472900390626,2.8225393295288086,-16.777816772460938,1.7883938550949097
1761400826534553900,11.303553955078126,2.6914567947387695,-15.78976058959961,1.6407015323638916
1761400826544635000,11.313634765625,2.1114614009857178,-14.724564552307129,1.4801403284072876
1761400826554716000,11.3237158203125,1.4271687269210815,-13.670891761779785,1.3462895154953003
1761400826564796700,11.333796630859375,0.8416367173194885,-12.825364112854004,1.250895619392395
1761400826574878200,11.343878173828125,0.669179379940033,-11.677419662475586,1.4047977924346924
1761400826584958000,11.3539580078125,1.1369465589523315,-10.043750762939453,1.4585925340652466
1761400826595014400,11.364014404296874,1.676838994026184,-8.433425903320312,1.0922796726226807
1761400826605120000,11.3741201171875,1.5791256427764893,-7.095890045166016,0.15480010211467743
1761400826615200800,11.38420068359375,0.8782979249954224,-5.641636848449707,-0.6423194408416748
1761400826625281500,11.394281494140625,-0.056488197296857834,-4.402188777923584,-0.9641150832176208
1761400826635362600,11.404362548828125,-0.8469488620758057,-3.5936219692230225,-0.9726444482803345
1761400826645443300,11.414443359375,-1.5316904783248901,-3.104381799697876,-0.8637082576751709
1761400826655524000,11.424524169921876,-1.9686323404312134,-3.0651018619537354,-0.6774094700813293
1761400826665604900,11.43460498046875,-2.080486536026001,-3.2556653022766113,-0.32680854201316833
1761400826675686100,11.44468603515625,-2.139294147491455,-3.665672540664673,0.11694178730249405
1761400826685767200,11.45476708984375,-2.171316385269165,-4.191050052642822,0.5101146101951599
1761400826695848200,11.46484814453125,-2.109665870666504,-4.454412460327148,0.6935703158378601
1761400826705928400,11.474928466796875,-2.023250102996826,-4.529455661773682,0.573860228061676
1761400826716009500,11.485009521484375,-1.9610008001327515,-4.428824424743652,0.3031657934188843
1761400826726065000,11.49506494140625,-2.1645078659057617,-4.059369087219238,0.09883563965559006
1761400826736171300,11.505171142578124,-2.220322847366333,-3.306617021560669,-0.4126257002353668
1761400826746252000,11.515251953125,-2.2426936626434326,-2.4590694904327393,-0.9393500685691833
1761400826756316700,11.525316650390625,-2.144606113433838,-1.7319056987762451,-1.193210244178772
1761400826766413300,11.535413330078125,-1.9987095594406128,-1.021501064300537,-1.076343297958374
1761400826776494300,11.545494384765625,-1.6763900518417358,-0.4362684488296509,-1.0244938135147095
1761400826786575400,11.555575439453126,-1.7357962131500244,-0.3627215623855591,-0.7745990753173828
1761400826796655600,11.565655517578126,-1.912368655204773,-0.41958385705947876,-0.4513818323612213
1761400826806737000,11.57573681640625,-2.097245931625366,-0.2422632873058319,-0.14335282146930695
1761400826816817400,11.5858173828125,-2.0771944522857666,0.18727146089076996,0.23021745681762695
1761400826826898400,11.5958984375,-2.3407809734344482,0.8135796785354614,0.6741922497749329
1761400826836979500,11.6059794921875,-2.519897222518921,1.4658499956130981,0.9328408241271973
1761400826847037700,11.61603759765625,-2.680757761001587,1.8909704685211182,1.1950807571411133
1761400826857141000,11.62614111328125,-2.5614964962005615,2.1675755977630615,1.5054291486740112
1761400826867222500,11.636222412109374,-2.3452701568603516,2.615365982055664,1.6017957925796509
1761400826877303600,11.646303466796875,-2.002225875854492,2.9818286895751953,1.4625579118728638
1761400826887384300,11.65638427734375,-1.5910966396331787,3.12465763092041,1.2072762250900269
1761400826897439000,11.66643896484375,-1.3836989402770996,3.0714614391326904,0.9777321219444275
1761400826907545300,11.67654541015625,-1.5135843753814697,2.965143918991089,0.9552116394042969
1761400826917626000,11.686626220703126,-1.843310832977295,2.4612393379211426,1.2643629312515259
1761400826937787100,11.706787109375,-0.9980828166007996,-0.13923779129981995,1.8492963314056396
1761400826947868400,11.716868408203124,-0.262090265750885,-1.3830255270004272,1.698461651802063
1761400826957949700,11.72694970703125,0.17889176309108734,-2.0720319747924805,1.6430957317352295
1761400826968027000,11.73702685546875,0.353743314743042,-2.5208699703216553,1.4771475791931152
1761400826978107000,11.74710693359375,0.41187751293182373,-2.8069770336151123,1.036988615989685
1761400826988191200,11.757191162109375,0.5414636731147766,-3.1144824028015137,0.3347393274307251
1761400826998268700,11.7672685546875,1.1478700637817383,-4.257937908172607,-0.3081038296222687
1761400827008353800,11.777353759765624,2.0197336673736572,-5.989170551300049,-0.6080524325370789
1761400827018434300,11.787434326171875,2.7107601165771484,-7.706935405731201,-0.7779659032821655
1761400827028490500,11.797490478515625,3.273397445678711,-9.129390716552734,-0.7017255425453186
1761400827038595800,11.807595947265625,3.8082022666931152,-11.054702758789062,-0.49298110604286194
1761400827048652300,11.81765234375,4.462343215942383,-13.905448913574219,-0.6642413139343262
1761400827058754000,11.827754150390625,4.969764232635498,-16.300922393798828,-0.8203881978988647
1761400827068838700,11.837838623046874,5.115062236785889,-17.239299774169922,-0.43993455171585083
1761400827078919700,11.847919677734374,5.154566764831543,-17.825803756713867,0.08693944662809372
1761400827089000200,11.858000244140625,5.447482109069824,-19.615095138549805,0.7097311615943909
1761400827099039000,11.8680390625,5.889436721801758,-22.546796798706055,0.27136778831481934
1761400827109161700,11.87816162109375,6.118382453918457,-22.906299591064453,0.01660977490246296
1761400827119239000,11.888239013671875,6.375534534454346,-21.305028915405273,0.9319429993629456
1761400827129323500,11.898323486328126,6.674286365509033,-20.056676864624023,2.109665870666504
1761400827139405000,11.908405029296874,6.785691261291504,-20.72413444519043,2.561870574951172
1761400827149485600,11.918485595703125,6.700472831726074,-22.159534454345703,2.546009063720703
1761400827159566800,11.92856689453125,6.66209077835083,-23.489513397216797,2.70761775970459
1761400827169621800,11.938621826171875,7.1204304695129395,-23.9920711517334,3.279682159423828
1761400827179728000,11.948727783203125,8.024616241455078,-24.33167266845703,4.060565948486328
1761400827189805000,11.95880517578125,8.85443115234375,-24.3912296295166,4.238560199737549
1761400827199890000,11.968889892578124,9.208474159240723,-23.06663703918457,3.891101598739624
1761400827209970400,11.978970458984374,9.210793495178223,-20.893150329589844,3.72320818901062
1761400827220051200,11.98905126953125,8.579996109008789,-19.684078216552734,4.133439540863037
1761400827230107000,11.99910693359375,7.53395414352417,-19.18548583984375,4.263325214385986
1761400827240189200,12.009189208984376,6.1921539306640625,-19.283798217773438,3.988365888595581
1761400827250290000,12.0192900390625,5.0691237449646,-20.025327682495117,3.6983683109283447
1761400827260375000,12.029375,4.578237533569336,-20.248361587524414,3.663278341293335
1761400827270456300,12.039456298828124,4.432265758514404,-20.985551834106445,3.002254009246826
1761400827280536300,12.049536376953125,3.9235727787017822,-21.257444381713867,1.9181296825408936
1761400827290617300,12.059617431640625,3.3936312198638916,-21.54183006286621,1.380257248878479
1761400827300655000,12.069655029296875,2.843413829803467,-21.885921478271484,1.3654431104660034
1761400827310766000,12.07976611328125,2.209698438644409,-22.232332229614258,1.4179660081863403
1761400827320855800,12.089855712890625,1.7612346410751343,-22.581811904907227,1.1620856523513794
1761400827330938600,12.099938720703125,1.6060603857040405,-22.519712448120117,0.41876083612442017
1761400827341021700,12.110021728515624,1.346214771270752,-21.572505950927734,-0.281169056892395
1761400827351077000,12.1200771484375,1.1476455926895142,-20.876466751098633,-0.8310124278068542
1761400827361183700,12.130183837890625,1.2798504829406738,-20.586318969726562,-0.9246855974197388
1761400827371263500,12.140263427734375,1.4601637125015259,-20.126182556152344,-0.45654433965682983
1761400827381341200,12.150341064453125,1.7066168785095215,-19.59781265258789,0.5861304998397827
1761400827391426000,12.160426025390626,2.3136966228485107,-19.66447639465332,2.0683658123016357
1761400827401506000,12.170506103515624,3.0550012588500977,-20.432191848754883,3.0468461513519287
1761400827411562500,12.1805625,3.8611738681793213,-20.218210220336914,3.7888240814208984
1761400827421668600,12.190668701171875,4.547262191772461,-20.04867172241211,3.6017024517059326
1761400827431749600,12.20074951171875,4.64130973815918,-18.663026809692383,2.464456558227539
1761400827441804300,12.21080419921875,3.8279545307159424,-17.474529266357422,1.179443597793579
1761400827451911700,12.22091162109375,2.804208755493164,-16.54086685180664,0.12517185509204865
1761400827461992400,12.230992431640624,2.1168484687805176,-15.078907012939453,-0.553509533405304
1761400827472049700,12.241049560546875,1.8659061193466187,-13.38860034942627,-0.9754875302314758
1761400827482122000,12.2511220703125,2.048389196395874,-11.524788856506348,-0.7826794981956482
1761400827492234000,12.26123388671875,2.6116251945495605,-10.279280662536621,-0.11686696857213974
1761400827502315000,12.27131494140625,3.248333215713501,-9.676989555358887,0.2677016854286194
1761400827512391400,12.281391357421874,3.5417726039886475,-9.152284622192383,-0.15427637100219727
1761400827522476500,12.2914765625,3.196483612060547,-8.370353698730469,-0.7323264479637146
1761400827532558300,12.301558349609374,2.1094412803649902,-7.785569667816162,-1.1653777360916138
1761400827542638000,12.31163818359375,1.1956044435501099,-6.802001953125,-1.0244938135147095
1761400827552719600,12.3217197265625,0.7502081394195557,-5.712864398956299,-1.0153659582138062
1761400827562800000,12.331800048828125,0.3429693877696991,-5.326874256134033,-1.0605565309524536
1761400827572877000,12.341876953125,-0.4528782069683075,-6.14254903793335,-0.9779565930366516
1761400827582962200,12.351962158203126,-1.103128433227539,-7.393369674682617,-0.764723002910614
1761400827593008600,12.362008544921874,-1.5156044960021973,-7.995586395263672,-0.3935469090938568
1761400827603123500,12.37212353515625,-1.8365023136138916,-7.9601969718933105,-0.02992752194404602
1761400827613207800,12.382207763671875,-2.0259435176849365,-7.521010398864746,0.2024596780538559
1761400827623284700,12.39228466796875,-2.343175172805786,-6.842104911804199,0.3606266379356384
1761400827633365500,12.402365478515625,-2.925340414047241,-5.788581371307373,0.3742436468601227
1761400827643442400,12.4124423828125,-3.1860837936401367,-4.283451080322266,0.15801730751991272
1761400827653528000,12.422528076171876,-3.105653762817383,-2.832265853881836,0.027982233092188835
1761400827663589400,12.43258935546875,-2.8772318363189697,-1.7548750638961792,0.07504326105117798
1761400827673689600,12.442689697265624,-2.687641143798828,-1.1819126605987549,0.17133505642414093
1761400827683769900,12.452769775390625,-2.5940427780151367,-0.8340800404548645,0.2215384691953659
1761400827693851100,12.46285107421875,-2.562394380569458,-0.5252280235290527,0.09599252790212631
1761400827703927600,12.472927490234374,-2.652850389480591,0.4854243993759155,-0.14245499670505524
1761400827714012700,12.4830126953125,-2.6921300888061523,1.8870798349380493,-0.3793313205242157
1761400827724093000,12.493093017578126,-2.610128879547119,2.972551107406616,-0.28229135274887085
1761400827734142000,12.503141845703125,-2.5576059818267822,3.58217453956604,0.19318215548992157
1761400827744229600,12.513229736328125,-2.5806500911712646,3.717970848083496,0.9994295835494995
1761400827754311000,12.523310791015625,-2.469843626022339,3.065999746322632,1.7573440074920654
1761400827764392200,12.53339208984375,-2.2171056270599365,2.108917713165283,2.225111246109009
1761400827774472400,12.543472412109375,-2.128295660018921,1.8083704710006714,2.808847427368164
1761400827784579000,12.5535791015625,-1.8437597751617432,1.6392050981521606,3.207407236099243
1761400827794646500,12.563646484375,-1.288828730583191,1.2360814809799194,3.3604865074157715
1761400827804728000,12.57372802734375,-0.7001543641090393,0.908524751663208,3.474360704421997
1761400827814821000,12.583821044921875,-0.29149407148361206,0.9116671085357666,3.557708978652954
1761400827824891400,12.593891357421874,0.13699322938919067,0.8904933929443359,3.475707530975342
1761400827834980600,12.603980712890625,0.5106383562088013,0.727837324142456,3.1465795040130615
1761400827845063700,12.614063720703125,0.7615057826042175,0.13684359192848206,2.737769603729248
1761400827855144400,12.62414453125,0.6242880821228027,-0.4886415898799896,2.0632781982421875
1761400827865213000,12.634212890625,0.5505915880203247,-1.0595839023590088,1.1025298833847046
1761400827875308000,12.64430810546875,0.758288562297821,-1.7288380861282349,0.23702596127986908
1761400827885386800,12.65438671875,1.1117326021194458,-2.268655776977539,-0.47061026096343994
1761400827895467800,12.6644677734375,1.544334888458252,-3.4106152057647705,-1.0072107315063477
1761400827905546200,12.674546142578125,2.120140314102173,-5.190853595733643,-1.433603048324585
1761400827915593700,12.68459375,2.6402058601379395,-6.460977554321289,-1.679233193397522
1761400827925698000,12.694697998046875,2.9984383583068848,-7.748384952545166,-1.8826655149459839
1761400827935791400,12.704791259765624,3.3880198001861572,-8.748936653137207,-1.597680687904358
1761400827945858600,12.714858642578125,4.051812171936035,-9.530793190002441,-0.912041187286377
1761400827955937800,12.724937744140625,4.480673789978027,-10.454431533813477,-0.33526304364204407
1761400827966031400,12.73503125,4.481496810913086,-11.38360595703125,0.1545756459236145
1761400827976102700,12.7451025390625,4.131494522094727,-12.243648529052734,0.6496516466140747
1761400827986191000,12.755191162109375,3.7800703048706055,-13.102044105529785,1.4537293910980225
1761400827996273200,12.765273193359375,3.9939773082733154,-14.059276580810547,2.2194249629974365
1761400828006357000,12.77535693359375,4.643404483795166,-15.077035903930664,2.9159131050109863
1761400828016427000,12.785427001953124,5.530755519866943,-16.016759872436523,3.173065423965454
1761400828026516500,12.7955166015625,6.312312602996826,-16.56854820251465,3.0039749145507812
1761400828036589800,12.80558984375,6.774543285369873,-16.793455123901367,2.781388998031616
1761400828046680600,12.8156806640625,7.096787929534912,-17.398738861083984,2.488997220993042
1761400828056761600,12.82576171875,7.324910640716553,-17.92351722717285,2.3221511840820312
1761400828066842000,12.835842041015624,7.578396797180176,-17.581819534301758,2.600926160812378
1761400828076904200,12.845904296875,7.587674140930176,-16.88892364501953,3.2475101947784424
1761400828087004000,12.85600390625,7.460257530212402,-16.847923278808594,3.885938882827759
1761400828097084700,12.866084716796875,7.564180850982666,-16.90007209777832,3.8662617206573486
1761400828107165400,12.87616552734375,7.310320854187012,-16.84261131286621,2.990657091140747
1761400828117247200,12.886247314453126,6.0889787673950195,-17.279027938842773,1.9017443656921387
1761400828127326700,12.89632666015625,4.5790605545043945,-18.84154510498047,1.4865747690200806
1761400828137408500,12.906408447265624,3.829375982284546,-20.64130973815918,1.8120366334915161
1761400828147488500,12.916488525390625,3.561225414276123,-21.67530632019043,2.1505167484283447
1761400828157555200,12.92655517578125,3.4403181076049805,-22.076709747314453,2.427720546722412
1761400828167651000,12.936651123046875,3.487304449081421,-22.38675880432129,2.6955718994140625
1761400828177745000,12.946744873046875,4.034005641937256,-22.33431053161621,2.8576292991638184
1761400828187812400,12.956812255859376,4.719794750213623,-21.763294219970703,2.879401683807373
1761400828197892600,12.966892578125,5.223325252532959,-21.226842880249023,2.582146644592285
1761400828207976000,12.976975830078125,5.0680012702941895,-20.920534133911133,2.095076084136963
1761400828218050300,12.98705029296875,4.380790710449219,-20.704158782958984,1.7866730690002441
1761400828228132400,12.99713232421875,3.8080525398254395,-20.649839401245117,1.713874340057373
1761400828238213400,13.00721337890625,3.538405656814575,-20.621482849121094,1.7293617725372314
