time,seconds_elapsed,z,y,x
1761400815352353300,0.121353271484375,-0.04230091720819473,-0.081637442111969,0.029194295406341553
1761400815372529200,0.141529052734375,-0.013123276643455029,-0.02662959322333336,0.039136677980422974
1761400815382610400,0.1516103515625,0.0013656201772391796,-0.04213437810540199,-0.00016653904458507895
1761400815392691000,0.16169091796875,0.010641844943165779,-0.030909648165106773,-0.050577908754348755
1761400815402771500,0.171771484375,0.023015696555376053,-0.024781011044979095,-0.07552545517683029
1761400815412829200,0.1818291015625,0.037554554641246796,-0.0535256490111351,-0.09451091289520264
1761400815422908200,0.191908203125,0.03595577925443649,-0.04133499041199684,-0.10377047955989838
1761400815433014000,0.202013916015625,0.04195118695497513,-0.03272492438554764,-0.0888652354478836
1761400815443095000,0.212094970703125,0.051244065165519714,-0.061369638890028,-0.0601205974817276
1761400815453176600,0.222176513671875,0.04301703721284866,-0.11554478853940964,-0.03192553669214249
1761400815463256800,0.2322568359375,0.01623755693435669,-0.11915869265794754,0.006911370437592268
1761400815473337600,0.242337646484375,0.014488897286355495,-0.10403694212436676,0.036422088742256165
1761400815483414500,0.25241455078125,0.030376723036170006,-0.13101626932621002,0.03364088758826256
1761400815493499400,0.26249951171875,0.04421611875295639,-0.11136466264724731,0.036971669644117355
1761400815503580200,0.272580078125,0.09774176776409149,-0.10270462930202484,0.0641508400440216
1761400815513661700,0.28266162109375,0.16803790628910065,-0.05239318311214447,0.07321056723594666
1761400815523742000,0.292741943359375,0.22342878580093384,0.04509877413511276,0.0708124041557312
1761400815533822500,0.302822509765625,0.28065159916877747,0.1214236170053482,0.0868501141667366
1761400815543878400,0.31287841796875,0.33963972330093384,0.1255870908498764,0.09096362441778183
1761400815553984500,0.322984619140625,0.40149232745170593,0.1198248416185379,0.07750727236270905
1761400815564065300,0.333065185546875,0.48426225781440735,0.09461083263158798,0.0769909992814064
1761400815574146300,0.343146240234375,0.5766248106956482,0.17961236834526062,0.11839260905981064
1761400815594307800,0.363307861328125,0.8862208724021912,0.5383041501045227,0.21010565757751465
1761400815604389000,0.37338916015625,1.0477304458618164,0.7252442240715027,0.23978291451931
1761400815614470400,0.383470458984375,1.163441777229309,0.8877530694007874,0.2697932720184326
1761400815624550700,0.393550537109375,1.2437468767166138,0.8925660252571106,0.293108731508255
1761400815634631700,0.403631591796875,1.266279697418213,0.7841491103172302,0.28424885869026184
1761400815644713000,0.413712890625,1.233271598815918,0.5842023491859436,0.24779345095157623
1761400815654793000,0.42379296875,1.1435071229934692,0.40415695309638977,0.21783307194709778
1761400815664877300,0.433877197265625,1.0535093545913696,0.40936964750289917,0.21378616988658905
1761400815685035500,0.454035400390625,1.106985092163086,0.5108419060707092,0.22887460887432098
1761400815695117000,0.464116943359375,1.1506348848342896,0.5530428886413574,0.2006295919418335
1761400815705197300,0.474197265625,1.1458053588867188,0.651517391204834,0.10605206340551376
1761400815715279400,0.484279296875,1.1148957014083862,0.6981983184814453,-0.016887059435248375
1761400815725359400,0.494359375,1.0413353443145752,0.7271594405174255,-0.10235489904880524
1761400815735440600,0.504440673828125,0.9150487780570984,0.7127704620361328,-0.11474540084600449
1761400815745520600,0.514520751953125,0.7404159307479858,0.5745264291763306,-0.08854880928993225
1761400815755601700,0.5246015625,0.45177048444747925,0.3961131274700165,-0.006245214492082596
1761400815765682400,0.534682373046875,0.09088035672903061,0.07993873953819275,0.11243051290512085
1761400815775763500,0.544763427734375,-0.33174577355384827,-0.17631489038467407,0.29272568225860596
1761400815785843700,0.55484375,-0.7593514323234558,-0.4263399541378021,0.49190637469291687
1761400815795925000,0.564925048828125,-1.1828769445419312,-0.6962664723396301,0.6335145235061646
1761400815806006500,0.575006591796875,-1.6197421550750732,-0.8933987021446228,0.7091066241264343
1761400815816087300,0.58508740234375,-2.0604045391082764,-1.060803771018982,0.7589850425720215
1761400815826168300,0.595168212890625,-2.4272732734680176,-1.2089735269546509,0.7979884743690491
1761400815836249000,0.6052490234375,-2.706575870513916,-1.2221301794052124,0.8706161975860596
1761400815846329000,0.6153291015625,-2.8750967979431152,-1.1358962059020996,0.9895417094230652
1761400815856385300,0.62538525390625,-2.946075677871704,-0.9945045709609985,1.185941219329834
1761400815866466300,0.63546630859375,-2.9729883670806885,-0.825434148311615,1.441495418548584
1761400815876571600,0.645571533203125,-2.96669340133667,-0.670319676399231,1.731756329536438
1761400815886652400,0.65565234375,-2.915316104888916,-0.5217168927192688,2.0493295192718506
1761400815896733700,0.665733642578125,-2.8022525310516357,-0.40255817770957947,2.3858883380889893
1761400815906814500,0.675814453125,-2.6409263610839844,-0.27717092633247375,2.7394673824310303
1761400815916895200,0.685895263671875,-2.443560838699341,-0.1824435293674469,3.1171281337738037
1761400815926976800,0.695976806640625,-2.2437806129455566,-0.17559877038002014,3.475703239440918
1761400815937057000,0.70605712890625,-2.0679986476898193,-0.2546381950378418,3.800504446029663
1761400815947137800,0.7161376953125,-1.9659101963043213,-0.33520978689193726,4.11666202545166
1761400815957218600,0.726218505859375,-1.885505199432373,-0.3129601776599884,4.374797821044922
1761400815967299600,0.736299560546875,-1.766096591949463,-0.25372225046157837,4.523167133331299
1761400815977380600,0.746380615234375,-1.6514511108398438,-0.15318261086940765,4.600091457366943
1761400815987461000,0.756461181640625,-1.5663163661956787,-0.07092898339033127,4.626904487609863
1761400815997542100,0.766542236328125,-1.5242985486984253,-0.0013489662669599056,4.564901828765869
1761400816007623000,0.776622802734375,-1.49485445022583,-0.028578100726008415,4.405041217803955
1761400816017704000,0.786703857421875,-1.4302040338516235,-0.18217706680297852,4.136980056762695
1761400816027786000,0.796785888671875,-1.3683847188949585,-0.3859042823314667,3.760917901992798
1761400816037841000,0.8068408203125,-1.3427211046218872,-0.5644341707229614,3.300853967666626
1761400816047947000,0.816947021484375,-1.2865641117095947,-0.7098727226257324,2.7990217208862305
1761400816058023700,0.827023681640625,-1.1767815351486206,-0.719298779964447,2.3371591567993164
1761400816068104200,0.837104248046875,-1.0619529485702515,-0.44647452235221863,1.9440603256225586
1761400816078186500,0.8471865234375,-0.9795327186584473,0.04233422502875328,1.5942949056625366
1761400816088269800,0.857269775390625,-0.7734906077384949,0.4586818516254425,1.256054162979126
1761400816098350600,0.8673505859375,-0.41787979006767273,0.6234555840492249,0.9397798776626587
1761400816108431600,0.877431640625,-0.030826378613710403,0.5264798998832703,0.6164776086807251
1761400816118528500,0.887528564453125,0.2814343273639679,0.3417547941207886,0.24824310839176178
1761400816128594000,0.897593994140625,0.4852115213871002,0.24164815247058868,-0.19501721858978271
1761400816138649000,0.907649169921875,0.6216902732849121,0.18555781245231628,-0.6815444231033325
1761400816148736300,0.917736328125,0.680611789226532,0.03528962284326553,-1.1859245300292969
1761400816158836500,0.92783642578125,0.6785300374031067,-0.11248047649860382,-1.629334807395935
1761400816168891400,0.937891357421875,0.6420413255691528,-0.0737934559583664,-1.9556514024734497
1761400816178973400,0.947973388671875,0.5972090363502502,0.1664724349975586,-2.1649410724639893
1761400816189066800,0.958066650390625,0.5790229439735413,0.5316259264945984,-2.241682291030884
1761400816199159600,0.96815966796875,0.6713022589683533,0.8106621503829956,-2.241399049758911
1761400816209224200,0.97822412109375,0.8948476314544678,1.0567069053649902,-2.212021589279175
1761400816219321900,0.98832177734375,1.2060425281524658,1.2644643783569336,-2.1887893676757812
1761400816229389300,0.998389404296875,1.481215000152588,1.3791431188583374,-2.2335550785064697
1761400816239481300,1.0084814453125,1.62562096118927,1.4205281734466553,-2.4147162437438965
1761400816249564200,1.018564208984375,1.7309901714324951,1.4427111148834229,-2.6497695446014404
1761400816259625500,1.02862548828125,1.8276327848434448,1.596459984779358,-2.8017196655273438
1761400816269712600,1.038712646484375,1.9306704998016357,1.7755893468856812,-2.8894691467285156
1761400816279800800,1.04880078125,2.0309269428253174,1.7511414289474487,-2.982630968093872
1761400816289887500,1.058887451171875,2.0563576221466064,1.5362061262130737,-3.087167739868164
1761400816299968500,1.068968505859375,1.9620131254196167,1.2755892276763916,-3.189455986022949
1761400816310036700,1.07903662109375,1.7838497161865234,1.0095430612564087,-3.2977230548858643
1761400816320118300,1.0891181640625,1.6691209077835083,0.8081473708152771,-3.3846564292907715
1761400816330197500,1.099197509765625,1.6584291458129883,0.6251875758171082,-3.362656593322754
1761400816340291600,1.10929150390625,1.6153621673583984,0.6177599430084229,-3.2421154975891113
1761400816350347500,1.119347412109375,1.5986249446868896,0.6151952147483826,-3.136229991912842
1761400816360427800,1.129427734375,1.5559576749801636,0.5424177050590515,-3.034374713897705
1761400816370508800,1.1395087890625,1.3950809240341187,0.6292344927787781,-2.955785036087036
1761400816380589800,1.14958984375,1.1991478204727173,0.6299839019775391,-3.0263309478759766
1761400816390670600,1.159670654296875,0.9912237524986267,0.48309648036956787,-3.1858253479003906
1761400816400740000,1.169739990234375,0.8184561729431152,0.39413130283355713,-3.32523512840271
1761400816410841900,1.179841796875,0.7616829872131348,0.3977285623550415,-3.3647382259368896
1761400816420921600,1.189921630859375,0.8288148641586304,0.3670520484447479,-3.2363533973693848
1761400816431011000,1.200010986328125,0.8828234672546387,0.17291750013828278,-2.908238172531128
1761400816441086000,1.2100859375,0.8290147185325623,-0.18835566937923431,-2.5625362396240234
1761400816451168300,1.220168212890625,0.7545884251594543,-0.5486462116241455,-2.416414976119995
1761400816461262000,1.230261962890625,0.7147356271743774,-0.6855912804603577,-2.3661201000213623
1761400816471329800,1.240329833984375,0.7290746569633484,-0.5445494055747986,-2.2317397594451904
1761400816481423400,1.25042333984375,0.7015290856361389,-0.21858249604701996,-1.9458255767822266
1761400816491504400,1.26050439453125,0.5230158567428589,0.1312161087989807,-1.483529806137085
1761400816511666700,1.280666748046875,-0.15083441138267517,-0.16635584831237793,-0.42455798387527466
1761400816521747200,1.290747314453125,-0.45668336749076843,-0.49260586500167847,-0.0003663859097287059
1761400816531804400,1.300804443359375,-0.6626588702201843,-0.5858343839645386,0.4073545038700104
1761400816541899500,1.3108994140625,-0.8265166282653809,-0.5639345049858093,0.8949642181396484
1761400816551983000,1.320983154296875,-0.9772011637687683,-0.4354829490184784,1.3499155044555664
1761400816562058000,1.33105810546875,-1.1303671598434448,-0.2835327386856079,1.7859147787094116
1761400816572151600,1.341151611328125,-1.2423646450042725,-0.2212471216917038,2.2228965759277344
1761400816602386700,1.37138671875,-1.4206113815307617,-0.04121841490268707,3.554109811782837
1761400816612462600,1.381462646484375,-1.5041307210922241,-0.09176301211118698,3.9583001136779785
1761400816622547500,1.39154736328125,-1.6636584997177124,-0.26794466376304626,4.317624568939209
1761400816632635000,1.401634765625,-1.8409892320632935,-0.4723380506038666,4.611000061035156
1761400816642717400,1.411717529296875,-1.977617859840393,-0.6662061810493469,4.870917320251465
1761400816652785400,1.421785400390625,-2.0477309226989746,-1.0213006734848022,5.111116886138916
1761400816662879200,1.431879150390625,-2.1605610847473145,-1.328981637954712,5.319640159606934
1761400816672937700,1.441937744140625,-2.2886128425598145,-1.4859613180160522,5.501800537109375
1761400816683018000,1.45201806640625,-2.446575164794922,-1.522316813468933,5.719517230987549
1761400816693111000,1.462111083984375,-2.603788137435913,-1.3019356727600098,6.067467212677002
1761400816703202600,1.47220263671875,-2.577308416366577,-0.8090633749961853,6.567117691040039
1761400816713271000,1.48227099609375,-2.260084867477417,-0.40527278184890747,7.018404960632324
1761400816723368700,1.49236865234375,-1.8757460117340088,-0.11734341084957123,7.279205322265625
1761400816733432600,1.5024326171875,-1.5587222576141357,0.1252373605966568,7.293277740478516
1761400816743509000,1.512509033203125,-1.3465681076049805,0.38117456436157227,7.146523475646973
1761400816753600500,1.5226005859375,-1.1109486818313599,0.2750392258167267,6.87001895904541
1761400816763686400,1.532686279296875,-0.917496919631958,-0.13456355035305023,6.600008964538574
1761400816773768200,1.542768310546875,-0.8518306016921997,-0.7595013380050659,6.3199238777160645
1761400816783849200,1.55284912109375,-0.9619461894035339,-1.408753752708435,6.016922473907471
1761400816793917700,1.562917724609375,-1.1555811166763306,-2.156747341156006,5.574728012084961
1761400816803998700,1.572998779296875,-1.3746799230575562,-2.772941827774048,5.123890399932861
1761400816814079200,1.583079345703125,-1.5693473815917969,-3.0330090522766113,4.682778358459473
1761400816824171000,1.5931708984375,-1.6767984628677368,-2.9505722522735596,4.199981689453125
1761400816834253800,1.60325390625,-1.6911706924438477,-2.6364963054656982,3.6600286960601807
1761400816844321800,1.61332177734375,-1.6294846534729004,-2.1925532817840576,3.1211416721343994
1761400816854410800,1.62341064453125,-1.5023820400238037,-1.7202484607696533,2.554509162902832
1761400816864496000,1.63349609375,-1.3076812028884888,-1.230806827545166,1.9975526332855225
1761400816874570800,1.64357080078125,-1.139160394668579,-0.6990309953689575,1.4852118492126465
1761400816884655900,1.65365576171875,-1.0152220726013184,-0.17170175909996033,1.0221333503723145
1761400816894729500,1.6637294921875,-0.8931822180747986,0.08708326518535614,0.5212505459785461
1761400816904807400,1.673807373046875,-0.8286816477775574,0.1967492252588272,-0.008043835870921612
1761400816914899000,1.68389892578125,-0.9099360704421997,0.45691654086112976,-0.49368834495544434
1761400816924968700,1.69396875,-0.9668424725532532,0.9539856314659119,-0.9364490509033203
1761400816935062000,1.70406201171875,-0.8742300868034363,1.4992344379425049,-1.3792431354522705
1761400816945130800,1.714130859375,-0.7197151780128479,1.749859094619751,-1.865803599357605
1761400816955222300,1.72422216796875,-0.5863007307052612,1.8205715417861938,-2.4493396282196045
1761400816965304800,1.734304931640625,-0.43206891417503357,1.871549129486084,-3.0770087242126465
1761400816975373300,1.744373291015625,-0.1800786703824997,1.8704333305358887,-3.6710867881774902
1761400816985469200,1.75446923828125,0.14477239549160004,1.6571967601776123,-4.217601299285889
1761400816995536100,1.7645361328125,0.5142226219177246,0.9653935432434082,-4.6583638191223145
1761400817005626400,1.77462646484375,0.841072142124176,0.04822970926761627,-4.991225242614746
1761400817015706400,1.784706298828125,1.0630687475204468,-0.5095762014389038,-5.202213764190674
1761400817025782800,1.79478271484375,1.1525168418884277,-0.5720283389091492,-5.278321743011475
1761400817035858200,1.804858154296875,1.09621000289917,-0.23996610939502716,-5.191655158996582
1761400817045939000,1.81493896484375,0.9382976293563843,0.30911311507225037,-4.98498010635376
1761400817056032500,1.825032470703125,0.8362591862678528,0.6134799122810364,-4.811079978942871
1761400817066113300,1.83511328125,0.8226529359817505,0.6521835923194885,-4.717784881591797
1761400817076184000,1.84518408203125,0.8943812847137451,0.6415250897407532,-4.657214641571045
1761400817086260700,1.8552607421875,1.0818209648132324,0.5055126547813416,-4.619959831237793
1761400817096355800,1.86535595703125,1.3738805055618286,0.08040504902601242,-4.650569438934326
1761400817106436600,1.8754365234375,1.737168788909912,-0.4895748496055603,-4.751142501831055
1761400817116518100,1.88551806640625,2.0978922843933105,-0.8264333605766296,-4.830881595611572
1761400817126595600,1.895595703125,2.388819456100464,-0.7406657338142395,-4.814693927764893
1761400817136667000,1.9056669921875,2.612597942352295,-0.2645805776119232,-4.696751117706299
1761400817146747100,1.9157470703125,2.656048059463501,0.5904974937438965,-4.501483917236328
1761400817156841200,1.92584130859375,2.5418355464935303,1.3425545692443848,-4.239101409912109
1761400817166933500,1.93593359375,2.3368093967437744,1.5453824996948242,-4.011043071746826
1761400817177000400,1.94600048828125,2.0936455726623535,1.2733741998672485,-3.881558895111084
1761400817187083800,1.956083740234375,1.930553913116455,0.8492991924285889,-3.7767558097839355
1761400817197142800,1.966142822265625,1.8909176588058472,0.33632561564445496,-3.601456880569458
1761400817207231200,1.976231201171875,1.910402774810791,-0.08771611750125885,-3.342521905899048
1761400817217313800,1.986313720703125,1.9729214906692505,-0.19115352630615234,-3.114047050476074
1761400817227407000,1.996406982421875,1.9089537858963013,0.13977622985839844,-2.7420654296875
1761400817237477000,2.00647705078125,1.7691110372543335,0.4831131398677826,-2.154965400695801
1761400817247568600,2.016568603515625,1.6835432052612305,0.511641263961792,-1.6398433446884155
1761400817257649700,2.026649658203125,1.4674421548843384,0.5569065809249878,-1.3399232625961304
1761400817267718700,2.03671875,1.2220135927200317,0.4463246464729309,-1.3058992624282837
1761400817277810400,2.046810546875,1.0275459289550781,0.30278465151786804,-1.412800669670105
1761400817287879700,2.056879638671875,0.8781270980834961,0.3866037428379059,-1.5864343643188477
1761400817297961000,2.0669609375,0.9241751432418823,0.2435300499200821,-1.613613486289978
1761400817308041500,2.07704150390625,0.9890587329864502,-0.07515907287597656,-1.4870938062667847
1761400817318123000,2.087123046875,0.8253341913223267,0.014055895619094372,-1.2881795167922974
1761400817328213800,2.0972138671875,0.6411920189857483,0.09008096903562546,-0.9392469525337219
1761400817338284000,2.107283935546875,0.4616628885269165,0.1433568149805069,-0.5490792393684387
1761400817348377000,2.117377197265625,0.2700430750846863,0.12893453240394592,-0.17285087704658508
1761400817358458000,2.1274580078125,0.044615812599658966,0.09590984135866165,0.057589203119277954
1761400817368551200,2.13755126953125,-0.20122912526130676,0.29209282994270325,0.11557810008525848
1761400817378620000,2.147619873046875,-0.41611447930336,0.547447144985199,0.1223229318857193
1761400817388700700,2.15770068359375,-0.5492624640464783,0.549712061882019,0.17399999499320984
1761400817398769200,2.16776904296875,-0.6874565482139587,0.3178897500038147,0.3055325448513031
1761400817408837400,2.17783740234375,-0.7744731903076172,-0.1574460119009018,0.547663688659668
1761400817418918700,2.187918701171875,-0.9340675473213196,-0.43524980545043945,0.8466511964797974
1761400817429011700,2.19801171875,-1.0844190120697021,-0.460497111082077,1.2338378429412842
1761400817439093200,2.20809326171875,-1.1794627904891968,-0.3423043489456177,1.706225872039795
1761400817449174500,2.218174560546875,-1.25905179977417,-0.1934184432029724,2.1965668201446533
1761400817459252200,2.228252197265625,-1.312111258506775,-0.07960566133260727,2.6565144062042236
1761400817469348000,2.23834814453125,-1.3652371168136597,-0.02103388123214245,3.1195762157440186
1761400817479428600,2.2484287109375,-1.4306037425994873,0.0020484302658587694,3.630967617034912
1761400817489507300,2.25850732421875,-1.467908501625061,0.11118146777153015,4.256904602050781
1761400817499578000,2.268578125,-1.4360828399658203,0.2624821960926056,4.89190149307251
1761400817509671200,2.278671142578125,-1.3924329280853271,0.5800055265426636,5.388254165649414
1761400817519737900,2.28873779296875,-1.2992876768112183,0.9807651042938232,5.764649391174316
1761400817529832700,2.298832763671875,-1.138960599899292,1.3412055969238281,6.180797100067139
1761400817539901700,2.308901611328125,-0.8671188354492188,1.5387874841690063,6.685143947601318
1761400817549982200,2.318982177734375,-0.41463226079940796,1.152400255203247,7.416216850280762
1761400817560075800,2.32907568359375,-0.002981049008667469,0.5343738198280334,8.198551177978516
1761400817570138000,2.33913818359375,0.19156986474990845,0.3218367099761963,8.659514427185059
1761400817580224500,2.349224609375,0.27399003505706787,0.16625593602657318,8.819741249084473
1761400817590315500,2.3593154296875,0.3211705684661865,0.00816041324287653,8.774309158325195
1761400817600398800,2.36939892578125,0.3792427182197571,0.07201148569583893,8.642127990722656
1761400817610454500,2.37945458984375,0.4175633490085602,0.2900277376174927,8.505049705505371
1761400817620540200,2.3895400390625,0.3659362494945526,0.22616003453731537,8.282003402709961
1761400817630629400,2.39962939453125,0.17957904934883118,-0.3031843304634094,7.892551898956299
1761400817640721400,2.409721435546875,-0.1107318103313446,-1.0759921073913574,7.365839004516602
1761400817650788600,2.41978857421875,-0.41281700134277344,-1.637261986732483,6.746097087860107
1761400817660884200,2.42988427734375,-0.5664492845535278,-1.6666561365127563,6.117095947265625
1761400817670965000,2.439965087890625,-0.5527930855751038,-1.2381179332733154,5.502699851989746
1761400817681033500,2.450033447265625,-0.45113763213157654,-0.6790463328361511,4.897613525390625
1761400817691099000,2.460098876953125,-0.3552277982234955,-0.23463685810565948,4.271943092346191
1761400817701176800,2.4701767578125,-0.30210182070732117,0.1393931806087494,3.655365467071533
1761400817711288300,2.480288330078125,-0.2431803196668625,0.3563435971736908,3.044966697692871
1761400817721365000,2.490364990234375,-0.14735375344753265,0.31938859820365906,2.4270401000976562
1761400817731438300,2.500438232421875,-0.06495022773742676,0.23045673966407776,1.8549119234085083
1761400817741530600,2.510530517578125,-0.03244180604815483,0.270809143781662,1.3732643127441406
1761400817751599400,2.520599365234375,0.008193721063435078,0.3708491623401642,0.9354997873306274
1761400817761689900,2.53068994140625,0.10596879571676254,0.48196399211883545,0.503347635269165
1761400817771773200,2.540773193359375,0.1952836811542511,0.5133233070373535,0.040102601051330566
1761400817781852700,2.550852783203125,0.21260374784469604,0.47956582903862,-0.47898295521736145
1761400817791935000,2.56093505859375,0.16350804269313812,0.43260183930397034,-1.0275626182556152
1761400817802007300,2.57100732421875,0.10540256649255753,0.5128902792930603,-1.4993010759353638
1761400817812087000,2.581087158203125,0.04781335964798927,0.6020719408988953,-1.904840350151062
1761400817822177500,2.591177490234375,-0.0076108346693217754,0.6076343655586243,-2.2563376426696777
1761400817832246300,2.601246337890625,-0.016637250781059265,0.5845687389373779,-2.534041404724121
1761400817842328000,2.611328125,0.017386676743626595,0.488592267036438,-2.777055263519287
1761400817852422400,2.62142236328125,0.04509877413511276,0.3333612084388733,-2.9832472801208496
1761400817872582000,2.641581787109375,-0.0259634368121624,0.17031948268413544,-3.3849895000457764
1761400817882662400,2.651662353515625,-0.04578158259391785,0.35262978076934814,-3.6432580947875977
1761400817892743700,2.66174365234375,-0.013972626067698002,0.6942013502120972,-3.941096544265747
1761400817902824400,2.671824462890625,0.07214471697807312,0.9343673586845398,-4.354979515075684
1761400817912905500,2.681905517578125,0.2095227837562561,1.0126073360443115,-4.886538982391357
1761400817922986000,2.691986083984375,0.2758053243160248,1.0326753854751587,-5.432803630828857
1761400817933042000,2.7020419921875,0.18214376270771027,1.2167842388153076,-5.832763671875
1761400817943165700,2.712165771484375,-0.004113514441996813,1.6403429508209229,-5.970558166503906
1761400817953237500,2.722237548828125,-0.059637632220983505,1.8634220361709595,-6.046017169952393
1761400817963309300,2.732309326171875,0.05599042773246765,1.6834100484848022,-6.198183536529541
1761400817973386800,2.74238671875,0.1824435293674469,1.1221067905426025,-6.3704514503479
1761400817983446000,2.752446044921875,0.1952170729637146,0.3369917571544647,-6.527714729309082
1761400817993552100,2.76255224609375,0.1810445934534073,-0.31156125664711,-6.654001235961914
1761400818003611600,2.772611572265625,0.23140600323677063,-0.6821439266204834,-6.772460460662842
1761400818013689000,2.782689208984375,0.28299981355667114,-0.7359360456466675,-6.8419904708862305
1761400818023794700,2.792794677734375,0.300036758184433,-0.5602706670761108,-6.863057613372803
1761400818033875700,2.802875732421875,0.2628485858440399,-0.09231259673833847,-6.7732930183410645
1761400818043953000,2.812952880859375,0.27743738889694214,0.5303269624710083,-6.566368103027344
1761400818054012200,2.82301220703125,0.4029245674610138,1.1268864870071411,-6.395482540130615
1761400818064093400,2.833093505859375,0.558571994304657,1.3589253425598145,-6.316359996795654
1761400818074204000,2.843203857421875,0.6674052476882935,1.2078911066055298,-6.260119438171387
1761400818084280000,2.853280029296875,0.7474605441093445,0.8257672190666199,-6.144591331481934
1761400818094360600,2.863360595703125,0.7011626958847046,0.39831143617630005,-5.867053985595703
1761400818104441900,2.87344189453125,0.5573562383651733,0.2236785888671875,-5.401211261749268
1761400818114522400,2.8835224609375,0.3847385048866272,0.06205245107412338,-4.8759636878967285
1761400818124581600,2.89358154296875,0.22341212630271912,-0.1984146237373352,-4.461164951324463
1761400818134647300,2.903647216796875,-0.03110949508845806,-0.2459615170955658,-4.0844035148620605
1761400818144740000,2.913739990234375,-0.2417980432510376,0.04618127644062042,-3.703528642654419
1761400818154846200,2.92384619140625,-0.2755555212497711,0.32728254795074463,-3.3256680965423584
1761400818164901400,2.9339013671875,-0.2693602442741394,0.43481680750846863,-2.887637138366699
1761400818175008000,2.944008056640625,-0.21883231401443481,0.2057589888572693,-2.375596284866333
1761400818185089000,2.954089111328125,-0.18415887653827667,-0.1743164211511612,-1.7620164155960083
1761400818195144700,2.964144775390625,-0.24592821300029755,-0.29230934381484985,-1.0432173013687134
1761400818205250000,2.97425,-0.3353263735771179,-0.03966960310935974,-0.19171975553035736
1761400818215321900,2.98432177734375,-0.34505224227905273,0.4257737398147583,0.7727578282356262
1761400818225411800,2.994411865234375,-0.37957578897476196,0.7248112559318542,1.5974758863449097
1761400818235492900,3.004492919921875,-0.53345787525177,0.7517905831336975,2.2176005840301514
1761400818245573400,3.014573486328125,-0.6816609501838684,0.539020299911499,2.722646951675415
1761400818255654700,3.024654541015625,-0.788662314414978,0.20595884323120117,3.2068426609039307
1761400818265735200,3.034735107421875,-0.8771111965179443,-0.184525266289711,3.69488525390625
1761400818275816000,3.04481591796875,-1.0274460315704346,-0.4161810874938965,4.115729331970215
1761400818285897200,3.054897216796875,-1.1784802675247192,-0.9931889176368713,4.503249168395996
1761400818295978000,3.06497802734375,-1.4511712789535522,-1.4862943887710571,4.825502395629883
1761400818306058800,3.075058837890625,-1.7311900854110718,-1.3805420398712158,5.3070831298828125
1761400818316139500,3.085139404296875,-1.8345941305160522,-0.8254507780075073,5.898263454437256
1761400818326200300,3.095200439453125,-1.7339879274368286,-0.14397300779819489,6.368453025817871
1761400818336275700,3.105275634765625,-1.5765252113342285,0.4668589234352112,6.549431324005127
1761400818346382800,3.1153828125,-1.5295612812042236,1.2678284645080566,6.446227073669434
1761400818356463000,3.125463134765625,-1.475036382675171,1.9819146394729614,6.269145965576172
1761400818366545200,3.135545166015625,-1.2476606369018555,2.2619667053222656,6.194436550140381
1761400818376625700,3.145625732421875,-0.6791629195213318,1.7736908197402954,6.341041088104248
1761400818386706400,3.15570654296875,-0.008343606255948544,0.4769345223903656,6.662045001983643
1761400818396787200,3.165787109375,0.18888859450817108,-0.3896847069263458,6.808582782745361
1761400818406867500,3.175867431640625,0.14055895805358887,-0.8784934878349304,6.8451714515686035
1761400818416922000,3.185922119140625,0.08953139185905457,-1.2200983762741089,6.898980140686035
1761400818427004000,3.19600390625,0.030210183933377266,-1.223196029663086,7.0138421058654785
1761400818437085000,3.2060849609375,-0.032042112201452255,-0.8645541667938232,7.1705217361450195
1761400818447190500,3.2161904296875,-0.061769332736730576,-0.363837867975235,7.262901306152344
1761400818457256200,3.226256103515625,-0.0485960952937603,0.12227296829223633,7.2588043212890625
1761400818467352300,3.236352294921875,-0.07356029748916626,0.4476402997970581,7.173969268798828
1761400818477433300,3.246433349609375,-0.19606642425060272,0.4532693326473236,6.907589912414551
1761400818487513900,3.256513916015625,-0.3750959038734436,0.11233058571815491,6.375781059265137
1761400818497571000,3.266571044921875,-0.5293610095977783,-0.4295708239078522,5.604821681976318
1761400818507676000,3.276676025390625,-0.6001567840576172,-0.8664693832397461,4.763666152954102
1761400818517757400,3.28675732421875,-0.5906140804290771,-1.0783902406692505,3.9623804092407227
1761400818527837700,3.296837646484375,-0.5464812517166138,-1.130300521850586,3.2626497745513916
1761400818537919000,3.3069189453125,-0.5078608393669128,-1.0704131126403809,2.6864912509918213
1761400818547998700,3.316998779296875,-0.4894915819168091,-0.9750028848648071,2.2314233779907227
1761400818558076000,3.327075927734375,-0.47043949365615845,-0.9030579924583435,1.846301794052124
1761400818568159000,3.337158935546875,-0.4073212146759033,-0.7719584703445435,1.494921088218689
1761400818578242300,3.3472421875,-0.31051206588745117,-0.5221165418624878,1.1419916152954102
1761400818588286200,3.3572861328125,-0.20131240785121918,-0.2519402801990509,0.71085524559021
1761400818598403300,3.3674033203125,-0.10230493545532227,-0.07932254672050476,0.1597442477941513
1761400818608480300,3.377480224609375,-0.03315792605280876,0.004946209955960512,-0.48091480135917664
1761400818618566000,3.38756591796875,0.014122511260211468,0.052826184779405594,-1.170919418334961
1761400818628620800,3.397620849609375,0.055674005299806595,0.0732438713312149,-1.8445698022842407
1761400818638727700,3.407727783203125,0.0955267995595932,0.12695272266864777,-2.4499058723449707
1761400818648807700,3.4178076171875,0.1578623652458191,0.2695101499557495,-2.9816484451293945
1761400818658889000,3.427888916015625,0.19586656987667084,0.4667922854423523,-3.42006254196167
1761400818668970000,3.437969970703125,0.19393472373485565,0.6497354507446289,-3.7868149280548096
1761400818679047200,3.448047119140625,0.16957005858421326,0.6885390281677246,-4.134997844696045
1761400818689131000,3.458131103515625,0.147670179605484,0.5376046895980835,-4.474221229553223
1761400818699212800,3.468212890625,0.15269964933395386,0.33297815918922424,-4.794309616088867
1761400818709293600,3.47829345703125,0.18082809448242188,0.15208345651626587,-5.124622821807861
1761400818719348700,3.4883486328125,0.2291743904352188,-0.018569104373455048,-5.478418350219727
1761400818729455600,3.49845556640625,0.3152584135532379,-0.2193818837404251,-5.86332368850708
1761400818739532300,3.5085322265625,0.4378644526004791,-0.3779437243938446,-6.244132041931152
1761400818749616600,3.51861669921875,0.5288447737693787,-0.29738879203796387,-6.518138408660889
1761400818759698000,3.528697998046875,0.5447992086410522,0.025230666622519493,-6.637013912200928
1761400818769757700,3.5387578125,0.5615530014038086,0.40941959619522095,-6.629236698150635
1761400818779859700,3.548859619140625,0.6229060292243958,0.6527997851371765,-6.518438339233398
1761400818789940500,3.5589404296875,0.7480601072311401,0.61681067943573,-6.3811936378479
1761400818799995600,3.56899560546875,0.8746797442436218,0.4747028946876526,-6.320639610290527
1761400818810089200,3.579089111328125,0.9635782837867737,0.3640543520450592,-6.380377292633057
1761400818820182500,3.5891826171875,1.061969518661499,0.18325956165790558,-6.485313892364502
1761400818830263800,3.599263916015625,1.198581576347351,-0.14304038882255554,-6.521419525146484
1761400818840344000,3.609343994140625,1.3077478408813477,-0.3720482289791107,-6.499502658843994
1761400818850424800,3.6194248046875,1.3833400011062622,-0.21525171399116516,-6.4257426261901855
1761400818860493800,3.629493896484375,1.4598979949951172,0.14518874883651733,-6.31614351272583
1761400818870582500,3.63958251953125,1.4883594512939453,0.5210840106010437,-6.193087577819824
1761400818880668000,3.64966796875,1.4947712421417236,0.6254040598869324,-6.026448726654053
1761400818890733800,3.65973388671875,1.4682081937789917,0.504446804523468,-5.850716590881348
1761400818900830000,3.669829833984375,1.4463750123977661,0.3148920238018036,-5.7018141746521
1761400818910910700,3.67991064453125,1.47038996219635,0.1403757631778717,-5.537789821624756
1761400818920966100,3.689966064453125,1.5113751888275146,-0.004862940404564142,-5.249743938446045
1761400818931068000,3.70006787109375,1.472488284111023,0.023931661620736122,-4.810580253601074
1761400818941152800,3.71015283203125,1.3655202388763428,0.21821612119674683,-4.251858711242676
1761400818951233500,3.720233642578125,1.2060091495513916,0.3540453612804413,-3.6189935207366943
1761400818961314300,3.730314208984375,0.9918399453163147,0.42344218492507935,-3.022733688354492
1761400818971373000,3.740373046875,0.7646307349205017,0.372647762298584,-2.461580276489258
1761400818981456400,3.750456298828125,0.5649504065513611,0.284565269947052,-1.8650708198547363
1761400818991557400,3.760557373046875,0.4830465018749237,-0.2232622504234314,-1.1691207885742188
1761400819001634300,3.77063427734375,0.3507978618144989,-0.5938615798950195,-0.6790796518325806
1761400819011694000,3.780694091796875,0.1717517226934433,-0.6883225440979004,-0.29197627305984497
1761400819021776600,3.790776611328125,0.023948315531015396,-0.7258604168891907,0.1468208283185959
1761400819031905000,3.800905029296875,-0.17231795191764832,-0.5086435675621033,0.6069515347480774
1761400819041961000,3.8109609375,-0.3996604084968567,-0.027578866109251976,1.0118579864501953
1761400819052032800,3.82103271484375,-0.5058789849281311,0.3137762248516083,1.307098388671875
1761400819062119000,3.831118896484375,-0.4848451316356659,0.40004345774650574,1.3969794511795044
1761400819072204300,3.841204345703125,-0.38402238488197327,0.45266979932785034,1.3101294040679932
1761400819082264600,3.8512646484375,-0.22226300835609436,0.35471153259277344,1.1824772357940674
1761400819092366600,3.86136669921875,-0.09244582802057266,0.33048009872436523,1.018619418144226
1761400819102446600,3.871446533203125,-0.05802220478653908,0.25981757044792175,0.8963631391525269
1761400819112527400,3.88152734375,-0.13881029188632965,0.19401799142360687,0.8658698201179504
1761400819122585000,3.891585205078125,-0.30293452739715576,0.08703330904245377,0.9406291842460632
1761400819132666400,3.901666259765625,-0.5088434219360352,-0.07612499594688416,1.0451990365982056
1761400819142770700,3.911770751953125,-0.7840158939361572,-0.14881929755210876,1.1915868520736694
1761400819152850400,3.921850341796875,-1.106652021408081,-0.14270730316638947,1.3826072216033936
1761400819162932200,3.93193212890625,-1.445192575454712,-0.039503064006567,1.5404362678527832
1761400819173013000,3.942012939453125,-1.7562541961669922,0.13054996728897095,1.679046630859375
1761400819183093200,3.95209326171875,-2.019219398498535,0.28951147198677063,1.8719322681427002
1761400819193170700,3.962170654296875,-2.2169511318206787,0.29182636737823486,2.1523172855377197
1761400819203255800,3.972255859375,-2.3981456756591797,0.3128269612789154,2.4653775691986084
1761400819213329700,3.98232958984375,-2.4844794273376465,0.2640143632888794,2.802452564239502
1761400819223417600,3.99241748046875,-2.514406442642212,0.06283517926931381,3.1246390342712402
1761400819233497600,4.00249755859375,-2.5417189598083496,-0.08500152826309204,3.360741376876831
1761400819243579100,4.0125791015625,-2.5717291831970215,-0.13358096778392792,3.5655012130737305
1761400819253655300,4.0226552734375,-2.5612874031066895,-0.10060624033212662,3.8168251514434814
1761400819263741000,4.032740966796875,-2.4996678829193115,-0.006495022680610418,4.126920700073242
1761400819273815800,4.04281591796875,-2.4122514724731445,0.15271630883216858,4.5107269287109375
1761400819283902000,4.05290185546875,-2.3039844036102295,0.2919096350669861,4.927157878875732
1761400819293983500,4.0629833984375,-2.2128708362579346,0.5665991306304932,5.358277320861816
1761400819304064500,4.073064453125,-2.112964153289795,1.1174936294555664,5.819540500640869
1761400819314145300,4.083145263671875,-1.918962836265564,1.7137035131454468,6.22494649887085
1761400819324221400,4.093221435546875,-1.5061625242233276,1.8277827501296997,6.587119102478027
1761400819334306300,4.103306396484375,-0.9820308089256287,1.4675920009613037,6.866488456726074
1761400819344364000,4.113364013671875,-0.5527264475822449,1.1965330839157104,6.946810245513916
1761400819354443000,4.123443115234375,-0.23320463299751282,1.2067753076553345,6.931305408477783
1761400819364552000,4.133552001953125,0.010042304173111916,1.359025239944458,6.908755779266357
1761400819374613200,4.14361328125,0.17143529653549194,1.4534529447555542,6.808599472045898
1761400819384708900,4.153708984375,0.2517903745174408,1.3449527025222778,6.5370073318481445
1761400819394791200,4.163791259765625,0.2818673253059387,1.063901424407959,6.134232521057129
1761400819404872400,4.17387255859375,0.26100000739097595,0.7370685338973999,5.705428123474121
1761400819414928100,4.18392822265625,0.20362728834152222,0.5230991244316101,5.295309066772461
1761400819425034800,4.19403466796875,0.1348966360092163,0.4423443675041199,4.909970760345459
1761400819435114800,4.20411474609375,0.08208709955215454,0.3714653551578522,4.519886493682861
1761400819445194000,4.214194091796875,0.0622023344039917,0.24937556684017181,4.116861820220947
1761400819455277000,4.224277099609375,0.07226129621267319,0.10488629341125488,3.704394578933716
1761400819465357300,4.234357421875,0.06898047029972076,-0.051077526062726974,3.252457618713379
1761400819475438800,4.24443896484375,0.02712921053171158,-0.11226397007703781,2.7438807487487793
1761400819485505000,4.254505126953125,0.0022982389200478792,-0.045981429517269135,2.201612949371338
1761400819495587300,4.26458740234375,0.03857044503092766,0.06859743595123291,1.650535225868225
1761400819505678800,4.274678955078125,0.12295577675104141,0.17268434166908264,1.1177268028259277
1761400819515768300,4.284768310546875,0.21863245964050293,0.2535390555858612,0.5954270362854004
1761400819525843000,4.294843017578125,0.29550689458847046,0.36235564947128296,0.066432423889637
1761400819535923700,4.304923828125,0.35584399104118347,0.5410187244415283,-0.4584819972515106
1761400819545988900,4.31498876953125,0.41733020544052124,0.7749561667442322,-1.0016491413116455
1761400819556085500,4.32508544921875,0.5127237439155579,0.9311531186103821,-1.5832034349441528
1761400819566164000,4.3351640625,0.6498686671257019,0.9178966283798218,-2.1682217121124268
1761400819576245500,4.34524560546875,0.8285484313964844,0.832978367805481,-2.6941187381744385
1761400819586326800,4.355326904296875,1.013206958770752,0.7562704682350159,-3.1601617336273193
1761400819596383200,4.36538330078125,1.1405593156814575,0.6368452906608582,-3.629202365875244
1761400819606465000,4.375465087890625,1.2430307865142822,0.4820805788040161,-4.116645336151123
1761400819616547300,4.38554736328125,1.3432873487472534,0.27279096841812134,-4.568099498748779
1761400819626626000,4.3956259765625,1.3040341138839722,0.1012890487909317,-4.891584873199463
1761400819636706800,4.405706787109375,1.042984127998352,0.15289950370788574,-5.0472822189331055
1761400819646787600,4.41578759765625,0.7084237933158875,0.35234665870666504,-5.116995334625244
1761400819656868900,4.425868896484375,0.46995654702186584,0.47107234597206116,-5.217152118682861
1761400819666962400,4.43596240234375,0.3728809356689453,0.4596644341945648,-5.391385078430176
1761400819677055700,4.4460556640625,0.4588317275047302,0.19380149245262146,-5.5797576904296875
1761400819687123700,4.456123779296875,0.6402426958084106,-0.261649489402771,-5.717202186584473
1761400819697215500,4.466215576171875,0.8753625750541687,-0.6395765542984009,-5.850949764251709
1761400819707298300,4.47629833984375,1.174833059310913,-0.785914421081543,-6.016839504241943
1761400819717379300,4.48637939453125,1.5346406698226929,-0.621407151222229,-6.17801570892334
1761400819727459600,4.49645947265625,1.8846391439437866,-0.24073219299316406,-6.266331672668457
1761400819737536800,4.506536865234375,2.1261374950408936,0.006395099684596062,-6.294642925262451
1761400819747621600,4.51662158203125,2.2190661430358887,0.013156584464013577,-6.343006134033203
1761400819757679600,4.5266796875,2.196133852005005,0.035123083740472794,-6.437900066375732
1761400819767783700,4.53678369140625,2.125537872314453,0.31189432740211487,-6.485696792602539
1761400819777864200,4.5468642578125,2.1434574127197266,0.5890819430351257,-6.4002790451049805
1761400819787945200,4.5569453125,2.192286729812622,0.7487428784370422,-6.185426712036133
1761400819798025000,4.56702490234375,2.1412925720214844,0.7483099102973938,-5.887571811676025
1761400819808094000,4.577093994140625,2.0020158290863037,0.46822452545166016,-5.5928144454956055
1761400819818185000,4.58718505859375,1.8581926822662354,0.07960566133260727,-5.416799068450928
1761400819828266200,4.597266357421875,1.7407327890396118,-0.20484302937984467,-5.314361095428467
1761400819838349600,4.607349609375,1.5901647806167603,-0.32515084743499756,-5.085336685180664
1761400819848418000,4.61741796875,1.4003769159317017,-0.3324452340602875,-4.660478591918945
1761400819858511000,4.627510986328125,1.1459884643554688,-0.2433302104473114,-4.131267547607422
1761400819868592000,4.637592041015625,0.8631718754768372,-0.1238550916314125,-3.499751567840576
1761400819878673000,4.6476728515625,0.5808715224266052,-0.09787499904632568,-2.8158254623413086
1761400819888743700,4.65774365234375,0.2917264401912689,-0.1624421924352646,-2.171586036682129
1761400819898829000,4.6678291015625,0.028195060789585114,-0.2600507140159607,-1.5527434349060059
1761400819908915700,4.677915771484375,-0.1964661180973053,-0.4175633490085602,-0.9223765134811401
1761400819918984200,4.687984130859375,-0.3888187110424042,-0.6472040414810181,-0.3097626268863678
1761400819929077200,4.6980771484375,-0.5542253255844116,-0.7456952333450317,0.19276894629001617
1761400819939157800,4.70815771484375,-0.6518172025680542,-0.7268930077552795,0.5696967840194702
1761400819949221000,4.71822119140625,-0.6389936804771423,-0.5918797850608826,0.8034676313400269
1761400819959317500,4.7283173828125,-0.5365222096443176,-0.39110028743743896,0.930603563785553
1761400819969400800,4.73840087890625,-0.44898927211761475,-0.21297013759613037,0.9827468991279602
1761400819979468800,4.74846875,-0.4452921152114868,-0.20525938272476196,0.9844622611999512
1761400819989561900,4.758561767578125,-0.5199682116508484,-0.21168778836727142,0.9769513607025146
1761400819999643100,4.76864306640625,-0.5986079573631287,-0.1272524893283844,1.0037974119186401
1761400820009724000,4.778723876953125,-0.6337143778800964,-0.04246745631098747,1.0339410305023193
1761400820019802600,4.788802734375,-0.6615930199623108,0.002764548175036907,1.045099139213562
1761400820029872600,4.79887255859375,-0.697698712348938,0.05665658414363861,1.029394507408142
1761400820039953400,4.808953369140625,-0.7719084620475769,0.11647740751504898,0.9632618427276611
1761400820050047700,4.8190478515625,-0.929021418094635,0.19211944937705994,0.8264999985694885
1761400820060113400,4.829113525390625,-1.1559308767318726,0.23525306582450867,0.7244781851768494
1761400820070209500,4.83920947265625,-1.4159482717514038,0.13699501752853394,0.8008529543876648
1761400820080287700,4.849287841796875,-1.7535229921340942,-0.05290945619344711,1.0133734941482544
1761400820090357500,4.859357421875,-2.1289353370666504,-0.3138594925403595,1.2729579210281372
1761400820100451600,4.86945166015625,-2.5353405475616455,-0.5317924618721008,1.6076680421829224
1761400820110519000,4.87951904296875,-2.8916175365448,-0.6868403553962708,2.0161051750183105
1761400820120587500,4.88958740234375,-3.143674373626709,-0.7590183615684509,2.4496562480926514
1761400820130692600,4.899692626953125,-3.3136940002441406,-0.6405091881752014,2.8502657413482666
1761400820140775000,4.90977490234375,-3.4141671657562256,-0.2024282068014145,3.304001569747925
1761400820150852400,4.919852294921875,-3.3763628005981445,0.2616328299045563,3.852564573287964
1761400820160938800,4.929938720703125,-3.2201991081237793,0.6363790035247803,4.412652015686035
1761400820171017700,4.940017822265625,-2.9971866607666016,0.9044069647789001,4.977502346038818
1761400820181098200,4.95009814453125,-2.7186667919158936,0.9131336212158203,5.59273099899292
1761400820191154400,4.960154541015625,-2.4141833782196045,0.6555143594741821,6.222998142242432
1761400820201260300,4.97026025390625,-2.148670196533203,0.5225995182991028,6.741267681121826
1761400820211337200,4.980337158203125,-1.8579262495040894,0.5279287695884705,7.165958881378174
1761400820221421800,4.990421875,-1.5198686122894287,0.5364222526550293,7.547083377838135
1761400820231502600,5.000502685546875,-1.1963332891464233,0.7926259636878967,7.984098434448242
1761400820241562000,5.01056201171875,-0.9892752766609192,1.0458651781082153,8.354763984680176
1761400820251664400,5.020664306640625,-0.9254574775695801,0.9582656621932983,8.483698844909668
1761400820261745200,5.0307451171875,-0.893481969833374,0.740082859992981,8.417033195495605
1761400820271826200,5.040826171875,-0.7538889646530151,0.5762917399406433,8.267814636230469
1761400820281902600,5.050902587890625,-0.5927790999412537,0.3001033663749695,8.014142036437988
1761400820291988000,5.060988037109375,-0.4998503029346466,-0.24369658529758453,7.549365043640137
1761400820302068500,5.071068359375,-0.40775421261787415,-0.6894550323486328,6.947809219360352
1761400820312149800,5.081149658203125,-0.2555375099182129,-0.8016523718833923,6.324070453643799
1761400820322238700,5.09123876953125,-0.06828100979328156,-0.5800055265426636,5.66316032409668
1761400820332294100,5.101294189453125,0.08110451698303223,-0.18615734577178955,5.03124475479126
1761400820342390000,5.11139013671875,0.133914053440094,0.31790637969970703,4.488260746002197
1761400820352472800,5.121472900390625,0.13369755446910858,0.9053895473480225,4.070580959320068
1761400820362554000,5.13155419921875,0.22497759759426117,1.4184629917144775,3.8076155185699463
1761400820372634400,5.14163427734375,0.31306010484695435,1.567432165145874,3.5802230834960938
1761400820382693400,5.151693359375,0.3436533212661743,1.4476406574249268,3.3251686096191406
1761400820392792000,5.1617919921875,0.32216978073120117,1.1177101135253906,2.956467866897583
1761400820402864600,5.17186474609375,0.21766653656959534,0.5890652537345886,2.3592753410339355
1761400820412951600,5.18195166015625,0.06878062337636948,-0.005912136286497116,1.5215506553649902
1761400820423052500,5.192052490234375,-0.10102258622646332,-0.41794639825820923,0.6634082794189453
1761400820433120300,5.202120361328125,-0.26406431198120117,-0.6891052722930908,-0.15957771241664886
1761400820443188200,5.212188232421875,-0.40184205770492554,-0.6218734383583069,-0.8866372108459473
1761400820453281800,5.22228173828125,-0.4635947346687317,-0.3369251489639282,-1.5581226348876953
1761400820463362000,5.232362060546875,-0.3735637366771698,0.06949674338102341,-2.222830057144165
1761400820473441500,5.242441650390625,-0.22810854017734528,0.5516106486320496,-2.7704436779022217
1761400820483524000,5.252524169921875,-0.12147358059883118,0.9521870017051697,-3.157313823699951
1761400820493604900,5.26260498046875,-0.11872568726539612,1.23911714553833,-3.461064577102661
1761400820503673000,5.272673095703125,-0.11907541751861572,1.4600478410720825,-3.8053340911865234
1761400820513767000,5.282766845703125,0.08546783775091171,1.3201717138290405,-4.338109016418457
1761400820523848000,5.292847900390625,0.3678014874458313,0.8024351000785828,-4.9363508224487305
1761400820533927000,5.302927001953125,0.5738935470581055,0.27287423610687256,-5.440714359283447
1761400820543998500,5.31299853515625,0.6899046897888184,-0.03887021541595459,-5.894382953643799
1761400820554090800,5.3230908203125,0.7671288251876831,-0.22148028016090393,-6.371883869171143
1761400820564171000,5.3331708984375,0.8774609565734863,-0.2293742299079895,-6.849717617034912
1761400820574249700,5.343249755859375,0.9768014550209045,-0.16470712423324585,-7.329666614532471
1761400820584332800,5.353332763671875,1.0444996356964111,-0.10118912905454636,-7.743216514587402
1761400820594418700,5.363418701171875,1.1243218183517456,0.04358327016234398,-8.076194763183594
1761400820604492500,5.373492431640625,1.2152020931243896,0.18024520576000214,-8.32325553894043
1761400820614575400,5.383575439453125,1.237318515777588,0.34783345460891724,-8.453755378723145
1761400820624630500,5.393630615234375,1.3417551517486572,0.4482731521129608,-8.331565856933594
1761400820634712600,5.403712646484375,1.5211843252182007,0.2287413775920868,-8.000335693359375
1761400820644804900,5.413804931640625,1.620391607284546,-0.06982982158660889,-7.670638561248779
1761400820654886100,5.42388623046875,1.6235392093658447,-0.15239988267421722,-7.3463873863220215
1761400820664977400,5.433977294921875,1.6446397304534912,-0.21203751862049103,-7.0745954513549805
1761400820675060500,5.444060546875,1.7291250228881836,-0.3789929151535034,-6.915584087371826
1761400820685128700,5.454128662109375,1.7722586393356323,-0.4566667377948761,-6.83656120300293
1761400820695222300,5.46422216796875,1.7327888011932373,-0.44664108753204346,-6.837177276611328
1761400820705302500,5.474302490234375,1.6430076360702515,-0.42510756850242615,-6.842706680297852
1761400820715360300,5.4843603515625,1.5611037015914917,-0.24634456634521484,-6.604738712310791
1761400820725464000,5.494464111328125,1.5565738677978516,-0.03940314054489136,-5.967443943023682
1761400820735543600,5.50454345703125,1.4928227663040161,0.14868606626987457,-5.088650703430176
1761400820745624800,5.514624755859375,1.3287150859832764,0.2942245304584503,-4.257320880889893
1761400820755694800,5.52469482421875,1.1416584253311157,0.07001301646232605,-3.6047043800354004
1761400820765788400,5.534788330078125,0.9415618181228638,-0.34874942898750305,-3.099558115005493
1761400820775869400,5.544869384765625,0.7810348272323608,-0.6286682486534119,-2.644023895263672
1761400820785948000,5.554947998046875,0.6813445687294006,-0.7771044969558716,-2.126620292663574
1761400820796028700,5.565028564453125,0.5150219798088074,-0.6271860599517822,-1.5335748195648193
1761400820806111200,5.575111328125,0.4135664105415344,-0.20442667603492737,-0.8075145483016968
1761400820816167400,5.58516748046875,0.4341672956943512,0.09162978082895279,0.029194295406341553
1761400820826273300,5.595273193359375,0.4406123459339142,0.15656335651874542,0.7907107472419739
1761400820836354300,5.605354248046875,0.37303081154823303,0.042484112083911896,1.407338261604309
1761400820846433300,5.615433349609375,0.2937415838241577,-0.11904211342334747,1.7907277345657349
1761400820856512000,5.625511962890625,0.26251551508903503,-0.24014930427074432,1.9875935316085815
1761400820866596900,5.635596923828125,0.27453961968421936,-0.20755761861801147,2.1478874683380127
1761400820876659000,5.645658935546875,0.21575133502483368,0.00874330010265112,2.2962071895599365
1761400820886758100,5.655758056640625,0.07309398800134659,0.39003443717956543,2.4007604122161865
1761400820896839200,5.665839111328125,-0.03802086412906647,0.5204678177833557,2.4189963340759277
1761400820906902300,5.67590234375,-0.20019659399986267,0.3622557520866394,2.3647212982177734
1761400820916999700,5.685999755859375,-0.410552054643631,0.049828484654426575,2.289212465286255
1761400820927067100,5.696067138671875,-0.7035108804702759,-0.3071146607398987,2.2344377040863037
1761400820937162800,5.706162841796875,-1.0394700765609741,-0.6794127225875854,2.112098217010498
1761400820947230500,5.71623046875,-1.3573598861694336,-0.949805498123169,1.9575998783111572
1761400820957308000,5.726307861328125,-1.6470211744308472,-0.9730377197265625,1.8713825941085815
1761400820967405600,5.736405517578125,-1.9016094207763672,-0.724994421005249,1.8723984956741333
1761400820977482000,5.74648193359375,-2.1351470947265625,-0.24199789762496948,2.0259974002838135
1761400820987550700,5.75655078125,-2.300137519836426,0.4503549039363861,2.4138669967651367
1761400820997635600,5.766635498046875,-2.275639533996582,0.7134033441543579,3.0098769664764404
1761400821017809400,5.786809326171875,-2.097959041595459,0.7266432046890259,4.098076343536377
1761400821027891000,5.796890869140625,-1.9764188528060913,0.7200981974601746,4.6218581199646
1761400821037972200,5.80697216796875,-1.7710095643997192,0.6070514917373657,5.106969833374023
1761400821048026600,5.817026611328125,-1.481131672859192,0.3970291018486023,5.519320487976074
1761400821058129400,5.82712939453125,-1.1488196849822998,0.10861676931381226,5.844637870788574
1761400821068211200,5.837211181640625,-0.8972957134246826,-0.19753196835517883,6.131401538848877
1761400821078294800,5.847294677734375,-0.911668062210083,-0.186323881149292,6.447809219360352
1761400821088375000,5.857375,-1.0441665649414062,0.2829165458679199,6.836760997772217
1761400821098456600,5.86745654296875,-1.0233324766159058,0.6541987061500549,7.152685642242432
1761400821108512000,5.877511962890625,-0.9353665709495544,0.7742066979408264,7.320406913757324
1761400821118618600,5.88761865234375,-0.8322122693061829,0.8690340518951416,7.400512218475342
1761400821128698600,5.89769873046875,-0.6657065153121948,0.9625457525253296,7.469526290893555
1761400821138779100,5.907779052734375,-0.42773890495300293,0.9085038304328918,7.539355754852295
1761400821148860200,5.917860107421875,-0.14803655445575714,0.7572530508041382,7.5781097412109375
1761400821158941400,5.92794140625,0.08949808776378632,0.4962197542190552,7.52808141708374
1761400821169017600,5.938017578125,0.21085508167743683,0.05668989196419716,7.287482261657715
1761400821179102700,5.948102783203125,0.25578731298446655,-0.49668607115745544,6.8661885261535645
1761400821189183700,5.958183837890625,0.26113322377204895,-1.0180531740188599,6.350266933441162
1761400821199240000,5.968239990234375,0.22163017094135284,-1.3586088418960571,5.799522399902344
1761400821209345500,5.978345458984375,0.13274827599525452,-1.425790786743164,5.243165493011475
1761400821219426800,5.9884267578125,0.028461523354053497,-1.258169174194336,4.675350666046143
1761400821229507600,5.998507568359375,-0.07669123262166977,-0.9815811514854431,4.054709434509277
1761400821239584300,6.008584228515625,-0.17541557550430298,-0.6779804825782776,3.3478012084960938
1761400821249669000,6.018669189453125,-0.23105627298355103,-0.3430204689502716,2.5959274768829346
1761400821259718100,6.02871826171875,-0.24939222633838654,0.002897779457271099,1.850964903831482
1761400821269830400,6.038830322265625,-0.22252947092056274,0.3015688955783844,1.144423007965088
1761400821279911200,6.0489111328125,-0.11437901854515076,0.48426225781440735,0.4544517695903778
1761400821289992700,6.05899267578125,0.056340161710977554,0.5416016578674316,-0.2227126657962799
1761400821300069600,6.069069580078125,0.22740906476974487,0.5160045623779297,-0.8310132026672363
1761400821310158300,6.079158447265625,0.35914146900177,0.5075943470001221,-1.33527672290802
1761400821320235000,6.089235107421875,0.424924373626709,0.48474520444869995,-1.7711594104766846
1761400821330315500,6.0993154296875,0.4154316484928131,0.45906490087509155,-2.1487367153167725
1761400821340396800,6.109396728515625,0.33347779512405396,0.419095516204834,-2.463395595550537
1761400821350477800,6.119477783203125,0.2689439058303833,0.3886188566684723,-2.742981433868408
1761400821360560400,6.129560302734375,0.27107560634613037,0.5320423245429993,-3.003814935684204
1761400821370637300,6.13963720703125,0.3537955582141876,0.7538889646530151,-3.3108296394348145
1761400821380707300,6.149707275390625,0.4587318003177643,0.8019854426383972,-3.721048593521118
1761400821390800600,6.159800537109375,0.47280436754226685,0.8365922570228577,-4.121791362762451
1761400821400882000,6.1698818359375,0.3993939459323883,0.9319358468055725,-4.3913350105285645
1761400821410963500,6.17996337890625,0.31534168124198914,1.030343770980835,-4.497420310974121
1761400821421044000,6.1900439453125,0.17656469345092773,0.9887256622314453,-4.522418022155762
1761400821431107300,6.200107421875,-0.023681852966547012,0.7592348456382751,-4.496920585632324
1761400821441205200,6.210205322265625,-0.13035011291503906,0.48621076345443726,-4.438632011413574
1761400821451286000,6.2202861328125,-0.08736638724803925,0.11717687547206879,-4.468259334564209
1761400821461367300,6.2303671875,0.05655666068196297,-0.33562615513801575,-4.62100887298584
1761400821471435300,6.240435302734375,0.2765214443206787,-0.7092398405075073,-4.891468524932861
1761400821481528300,6.2505283203125,0.5052461624145508,-0.8010028600692749,-5.241133689880371
1761400821491605500,6.26060546875,0.7416150569915771,-0.6583288311958313,-5.584437370300293
1761400821501701600,6.27070166015625,0.9360160827636719,-0.5143558382987976,-5.86453914642334
1761400821511758300,6.28075830078125,1.1113150119781494,-0.3896180987358093,-6.058923721313477
1761400821521852200,6.29085205078125,1.3339111804962158,-0.1801452934741974,-6.212555885314941
1761400821531921000,6.3009208984375,1.5230995416641235,0.21401932835578918,-6.353781223297119
1761400821542013700,6.311013671875,1.6094666719436646,0.7196651697158813,-6.466028213500977
1761400821552082000,6.32108203125,1.6092501878738403,1.1120145320892334,-6.555959701538086
1761400821562161200,6.3311611328125,1.4863942861557007,1.3736307621002197,-6.645840644836426
1761400821572256300,6.34125634765625,1.3510147333145142,1.3789266347885132,-6.651686191558838
1761400821582337300,6.351337158203125,1.251724123954773,1.040436029434204,-6.473705768585205
1761400821592418000,6.36141796875,1.312910556793213,0.6094163656234741,-6.1966681480407715
1761400821602499300,6.371499267578125,1.5270131826400757,0.320104718208313,-5.978168964385986
1761400821612580000,6.381580078125,1.6540658473968506,0.35431182384490967,-5.911203384399414
1761400821622658800,6.391658935546875,1.654299020767212,0.5463646650314331,-5.91859769821167
1761400821632737000,6.401737060546875,1.5744268894195557,0.6379777789115906,-5.859076976776123
1761400821642801000,6.41180078125,1.377477765083313,0.6835095882415771,-5.631418228149414
1761400821652878600,6.421878662109375,1.1012728214263916,0.6908372640609741,-5.20477819442749
1761400821662971600,6.4319716796875,0.8304635882377625,0.5408355593681335,-4.596411228179932
1761400821673057300,6.442057373046875,0.5292611122131348,0.3447524905204773,-3.8989455699920654
1761400821683144000,6.45214404296875,0.18347607553005219,0.3770943582057953,-3.128502607345581
1761400821693224400,6.462224365234375,-0.12783537805080414,0.4856278598308563,-2.3834402561187744
1761400821703307300,6.472307373046875,-0.32513418793678284,0.3970957100391388,-1.795957088470459
1761400821713388800,6.482388916015625,-0.3945976197719574,0.20149558782577515,-1.298454999923706
1761400821723465000,6.49246484375,-0.30798065662384033,-0.032258614897727966,-0.704410195350647
1761400821733550300,6.50255029296875,-0.19380149245262146,-0.3914000689983368,0.01670386642217636
1761400821743631000,6.512631103515625,-0.20824041962623596,-0.3844553828239441,0.6656232476234436
1761400821753710000,6.5227099609375,-0.23203885555267334,-0.2678947150707245,1.3235524892807007
1761400821763767300,6.532767333984375,-0.26091673970222473,0.06450057029724121,1.9807322025299072
1761400821773874400,6.54287451171875,-0.3250509202480316,0.6149454116821289,2.5616869926452637
1761400821783954700,6.55295458984375,-0.34000611305236816,0.8233357667922974,2.9552853107452393
1761400821794022400,6.5630224609375,-0.4260402023792267,0.7181829810142517,3.1197426319122314
1761400821804116200,6.5731162109375,-0.6609934568405151,0.919212281703949,3.075309991836548
1761400821814195500,6.583195556640625,-0.7559873461723328,0.8709492683410645,3.1407766342163086
1761400821834345000,6.603344970703125,-0.9961532950401306,0.21505187451839447,3.271343231201172
1761400821844428000,6.613427978515625,-1.2158516645431519,-0.2844153940677643,3.343287944793701
1761400821854520300,6.623520263671875,-1.527246356010437,-0.6518338322639465,3.3094305992126465
1761400821864601600,6.6336015625,-1.8257842063903809,-0.8948143124580383,3.2319066524505615
1761400821874682000,6.64368212890625,-2.057523250579834,-1.0007164478302002,3.1595122814178467
1761400821884761300,6.65376123046875,-2.218400001525879,-1.024531602859497,3.1547157764434814
1761400821894827500,6.66382763671875,-2.2914607524871826,-1.0079609155654907,3.247144937515259
1761400821904924200,6.673924072265625,-2.3162918090820312,-0.8090466856956482,3.4929068088531494
1761400821914993000,6.683992919921875,-2.322453737258911,-0.3623723089694977,3.9212450981140137
1761400821925086500,6.69408642578125,-2.202495574951172,0.015687977895140648,4.388820171356201
1761400821935167200,6.704167236328125,-1.9797495603561401,0.1742498129606247,4.810297012329102
1761400821955329000,6.7243291015625,-1.5065455436706543,0.4680579900741577,5.383774280548096
1761400821965398800,6.734398681640625,-1.2402162551879883,0.6894050240516663,5.5614213943481445
1761400821975489500,6.744489501953125,-0.940279483795166,0.6871234774589539,5.712522506713867
1761400821985569800,6.75456982421875,-0.6218734383583069,0.4073045551776886,5.858743667602539
1761400821995650600,6.764650634765625,-0.3685509264469147,0.13036677241325378,5.9930243492126465
1761400822005733000,6.774733154296875,-0.2524398863315582,0.21431909501552582,6.133166790008545
1761400822015807000,6.784806884765625,-0.15254977345466614,0.39366501569747925,6.277339458465576
1761400822025894400,6.794894287109375,-0.04726378247141838,0.5116578936576843,6.384191036224365
1761400822035975400,6.804975341796875,0.01573793962597847,0.6235721707344055,6.483431816101074
1761400822046044400,6.81504443359375,0.09605972468852997,0.577424168586731,6.647305965423584
1761400822056125200,6.825125244140625,0.2115378975868225,0.4803485870361328,6.854164123535156
1761400822066216400,6.835216552734375,0.3282817602157593,0.47510260343551636,6.959700107574463
1761400822076297200,6.845297119140625,0.4375647008419037,0.5207176208496094,6.904275894165039
1761400822086380000,6.855380126953125,0.5122907757759094,0.5044301152229309,6.704995155334473
1761400822096472000,6.86547216796875,0.4612632095813751,0.3043001592159271,6.2825188636779785
1761400822106518000,6.87551806640625,0.3155914843082428,-0.14678752422332764,5.6055378913879395
1761400822116623000,6.885623046875,0.10745099186897278,-0.7108052968978882,4.8134446144104
1761400822126689300,6.895689208984375,-0.1607767939567566,-1.086883783340454,4.090665340423584
1761400822136783000,6.905783203125,-0.4492890536785126,-1.0577061176300049,3.5352742671966553
1761400822146873600,6.91587353515625,-0.664274275302887,-0.6755157113075256,3.15816330909729
1761400822156935700,6.925935791015625,-0.7657299041748047,-0.1965327262878418,2.9631125926971436
1761400822167026700,6.936026611328125,-0.7495589256286621,0.07635815441608429,2.8763458728790283
1761400822177108000,6.94610791015625,-0.742431104183197,0.06401760876178741,2.7522575855255127
1761400822187175700,6.95617578125,-0.7710092067718506,-0.1390601098537445,2.450455665588379
1761400822197267500,6.966267333984375,-0.7641144394874573,-0.5237320065498352,1.9128841161727905
1761400822207348700,6.9763486328125,-0.7316893339157104,-1.1184762716293335,1.2035276889801025
1761400822217421000,6.986421142578125,-0.6490859389305115,-1.197349190711975,0.5218501091003418
1761400822227512000,6.996511962890625,-0.356909841299057,-1.295707106590271,-0.44011273980140686
1761400822237580500,7.00658056640625,-0.10432005673646927,-1.0375715494155884,-1.637545108795166
1761400822247673600,7.016673583984375,0.0016154287150129676,-0.5984247326850891,-2.932452917098999
1761400822257752800,7.0267529296875,0.0671985074877739,-0.09391137212514877,-4.192237377166748
1761400822267831800,7.036831787109375,0.14104191958904266,0.07294410467147827,-5.358094215393066
1761400822277904000,7.04690380859375,0.33639222383499146,-0.11208078265190125,-6.336860656738281
1761400822287997000,7.056996826171875,0.5956268906593323,-0.4621292054653168,-6.99505615234375
1761400822298068200,7.067068115234375,0.8913669586181641,-0.8870536088943481,-7.34652042388916
1761400822308146200,7.077146240234375,1.1386774778366089,-1.210505723953247,-7.3995466232299805
1761400822318228700,7.087228759765625,1.3752127885818481,-1.5350903272628784,-7.318175315856934
1761400822328309000,7.09730908203125,1.711971402168274,-1.9658769369125366,-7.326885223388672
1761400822338401000,7.107401123046875,1.745279312133789,-1.9373821020126343,-7.252825736999512
1761400822348482300,7.117482421875,1.4942549467086792,-1.7387841939926147,-7.220267295837402
1761400822358563300,7.127563232421875,1.3624892234802246,-1.7699936628341675,-7.374332427978516
1761400822368644400,7.137644287109375,1.5192358493804932,-1.5776910781860352,-7.38554048538208
1761400822378724600,7.147724609375,1.79878830909729,-1.1135966777801514,-7.103206634521484
1761400822388803600,7.157803466796875,1.9372655153274536,-0.7160679697990417,-6.650154113769531
1761400822398869200,7.167869140625,1.7893787622451782,-0.5196018218994141,-6.101874351501465
1761400822408967200,7.17796728515625,1.715968370437622,-0.5252308249473572,-5.428323745727539
1761400822419041000,7.188041015625,1.4981852769851685,-0.814042866230011,-4.755023002624512
1761400822429129200,7.198129150390625,1.235403299331665,-1.087583303451538,-4.334412097930908
1761400822439209500,7.20820947265625,1.1329318284988403,-1.1177434921264648,-3.9611644744873047
1761400822449288700,7.218288818359375,0.9736705422401428,-1.0478969812393188,-3.490042209625244
1761400822459358500,7.2283583984375,0.8081973195075989,-0.7230292558670044,-3.023766279220581
1761400822469452300,7.238452392578125,0.8668357729911804,-0.3634214997291565,-2.7183501720428467
1761400822479533300,7.248533203125,1.027945637702942,-0.3803585469722748,-2.6063361167907715
1761400822489613800,7.25861376953125,1.2411489486694336,-0.4981682598590851,-2.7393174171447754
1761400822499695000,7.268695068359375,1.5300774574279785,-0.47302085161209106,-2.9650611877441406
1761400822509776000,7.27877587890625,1.769560694694519,-0.4130001962184906,-3.043384552001953
1761400822519855000,7.288855224609375,2.0345242023468018,-0.39977699518203735,-2.9696409702301025
1761400822529932300,7.298932373046875,2.2882299423217773,-0.5834861993789673,-2.7663469314575195
1761400822540019000,7.30901904296875,2.4592487812042236,-0.8507147431373596,-2.4913408756256104
1761400822550099500,7.319099365234375,2.522200584411621,-0.9958535432815552,-2.198598623275757
1761400822560155100,7.329155029296875,2.5897655487060547,-0.6128803491592407,-1.8928661346435547
1761400822570261500,7.339261474609375,2.7040278911590576,0.10352066904306412,-1.7090404033660889
1761400822580337700,7.349337646484375,2.6953012943267822,0.6820440292358398,-1.5762754678726196
1761400822590422000,7.359422119140625,2.5373055934906006,1.0387873649597168,-1.4818644523620605
1761400822600503000,7.3695029296875,2.2753562927246094,0.9829467535018921,-1.532259225845337
1761400822610559000,7.37955908203125,2.0996744632720947,0.8094797134399414,-1.6055030822753906
1761400822620665300,7.389665283203125,2.034940719604492,0.6271361112594604,-1.693868637084961
1761400822630745600,7.39974560546875,2.0669994354248047,0.5568732619285583,-1.6802124977111816
1761400822640822500,7.409822509765625,2.061753511428833,0.5127071142196655,-1.5391038656234741
1761400822650908200,7.419908203125,1.9843127727508545,0.4958866834640503,-1.3208211660385132
1761400822660963000,7.429963134765625,1.798355221748352,0.5054460167884827,-1.073976993560791
1761400822671044400,7.44004443359375,1.5103759765625,0.5223497152328491,-0.751823902130127
1761400822681124600,7.45012451171875,1.1487363576889038,0.549928605556488,-0.3520968556404114
1761400822691208700,7.460208740234375,0.7350534200668335,0.6912702918052673,0.12435470521450043
1761400822701287000,7.470286865234375,0.30508288741111755,0.8370752334594727,0.6379777789115906
1761400822711370500,7.48037060546875,-0.007627488579601049,0.8224364519119263,1.04668128490448
1761400822721437400,7.4904375,-0.22251282632350922,0.7005631327629089,1.3499321937561035
1761400822731554000,7.500553955078125,-0.3303801715373993,0.6033210158348083,1.6195756196975708
1761400822741614800,7.51061474609375,-0.3669021725654602,0.38172414898872375,1.9049901962280273
1761400822751716400,7.52071630859375,-0.35880836844444275,0.13368089497089386,2.298588514328003
1761400822761791000,7.530791015625,-0.39283230900764465,-0.2203478217124939,2.7690114974975586
1761400822771873300,7.540873291015625,-0.5056458711624146,-0.7297407984733582,3.2008471488952637
1761400822781980400,7.55098046875,-0.7812680006027222,-1.078040599822998,3.6017398834228516
1761400822792040200,7.561040283203125,-1.2174837589263916,-1.066382884979248,3.9187636375427246
1761400822802120200,7.5711201171875,-1.602555274963379,-0.8153752088546753,4.048830509185791
1761400822812201700,7.58120166015625,-1.8640382289886475,-0.4906240403652191,4.1742844581604
1761400822822282500,7.591282470703125,-2.050995111465454,-0.38770291209220886,4.390252590179443
1761400822832363500,7.601363525390625,-2.163159132003784,-0.6011393666267395,4.625605583190918
1761400822842439700,7.611439697265625,-2.260950803756714,-1.0328419208526611,4.82485294342041
1761400822852525000,7.621525146484375,-2.356144428253174,-1.3730145692825317,4.944877624511719
1761400822862580700,7.631580810546875,-2.4196290969848633,-1.6053531169891357,5.068382740020752
1761400822872673000,7.641673095703125,-2.475886106491089,-1.8015694618225098,5.309348106384277
1761400822882766800,7.651766845703125,-2.5965936183929443,-1.7946580648422241,5.6380462646484375
1761400822892848400,7.661848388671875,-2.7496097087860107,-1.3430874347686768,6.140494346618652
1761400822902923300,7.67192333984375,-2.8532636165618896,-0.3355095684528351,6.859260559082031
1761400822912996900,7.681996826171875,-2.703744888305664,0.9981517791748047,7.697118282318115
1761400822923079000,7.692078857421875,-2.3012032508850098,2.069330930709839,8.588068962097168
1761400822933158700,7.70215869140625,-1.8731812238693237,2.7785873413085938,9.3890380859375
1761400822943252500,7.71225244140625,-1.4720053672790527,3.322787046432495,10.006415367126465
1761400822953333000,7.7223330078125,-1.125370979309082,3.5377390384674072,10.403127670288086
1761400822963412500,7.73241259765625,-0.7779538631439209,3.187140941619873,10.516657829284668
1761400822973473300,7.742473388671875,-0.4405623972415924,2.7390010356903076,10.394102096557617
1761400822983576000,7.752576171875,-0.23633556067943573,2.1807122230529785,10.012027740478516
1761400822993656800,7.76265673828125,-0.1525164544582367,1.3161580562591553,9.4285249710083
1761400823003725600,7.7727255859375,-0.05242649093270302,0.2957566976547241,8.692822456359863
1761400823013819000,7.78281884765625,0.13672855496406555,-0.4488060772418976,7.901678085327148
1761400823023899100,7.792899169921875,0.391483336687088,-0.9234423637390137,7.083921432495117
1761400823033965800,7.8029658203125,0.6288847327232361,-1.1675386428833008,6.327417850494385
1761400823044035600,7.81303564453125,0.7676950693130493,-1.390650987625122,5.602656841278076
1761400823054142000,7.823141845703125,0.7614831328392029,-1.558588981628418,4.898229598999023
1761400823064222700,7.83322265625,0.6008728742599487,-1.5275627374649048,4.2050275802612305
1761400823074299100,7.843299072265625,0.38010871410369873,-1.2694106101989746,3.5339419841766357
1761400823084384300,7.85338427734375,0.17967897653579712,-0.8824238181114197,2.8773117065429688
1761400823094454300,7.863454345703125,0.03060987778007984,-0.49392151832580566,2.2179503440856934
1761400823104546300,7.87354638671875,-0.0559571199119091,-0.1473204493522644,1.5285619497299194
1761400823114614000,7.883614013671875,-0.09069716930389404,0.16120979189872742,0.7919098138809204
1761400823154950700,7.92395068359375,-0.0007161179091781378,0.4564502239227295,-1.8313133716583252
1761400823165024300,7.934024169921875,0.07021286338567734,0.310462087392807,-2.256071090698242
1761400823175112700,7.94411279296875,0.14663763344287872,0.08756623417139053,-2.6193594932556152
1761400823185193000,7.95419287109375,0.22364528477191925,-0.050328101962804794,-2.9192464351654053
1761400823195273500,7.9642734375,0.30210182070732117,-0.07204478979110718,-3.1840600967407227
1761400823205354800,7.974354736328125,0.36820119619369507,-0.07485929876565933,-3.4409964084625244
1761400823215435500,7.984435546875,0.4067549705505371,-0.12610337138175964,-3.7111895084381104
1761400823225516500,7.9945166015625,0.4082704782485962,-0.21168778836727142,-3.981865406036377
1761400823235597800,8.004597900390625,0.4184959828853607,-0.27822014689445496,-4.240167617797852
1761400823245698800,8.01469873046875,0.4413284659385681,-0.34327027201652527,-4.515889644622803
1761400823255759400,8.02475927734375,0.46649253368377686,-0.45037153363227844,-4.795691967010498
1761400823265839900,8.03483984375,0.5100924372673035,-0.5684977173805237,-5.063936233520508
1761400823275920100,8.044920166015626,0.5912469029426575,-0.654748260974884,-5.356245517730713
1761400823285980700,8.054980712890625,0.7082073092460632,-0.6905041933059692,-5.584120750427246
1761400823296090000,8.065090087890624,0.831879198551178,-0.675049364566803,-5.6719536781311035
1761400823306163500,8.07516357421875,0.9311698079109192,-0.6083338260650635,-5.677332878112793
1761400823316244000,8.085243896484375,1.0132402181625366,-0.5390036106109619,-5.6919050216674805
1761400823326300200,8.095300048828125,1.151584267616272,-0.38685354590415955,-5.854696750640869
1761400823336405000,8.105405029296875,1.267095685005188,-0.18226033449172974,-6.071713924407959
1761400823346486000,8.115486083984376,1.2962566614151,-0.13661198318004608,-6.265781879425049
1761400823356567000,8.125567138671874,1.3519307374954224,-0.27856987714767456,-6.456502437591553
1761400823366648300,8.1356484375,1.4635951519012451,-0.6055026650428772,-6.70041561126709
1761400823376704000,8.1457041015625,1.6380947828292847,-1.029477834701538,-7.0226850509643555
1761400823386810000,8.15581005859375,1.8053665161132812,-1.5440667867660522,-7.321123123168945
1761400823396891000,8.165890869140625,1.9930893182754517,-2.024132251739502,-7.535275936126709
1761400823406947800,8.17594775390625,2.259718418121338,-2.348417043685913,-7.628903865814209
1761400823417026800,8.18602685546875,2.570080518722534,-2.3830904960632324,-7.65226936340332
1761400823427134000,8.196134033203125,2.8253681659698486,-1.9320194721221924,-7.674618721008301
1761400823437214500,8.20621435546875,2.995654344558716,-0.9813646674156189,-7.717719078063965
1761400823447294700,8.216294677734375,2.951521635055542,0.09387806057929993,-7.692155361175537
1761400823457375700,8.226375732421875,2.6494364738464355,0.9663928151130676,-7.575395107269287
1761400823467456300,8.236456298828125,2.3412392139434814,1.5408192873001099,-7.339808940887451
1761400823477537000,8.246537109375,2.2699272632598877,1.7028450965881348,-7.151702880859375
1761400823487617800,8.25661767578125,2.3431878089904785,1.3201383352279663,-6.992008686065674
1761400823497698600,8.266698486328124,2.3162083625793457,0.6615930199623108,-6.717618942260742
1761400823507755000,8.276755126953125,2.187323808670044,0.11476206034421921,-6.267030715942383
1761400823517860900,8.28686083984375,1.962579369544983,-0.10610202699899673,-5.648105144500732
1761400823527920000,8.296920166015624,1.6948179006576538,0.10451990365982056,-4.890169143676758
1761400823538018600,8.3070185546875,1.5076780319213867,0.4467909634113312,-4.143091678619385
1761400823548067600,8.317067626953126,1.344020128250122,0.7121875882148743,-3.4366164207458496
1761400823558181400,8.327181396484375,1.1144959926605225,0.8791263103485107,-2.7265772819519043
1761400823568265000,8.337264892578125,0.8838560581207275,1.1524834632873535,-1.9778010845184326
1761400823578345700,8.347345703125,0.7166841626167297,1.35744309425354,-1.2934088706970215
1761400823588426800,8.3574267578125,0.5972756147384644,1.3104957342147827,-0.668337881565094
1761400823598503700,8.367503662109375,0.46629267930984497,1.0973091125488281,-0.13737806677818298
1761400823608588300,8.37758837890625,0.3696833848953247,0.7000468969345093,0.3220532238483429
1761400823618668800,8.387668701171876,0.2923926115036011,0.1049695611000061,0.7467444539070129
1761400823628750000,8.39775,0.13401396572589874,-0.4185459315776825,1.1793129444122314
1761400823638830600,8.40783056640625,-0.0851847231388092,-0.5232656598091125,1.6511180400848389
1761400823648911600,8.41791162109375,-0.31987154483795166,-0.2606169581413269,2.1492695808410645
1761400823658993000,8.427992919921875,-0.5620859265327454,0.08386906236410141,2.6269869804382324
1761400823669069800,8.43806982421875,-0.7437300682067871,0.3092796802520752,3.0717294216156006
1761400823679129000,8.448129150390624,-0.8808916211128235,0.381807416677475,3.4729220867156982
1761400823689210000,8.458210205078124,-0.9912903904914856,0.3466843366622925,3.792910099029541
1761400823699303700,8.4683037109375,-1.0781737565994263,0.25620368123054504,4.005613803863525
1761400823709397200,8.478397216796875,-1.135596513748169,0.20274463295936584,4.109200954437256
1761400823719452400,8.488452392578125,-1.1872235536575317,0.10623525828123093,4.131667137145996
1761400823739639300,8.508639404296876,-1.487043857574463,-0.34736713767051697,4.080806255340576
1761400823749720600,8.518720458984374,-1.736885666847229,-0.5137063264846802,4.134498596191406
1761400823759801300,8.52880126953125,-1.9762855768203735,-0.5916633009910583,4.1949687004089355
1761400823769882600,8.538882568359375,-2.0779078006744385,-0.6900212168693542,4.268495559692383
1761400823779962600,8.548962646484375,-2.1340646743774414,-1.0053462982177734,4.33337926864624
1761400823790044200,8.559044189453125,-2.226194143295288,-1.508160948753357,4.397430419921875
1761400823800120300,8.569120361328125,-2.4641616344451904,-1.7129707336425781,4.620009899139404
1761400823810180000,8.57918017578125,-2.682361125946045,-1.505962610244751,4.963779449462891
1761400823820286200,8.5892861328125,-2.8495664596557617,-1.1059192419052124,5.245497226715088
1761400823830367500,8.599367431640625,-2.983313798904419,-0.5887821316719055,5.396514892578125
1761400823840470300,8.60947021484375,-3.0224506855010986,-0.19560010731220245,5.357911109924316
1761400823850529000,8.619529052734375,-2.8248519897460938,0.010924961417913437,5.1726861000061035
1761400823860606000,8.62960595703125,-2.524165630340576,0.02468108758330345,5.034492015838623
1761400823870690800,8.63969091796875,-2.2458457946777344,-0.0535922646522522,4.992391109466553
1761400823880771000,8.64977099609375,-2.0007002353668213,0.03272492438554764,5.121941566467285
1761400823890852000,8.65985205078125,-1.721947193145752,0.2798522114753723,5.410287380218506
1761400823900932600,8.6699326171875,-1.4702067375183105,0.6367120742797852,5.810580730438232
1761400823910998500,8.67999853515625,-1.2722251415252686,1.0716288089752197,6.269728660583496
1761400823921080800,8.690080810546876,-1.126336932182312,1.5080277919769287,6.733922958374023
1761400823931150600,8.700150634765626,-0.9961699843406677,1.910319447517395,7.161345481872559
1761400823941256400,8.71025634765625,-0.9026749730110168,2.264881134033203,7.535775184631348
1761400823951337700,8.720337646484374,-0.8252176642417908,2.546032428741455,7.884924411773682
1761400823961418200,8.730418212890624,-0.7338210344314575,2.64319109916687,8.13196849822998
1761400823971498800,8.740498779296875,-0.5923960208892822,2.4133338928222656,8.154001235961914
1761400823981580300,8.750580322265625,-0.4038238823413849,1.9046903848648071,7.940814971923828
1761400823991657000,8.760656982421875,-0.15854518115520477,1.2842991352081299,7.606821060180664
1761400824001742000,8.7707421875,0.11269697546958923,0.610149085521698,7.203513145446777
1761400824011798800,8.780798828125,0.37657809257507324,0.0358891636133194,6.789463996887207
1761400824021903400,8.7909033203125,0.6204745173454285,-0.36318835616111755,6.397697448730469
1761400824031984000,8.800984130859375,0.8470009565353394,-0.6145290732383728,5.9859795570373535
1761400824042065200,8.811065185546875,1.0077111721038818,-0.7205811738967896,5.474088668823242
1761400824052108800,8.82110888671875,1.0616531372070312,-0.7302570939064026,4.892434120178223
1761400824062227700,8.831227783203126,1.0622026920318604,-0.7189657092094421,4.283833980560303
1761400824072307200,8.84130712890625,1.085018515586853,-0.6531994342803955,3.6950185298919678
1761400824082388200,8.85138818359375,1.149385929107666,-0.5671820640563965,3.1349310874938965
1761400824092469500,8.861469482421874,1.2273261547088623,-0.47508594393730164,2.5856852531433105
1761400824102550300,8.87155029296875,1.280968427658081,-0.3633049428462982,2.0450496673583984
1761400824112630500,8.881630615234375,1.2869138717651367,-0.22196324169635773,1.5028150081634521
1761400824122707500,8.89170751953125,1.2490261793136597,-0.017936255782842636,0.9136165380477905
1761400824132792300,8.901792236328125,1.231139898300171,0.39456430077552795,0.2404157668352127
1761400824142873000,8.911873046875,1.2266767024993896,0.8564936518669128,-0.49661943316459656
1761400824152929000,8.921928955078124,1.1881895065307617,0.9578660130500793,-1.2108221054077148
1761400824163035100,8.93203515625,1.1123642921447754,0.8912004232406616,-1.8360929489135742
1761400824173116000,8.942115966796875,1.0148390531539917,0.862339198589325,-2.4131174087524414
1761400824183192300,8.9521923828125,0.8968960642814636,0.9972191452980042,-3.000450849533081
1761400824193277700,8.962277587890625,0.7256772518157959,1.1642744541168213,-3.5579569339752197
1761400824203358200,8.972358154296876,0.4790329039096832,1.2755392789840698,-4.023433685302734
1761400824213440000,8.98243994140625,0.13529632985591888,1.3622227907180786,-4.42742395401001
1761400824223520000,8.99252001953125,-0.2668455243110657,1.4333183765411377,-4.856128692626953
1761400824233600800,9.002600830078125,-0.5962264537811279,1.4895585775375366,-5.329066276550293
1761400824243677700,9.012677734375,-0.7912436723709106,1.4977855682373047,-5.752208709716797
1761400824253767200,9.02276708984375,-0.9190457463264465,1.4294712543487549,-6.13561487197876
1761400824263844000,9.032843994140626,-1.0224164724349976,1.3129605054855347,-6.504948616027832
1761400824273924900,9.0429248046875,-0.9799157381057739,1.2025784254074097,-7.005515098571777
1761400824284005600,9.053005615234374,-0.7323387861251831,1.2394169569015503,-7.5394392013549805
1761400824294086400,9.06308642578125,-0.30654841661453247,1.413699984550476,-8.100675582885742
1761400824304135000,9.073135009765625,0.13013361394405365,1.412900686264038,-8.572980880737305
1761400824314246000,9.083245849609375,0.39130014181137085,1.1340810060501099,-8.846803665161133
1761400824324329200,9.0933291015625,0.5561238527297974,0.74791020154953,-8.863557815551758
1761400824334409500,9.103409423828126,0.7706594467163086,0.2620658576488495,-8.731592178344727
1761400824344488400,9.113488525390625,1.0646841526031494,-0.32673296332359314,-8.663861274719238
1761400824354571000,9.123571044921874,1.3739304542541504,-0.8461682796478271,-8.753592491149902
1761400824364652300,9.13365234375,1.5496459007263184,-1.1440067291259766,-8.96313190460205
1761400824374731800,9.143731689453125,1.5250147581100464,-1.0326919555664062,-9.193288803100586
1761400824384803000,9.153802978515625,1.4229762554168701,-0.48043185472488403,-9.340458869934082
1761400824394869800,9.163869873046876,1.4321858882904053,0.25278961658477783,-9.343689918518066
1761400824404975900,9.173975830078126,1.538271188735962,0.919212281703949,-9.06468677520752
1761400824415043800,9.1840439453125,1.6445730924606323,1.390034794807434,-8.444295883178711
1761400824425138000,9.194137939453125,1.6568803787231445,1.6599113941192627,-7.617829322814941
1761400824435213800,9.2042138671875,1.4806320667266846,1.8447530269622803,-6.68054723739624
1761400824445297000,9.214296875,1.2186827659606934,1.8527302742004395,-5.716136455535889
1761400824455367000,9.224366943359374,1.011624813079834,1.29933762550354,-4.767646789550781
1761400824465462500,9.234462646484374,0.7982216477394104,0.2804684042930603,-3.91190242767334
1761400824475540000,9.2445400390625,0.5092763900756836,-0.5237653255462646,-3.3235864639282227
1761400824485620500,9.254620361328126,0.2980882525444031,-0.8798091411590576,-3.0037314891815186
1761400824495701800,9.26470166015625,0.24169811606407166,-0.9022752642631531,-2.8820247650146484
1761400824505782000,9.274781982421874,0.2831830084323883,-0.6797624230384827,-2.809563636779785
1761400824515851300,9.284851318359374,0.33715829253196716,-0.37254786491394043,-2.697916030883789
1761400824525945600,9.294945556640625,0.3641376197338104,-0.18076148629188538,-2.693819046020508
1761400824536026400,9.3050263671875,0.3601740002632141,-0.19171975553035736,-2.808814287185669
1761400824546107600,9.315107666015624,0.2990874648094177,-0.3795258402824402,-2.8857386112213135
1761400824556155100,9.325155029296875,0.18429210782051086,-0.5197184085845947,-2.7740910053253174
1761400824566257000,9.3352568359375,0.04543185234069824,-0.5252308249473572,-2.434734344482422
1761400824576349700,9.345349609375,-0.12497090548276901,-0.46759167313575745,-1.9802325963974
1761400824586431000,9.355430908203125,-0.3142924904823303,-0.3426207900047302,-1.4361827373504639
1761400824596490800,9.36549072265625,-0.4659762680530548,-0.14785335958003998,-0.8468177318572998
1761400824606592500,9.375592529296876,-0.5694969296455383,0.015704631805419922,-0.282949835062027
1761400824616673800,9.385673828125,-0.6223897337913513,0.15268300473690033,0.26071688532829285
1761400824626752300,9.395752197265624,-0.6513009071350098,0.3297639787197113,0.8568434119224548
1761400824636833300,9.405833251953124,-0.6550313830375671,0.4555342495441437,1.5312598943710327
1761400824646915800,9.415915771484375,-0.6479701399803162,0.519801676273346,2.2312402725219727
1761400824656988400,9.425988525390625,-0.6464879512786865,0.4965694844722748,2.898728609085083
1761400824667077600,9.43607763671875,-0.7056925892829895,0.39601320028305054,3.487394332885742
1761400824677158700,9.44615869140625,-0.8117280006408691,0.3594079315662384,4.021451473236084
1761400824687214000,9.456214111328125,-0.9227429032325745,0.3974287807941437,4.519619941711426
1761400824697294800,9.466294921875,-1.0199683904647827,0.35039815306663513,4.967543601989746
1761400824707379200,9.476379150390626,-1.1227562427520752,0.2781035602092743,5.309048175811768
1761400824717482000,9.48648193359375,-1.236002802848816,0.14290715754032135,5.523583889007568
1761400824727573500,9.496573486328124,-1.3529465198516846,-0.015138399787247181,5.668373107910156
1761400824737643800,9.506643798828126,-1.50083327293396,-0.1702861785888672,5.717202186584473
1761400824747724500,9.516724609375,-1.689205527305603,-0.29154324531555176,5.653334617614746
1761400824757787000,9.526786865234374,-1.867052674293518,-0.3196716904640198,5.592864036560059
1761400824767886300,9.53688623046875,-1.9455424547195435,-0.2481931447982788,5.628803253173828
1761400824777967400,9.54696728515625,-1.9738041162490845,-0.10322090238332748,5.72802734375
1761400824788048400,9.55704833984375,-2.0173375606536865,0.13126607239246368,5.945727348327637
1761400824798139100,9.56713916015625,-2.071296215057373,0.49801838397979736,6.30926513671875
1761400824808197000,9.577197021484375,-2.009676694869995,0.9227429032325745,6.787965297698975
1761400824818288000,9.5872880859375,-1.7838664054870605,1.2998871803283691,7.290629863739014
1761400824828371500,9.597371337890625,-1.4436770677566528,1.5894986391067505,7.742100715637207
1761400824838454500,9.60745458984375,-1.0326253175735474,1.6884394884109497,8.102007865905762
1761400824848520700,9.617520751953125,-0.624504804611206,1.4751362800598145,8.3237886428833
1761400824858597000,9.62759716796875,-0.2621990740299225,1.10883367061615,8.357528686523438
1761400824868694800,9.63769482421875,0.02859475463628769,0.7290912866592407,8.199583053588867
1761400824878758400,9.64775830078125,0.20352737605571747,0.27517247200012207,7.8530988693237305
1761400824888856300,9.657856201171874,0.2858143150806427,-0.25403866171836853,7.3525824546813965
1761400824898937000,9.66793701171875,0.3354429602622986,-0.7768380641937256,6.720799922943115
1761400824909018000,9.67801806640625,0.3668522238731384,-1.1692373752593994,6.013325214385986
1761400824919099400,9.688099365234375,0.35611045360565186,-1.373497486114502,5.291195392608643
1761400824929167000,9.6981669921875,0.311694473028183,-1.3909341096878052,4.618594169616699
1761400824939249000,9.708248779296875,0.22449463605880737,-1.2343207597732544,4.008228302001953
1761400824949339100,9.718339111328126,0.090530626475811,-0.9368820786476135,3.4650614261627197
1761400824959404300,9.728404296875,-0.012806852348148823,-0.5336077809333801,2.986994504928589
1761400824969503200,9.738503173828125,-0.08065485954284668,-0.11749330163002014,2.542634963989258
1761400824979584000,9.748583984375,-0.14582158625125885,0.23275497555732727,2.131366729736328
1761400824989652000,9.75865185546875,-0.21973161399364471,0.4667423367500305,1.731123447418213
1761400824999745800,9.768745849609376,-0.26259878277778625,0.5874997973442078,1.3113784790039062
1761400825009802500,9.778802490234375,-0.2685275673866272,0.5475137829780579,0.8418715596199036
1761400825019894800,9.788894775390625,-0.2116711288690567,0.477817177772522,0.33985623717308044
1761400825029975800,9.798975830078126,-0.09955704212188721,0.427022784948349,-0.2181328386068344
1761400825040069000,9.809069091796875,0.013040007092058659,0.40012672543525696,-0.8631385564804077
1761400825050150100,9.819150146484375,0.11131469905376434,0.4546515941619873,-1.480798602104187
1761400825060219000,9.829218994140625,0.1879892796278,0.5098759531974792,-2.0202019214630127
1761400825070301200,9.83930126953125,0.22471113502979279,0.5302603244781494,-2.51985239982605
1761400825080380000,9.8493798828125,0.24724386632442474,0.5555909276008606,-3.006279706954956
1761400825090473700,9.8594736328125,0.28446534276008606,0.6271694302558899,-3.5102100372314453
1761400825100541400,9.86954150390625,0.36012405157089233,0.6855912804603577,-4.063019752502441
1761400825110628400,9.87962841796875,0.4641776382923126,0.5557907819747925,-4.6695051193237305
1761400825120715300,9.88971533203125,0.600822925567627,0.2464444786310196,-5.315343379974365
1761400825130796300,9.89979638671875,0.7803686857223511,-0.03557274118065834,-5.968659400939941
1761400825140873200,9.909873291015625,0.9546018242835999,-0.12305570393800735,-6.60770320892334
1761400825150958600,9.91995849609375,1.0541088581085205,-0.10736772418022156,-7.221965789794922
1761400825161026600,9.930026611328126,1.048196792602539,0.004180130083113909,-7.742583751678467
1761400825171119900,9.940119873046875,0.9432938098907471,0.24336351454257965,-8.047283172607422
1761400825181201000,9.950200927734375,0.7736737728118896,0.6207576394081116,-8.170105934143066
1761400825191269600,9.96026953125,0.5944111943244934,0.9888256192207336,-8.180014610290527
1761400825201358800,9.97035888671875,0.44484245777130127,1.1462715864181519,-8.136598587036133
1761400825211443200,9.980443115234374,0.3398395776748657,0.9384974837303162,-8.115880966186523
1761400825221512200,9.99051220703125,0.36576971411705017,0.49333861470222473,-8.125340461730957
1761400825231592400,10.000592529296876,0.5223830342292786,0.10944946110248566,-8.0917329788208
1761400825241686000,10.01068603515625,0.7100392580032349,-0.1443227380514145,-7.90425968170166
1761400825251761700,10.02076171875,0.8815245032310486,-0.22174674272537231,-7.503167152404785
1761400825261847600,10.03084765625,1.0645842552185059,-0.16490696370601654,-7.0143914222717285
1761400825271924500,10.040924560546875,1.260650634765625,-0.09093032032251358,-6.493174076080322
1761400825282009600,10.051009521484374,1.3538458347320557,-0.06853082031011581,-5.938899040222168
1761400825292090400,10.06109033203125,1.3538625240325928,-0.27125880122184753,-5.455852508544922
1761400825302171100,10.071171142578125,1.3378081321716309,-0.6465378999710083,-5.095312118530273
1761400825312239400,10.0812392578125,1.259151816368103,-0.6997138261795044,-4.718484401702881
1761400825322320000,10.09131982421875,1.0302271842956543,-0.22426147758960724,-4.167706489562988
1761400825332411600,10.10141162109375,0.8621227145195007,0.2088233083486557,-3.3895859718322754
1761400825342482200,10.111482177734375,0.8122941851615906,0.09574329853057861,-2.5811054706573486
1761400825352575200,10.1215751953125,0.7123208045959473,-0.3422377407550812,-1.9030417203903198
1761400825362656000,10.131656005859375,0.5788730978965759,-0.748659610748291,-1.3556112051010132
1761400825372719400,10.14171923828125,0.5061787962913513,-0.7944578528404236,-1.0038141012191772
1761400825382817500,10.151817626953125,0.5384207367897034,-0.544715940952301,-0.8703830242156982
1761400825392898800,10.16189892578125,0.6078675389289856,-0.26676225662231445,-0.8627721667289734
1761400825402977300,10.171977294921875,0.639110267162323,-0.03200880438089371,-0.8706161975860596
1761400825413047800,10.1820478515625,0.5950440168380737,0.16135968267917633,-0.7328384518623352
1761400825423116000,10.192115966796875,0.5065284967422485,0.2298571914434433,-0.39138340950012207
1761400825433222100,10.20222216796875,0.4534691870212555,0.0404023714363575,-0.06791462749242783
1761400825443290400,10.212290283203124,0.4070214331150055,-0.19671592116355896,0.07182829082012177
1761400825453382000,10.2223818359375,0.3298472464084625,-0.3353263735771179,0.13463017344474792
1761400825463462700,10.232462646484375,0.22502756118774414,-0.2575026750564575,0.21155455708503723
1761400825473545500,10.24254541015625,0.13609571754932404,-0.025613704696297646,0.3773774802684784
1761400825483626000,10.2526259765625,0.01773640885949135,0.11696037650108337,0.6260868906974792
1761400825493707300,10.262707275390625,-0.1552976667881012,0.1046198308467865,1.0055128335952759
1761400825503787800,10.272787841796875,-0.354811429977417,-0.013456354849040508,1.506928563117981
1761400825513866000,10.282865966796875,-0.5609368085861206,-0.029077718034386635,2.0678653717041016
1761400825523947800,10.29294775390625,-0.7677949666976929,0.12805187702178955,2.617710828781128
1761400825534030000,10.303030029296876,-0.9171638488769531,0.43463361263275146,3.078341007232666
1761400825544122600,10.31312255859375,-1.00331449508667,0.6651569604873657,3.4158823490142822
1761400825554176000,10.323176025390625,-1.139227032661438,0.524531364440918,3.6179776191711426
1761400825564260400,10.33326025390625,-1.2987548112869263,0.09952373802661896,3.582587957382202
1761400825574340900,10.3433408203125,-1.4913737773895264,-0.2631150484085083,3.3458361625671387
1761400825584434400,10.353434326171875,-1.726110577583313,-0.4246745705604553,3.06756591796875
1761400825594513200,10.36351318359375,-1.9760690927505493,-0.35181373357772827,2.926640748977661
1761400825604596200,10.37359619140625,-2.2513580322265625,-0.25788572430610657,3.0620534420013428
1761400825614677000,10.383677001953124,-2.512674570083618,-0.1732172667980194,3.32185435295105
1761400825624758000,10.393758056640625,-2.6922202110290527,-0.11935853958129883,3.57124662399292
1761400825634838500,10.403838623046875,-2.776139259338379,-0.20182867348194122,3.8216381072998047
1761400825644920300,10.41392041015625,-2.770277261734009,-0.39471420645713806,4.056075096130371
1761400825654998300,10.423998291015625,-2.702296018600464,-0.5830032229423523,4.252657890319824
1761400825665081300,10.434081298828126,-2.6451897621154785,-0.6511843204498291,4.49990177154541
1761400825675161900,10.444161865234374,-2.678813934326172,-0.46099674701690674,4.9662275314331055
1761400825685243100,10.4542431640625,-2.625521421432495,-0.05862174555659294,5.592697620391846
1761400825695311000,10.46431103515625,-2.40170955657959,0.4631284475326538,6.2372870445251465
1761400825705379600,10.474379638671875,-2.0846192836761475,1.0108420848846436,6.8594770431518555
1761400825715460400,10.48446044921875,-1.7568037509918213,1.5310434103012085,7.419414520263672
1761400825725541000,10.494541015625,-1.4593150615692139,1.9423116445541382,7.892052173614502
1761400825735622100,10.5046220703125,-1.233271598815918,2.059255361557007,8.251526832580566
1761400825745702700,10.51470263671875,-1.0944113731384277,1.773807406425476,8.552146911621094
1761400825755788800,10.524788818359376,-1.0067118406295776,1.2722084522247314,8.782853126525879
1761400825765889800,10.534889892578125,-0.9292712211608887,0.7502917051315308,8.897332191467285
1761400825775968500,10.544968505859375,-0.8751793503761292,0.22692610323429108,8.833663940429688
1761400825786039300,10.555039306640625,-0.8376414775848389,-0.26621267199516296,8.605555534362793
1761400825796132600,10.565132568359376,-0.8095462918281555,-0.6404425501823425,8.282919883728027
1761400825806213000,10.575213134765624,-0.7629153728485107,-0.8382409811019897,7.919397830963135
1761400825826352000,10.59535205078125,-0.558971643447876,-0.6980317831039429,7.070048809051514
1761400825836457500,10.60545751953125,-0.44142839312553406,-0.5046465992927551,6.6104512214660645
1761400825846534700,10.61553466796875,-0.33952316641807556,-0.3278987407684326,6.126155376434326
1761400825856617500,10.625617431640626,-0.2270926535129547,-0.19565007090568542,5.625555992126465
1761400825866698500,10.635698486328126,-0.05117744952440262,-0.0996902734041214,5.100325107574463
1761400825876770600,10.6457705078125,0.2073577642440796,-0.03052660822868347,4.537339687347412
1761400825886859500,10.655859619140625,0.5049130916595459,0.013622893951833248,3.955035924911499
1761400825896941000,10.665941162109375,0.7714588046073914,-0.023565275594592094,3.3611409664154053
1761400825907010000,10.676010009765625,0.9649438858032227,-0.11944180727005005,2.7353038787841797
1761400825917090300,10.68609033203125,1.1058526039123535,-0.12498755753040314,2.1171276569366455
1761400825927170800,10.6961708984375,1.2019456624984741,0.018485834822058678,1.494588017463684
1761400825937264000,10.70626416015625,1.2733908891677856,0.18717323243618011,0.8640046119689941
1761400825947345200,10.71634521484375,1.3238189220428467,0.2626986801624298,0.22855818271636963
1761400825957425700,10.72642578125,1.3632054328918457,0.3011026084423065,-0.40593892335891724
1761400825967505200,10.736505126953125,1.419678807258606,0.340305894613266,-1.0207678079605103
1761400825977583000,10.7465830078125,1.4783837795257568,0.3848883807659149,-1.608384132385254
1761400825987668200,10.756668212890625,1.5143728256225586,0.529744029045105,-2.202562093734741
1761400825997749800,10.766749755859376,1.4827138185501099,0.74564528465271,-2.8295650482177734
1761400826007806500,10.776806396484375,1.3029016256332397,0.818023145198822,-3.4030754566192627
1761400826017898500,10.7868984375,1.0531096458435059,0.9580658078193665,-3.9284729957580566
1761400826027992000,10.796991943359375,0.8693171739578247,1.3235024213790894,-4.465328216552734
1761400826038070800,10.80707080078125,0.6756322383880615,1.6786136627197266,-4.99240779876709
1761400826048141000,10.81714111328125,0.40623870491981506,1.8816580772399902,-5.503382682800293
1761400826058234600,10.827234619140626,0.15304937958717346,1.9133005142211914,-6.081389904022217
1761400826068302800,10.837302734375,0.019851455464959145,1.8241854906082153,-6.794110298156738
1761400826078395600,10.847395751953124,-0.005945444107055664,1.7897285223007202,-7.5526957511901855
1761400826088477000,10.857476806640625,0.019052067771553993,1.9153488874435425,-8.353631973266602
1761400826098555600,10.8675556640625,0.0683809295296669,2.213653564453125,-9.089584350585938
1761400826108638500,10.877638427734375,0.2226293981075287,2.6906216144561768,-9.678899765014648
1761400826118699800,10.88769970703125,0.410418838262558,2.9646947383880615,-10.090400695800781
1761400826128800300,10.89780029296875,0.5529429316520691,2.623389720916748,-10.317876815795898
1761400826138881300,10.90788134765625,0.7936418056488037,1.593928575515747,-10.386774063110352
1761400826148961300,10.917961181640624,1.1379446983337402,0.22442802786827087,-10.376681327819824
1761400826159040500,10.92804052734375,1.4500222206115723,-0.8152419328689575,-10.249711990356445
1761400826169123800,10.938123779296875,1.7152190208435059,-1.0895817279815674,-9.979585647583008
1761400826179204900,10.948204833984375,1.9247084856033325,-0.777487576007843,-9.596479415893555
1761400826189273000,10.958273193359375,2.019369125366211,-0.21511848270893097,-9.104889869689941
1761400826199366100,10.9683662109375,2.051544666290283,0.2275756150484085,-8.621227264404297
1761400826209435000,10.978434814453125,2.1345975399017334,0.3448190987110138,-8.311847686767578
1761400826219504400,10.98850439453125,2.174283742904663,0.26398104429244995,-8.175801277160645
1761400826229606400,10.9986064453125,2.096693277359009,0.31117820739746094,-8.09947681427002
1761400826239689700,11.008689697265625,1.9350671768188477,0.7019787430763245,-7.921762943267822
1761400826249770500,11.0187705078125,1.6478039026260376,1.2019622325897217,-7.434986114501953
1761400826259849000,11.028848876953125,1.2110387086868286,1.4210110902786255,-6.5140581130981445
1761400826269932000,11.03893212890625,0.7696435451507568,1.1538158655166626,-5.3016204833984375
1761400826280013000,11.049012939453124,0.2963562309741974,0.5228826403617859,-3.9779183864593506
1761400826290070500,11.059070556640625,-0.18067821860313416,-0.3213037848472595,-2.8696343898773193
1761400826300174800,11.0691748046875,-0.5551912188529968,-1.1589452028274536,-2.1762657165527344
1761400826310264800,11.079264892578125,-0.7069082856178284,-1.6524004936218262,-1.8162082433700562
1761400826320336400,11.08933642578125,-0.6833429932594299,-1.3391904830932617,-1.597009539604187
1761400826330404400,11.099404296875,-0.6202746629714966,-0.3418380618095398,-1.3002036809921265
1761400826340489700,11.10948974609375,-0.5646007061004639,0.553758978843689,-0.6861408948898315
1761400826350588200,11.119588134765625,-0.505196213722229,0.925174355506897,0.10460317879915237
1761400826360644000,11.12964404296875,-0.42205992341041565,0.8397898077964783,0.6397764086723328
1761400826370740000,11.139739990234375,-0.3437199294567108,0.4547182321548462,0.8171238303184509
1761400826380821500,11.149821533203125,-0.3100457489490509,0.06858077645301819,0.7219134569168091
1761400826390878000,11.1598779296875,-0.2959398925304413,0.004746363032609224,0.5010826587677002
1761400826400982800,11.169982666015626,-0.293724924325943,0.2767046391963959,0.3607735335826874
1761400826411064600,11.180064697265625,-0.3677348792552948,0.5862507820129395,0.4254906177520752
1761400826421141000,11.19014111328125,-0.530843198299408,0.7786533236503601,0.7522402405738831
1761400826431226000,11.20022607421875,-0.7273926138877869,0.7422978281974792,1.290427803993225
1761400826441306600,11.210306640625,-0.916397750377655,0.5940947532653809,1.893698811531067
1761400826451387100,11.22038720703125,-1.0495790243148804,0.37081584334373474,2.3767952919006348
1761400826461469000,11.230468994140624,-1.1558476686477661,0.16680550575256348,2.7151360511779785
1761400826471549200,11.240549072265624,-1.2410156726837158,-0.05054460093379021,2.939880609512329
1761400826481626400,11.25062646484375,-1.2915436029434204,-0.1702861785888672,3.067399501800537
1761400826491710700,11.260710693359375,-1.3694672584533691,-0.10818376392126083,3.168039083480835
1761400826501778700,11.27077880859375,-1.4888590574264526,-0.019052067771553993,3.306532859802246
1761400826511872300,11.280872314453125,-1.6282355785369873,0.04854613170027733,3.539637565612793
1761400826521953000,11.290953125,-1.7476941347122192,0.12132369726896286,3.866037368774414
1761400826532021200,11.301021240234375,-1.8480339050292969,0.19686581194400787,4.275157451629639
1761400826542114800,11.31111474609375,-1.9498724937438965,0.19088706374168396,4.726428031921387
1761400826552193500,11.321193603515624,-2.0249483585357666,0.0878160372376442,5.037822723388672
1761400826562276600,11.331276611328125,-2.0887160301208496,-0.16430743038654327,5.182078838348389
1761400826572348700,11.3413486328125,-2.168105363845825,-0.540868878364563,5.200531482696533
1761400826582438000,11.35143798828125,-2.3175241947174072,-0.7051762938499451,5.173135757446289
1761400826592506400,11.36150634765625,-2.495321273803711,-0.30688151717185974,5.266231060028076
1761400826602600200,11.37160009765625,-2.610849380493164,0.5370384454727173,5.556775093078613
1761400826612676000,11.381676025390625,-2.5055134296417236,1.2853649854660034,6.000235557556152
1761400826622755000,11.391755126953125,-2.2558047771453857,1.604437232017517,6.461698532104492
1761400826632842800,11.4018427734375,-2.008094549179077,1.4838296175003052,6.892651557922363
1761400826642914800,11.411914794921875,-1.7992879152297974,1.1311331987380981,7.2856669425964355
1761400826653004000,11.422004150390626,-1.5931458473205566,0.6868569850921631,7.600076198577881
1761400826663084800,11.432084716796876,-1.3719819784164429,0.287546306848526,7.788132190704346
1761400826673165600,11.44216552734375,-1.1569467782974243,0.061436254531145096,7.859560489654541
1761400826683245000,11.4522451171875,-0.9966029524803162,-0.04271726682782173,7.862391948699951
1761400826693315600,11.462315673828124,-0.9443263411521912,-0.14955206215381622,7.823837757110596
1761400826703408400,11.472408447265625,-0.983279824256897,-0.230490043759346,7.766881465911865
1761400826713476600,11.4824765625,-1.0380878448486328,-0.25988417863845825,7.6891913414001465
1761400826723544600,11.492544677734376,-1.0431172847747803,-0.29598984122276306,7.5385565757751465
1761400826733638100,11.50263818359375,-1.0691972970962524,-0.5028147101402283,7.241933822631836
1761400826743730000,11.51272998046875,-1.0377880334854126,-0.6935185790061951,6.8529486656188965
1761400826753798100,11.522798095703125,-0.9046567678451538,-0.8415384888648987,6.388354778289795
1761400826763893000,11.53289306640625,-0.6670554876327515,-0.9851784110069275,5.923793792724609
1761400826773974300,11.542974365234375,-0.4398629367351532,-1.0123076438903809,5.501467704772949
1761400826784055600,11.5530556640625,-0.178213432431221,-0.7599676251411438,5.124356746673584
1761400826794124000,11.5631240234375,0.057089585810899734,-0.4860275685787201,4.708042144775391
1761400826804214800,11.57321484375,0.2118043601512909,-0.27377355098724365,4.235321044921875
1761400826814297600,11.583297607421875,0.28661370277404785,-0.10438667237758636,3.765148162841797
1761400826824365600,11.593365478515626,0.2935750484466553,0.0770576149225235,3.323319911956787
1761400826834459400,11.60345947265625,0.23981623351573944,0.13667859137058258,2.80633282661438
1761400826844528600,11.613528564453125,0.2078573852777481,0.18780608475208282,2.2216975688934326
1761400826854620700,11.62362060546875,0.1834927201271057,0.14806987345218658,1.5525269508361816
1761400826864702500,11.633702392578124,0.1198248416185379,0.12215638905763626,0.8914502263069153
1761400826874780700,11.64378076171875,0.09369486570358276,0.10973257571458817,0.27570539712905884
1761400826884863700,11.65386376953125,0.15583059191703796,0.25245654582977295,-0.3014356791973114
1761400826894931500,11.663931396484376,0.29126015305519104,0.6180596947669983,-0.8432371616363525
1761400826905025300,11.674025390625,0.46266213059425354,1.097792148590088,-1.3797427415847778
1761400826915106000,11.68410595703125,0.613596498966217,1.3810917139053345,-1.9713727235794067
1761400826935254500,11.704254638671875,0.3300970494747162,1.447240948677063,-3.3752801418304443
1761400826945348400,11.714348388671874,0.12002468854188919,1.8224700689315796,-4.01362419128418
1761400826955429600,11.7244296875,-0.0440162718296051,2.3668196201324463,-4.569465160369873
1761400826965505300,11.73450537109375,-0.19788169860839844,2.671069860458374,-5.027530670166016
1761400826975582000,11.74458203125,-0.2481764853000641,2.581505060195923,-5.482415676116943
1761400826985671200,11.754671142578125,-0.1471039354801178,2.0943284034729004,-6.032127380371094
1761400826995750700,11.764750732421875,0.10327086597681046,1.3912172317504883,-6.710374355316162
1761400827005831400,11.77483154296875,0.4797823429107666,0.8416717052459717,-7.417782306671143
1761400827015914500,11.78491455078125,0.9253408908843994,0.5652002096176147,-8.085770606994629
1761400827025983000,11.79498291015625,1.2584689855575562,0.3545449674129486,-8.630752563476562
1761400827036063200,11.805063232421874,1.4377648830413818,0.13589586317539215,-9.072731018066406
1761400827046144500,11.81514453125,1.5768582820892334,0.11369621008634567,-9.473240852355957
1761400827056236000,11.825236083984375,1.828965187072754,0.45739948749542236,-9.849152565002441
1761400827066316500,11.835316650390626,1.98041570186615,0.815142035484314,-10.134317398071289
1761400827076386800,11.84538671875,1.989075779914856,0.9694737792015076,-10.324471473693848
1761400827086480400,11.85548046875,1.8674689531326294,0.9353998899459839,-10.419598579406738
1761400827096540000,11.865539794921874,1.7414988279342651,0.9524034857749939,-10.347270965576172
1761400827106629000,11.875629150390624,1.7964067459106445,0.7275591492652893,-10.00191879272461
1761400827116721000,11.885720947265625,1.9406296014785767,0.045448508113622665,-9.432988166809082
1761400827126803700,11.8958037109375,2.017054319381714,-0.7204645872116089,-8.84728717803955
1761400827136885000,11.905885009765624,1.9953542947769165,-1.2037442922592163,-8.361576080322266
1761400827146965200,11.91596533203125,1.9569337368011475,-1.4499222040176392,-8.036341667175293
1761400827157046300,11.92604638671875,1.9741371870040894,-1.5038808584213257,-7.87025260925293
1761400827167114800,11.93611474609375,2.0416853427886963,-1.465443730354309,-7.778722286224365
1761400827177207800,11.946207763671875,2.056623935699463,-1.1412088871002197,-7.576777458190918
1761400827187286800,11.956286865234375,1.9279725551605225,-0.4733206331729889,-7.039872169494629
1761400827197369900,11.966369873046874,1.770976185798645,0.18470846116542816,-6.13796329498291
1761400827207450400,11.976450439453124,1.6147792339324951,0.5708792209625244,-4.946759223937988
1761400827217531100,11.98653125,1.392499566078186,0.6850583553314209,-3.6208086013793945
1761400827227599600,11.996599609375,1.0216838121414185,0.524131715297699,-2.3642382621765137
1761400827237680600,12.0066806640625,0.6625589728355408,0.34283727407455444,-1.3692173957824707
1761400827247771400,12.016771484375,0.34388649463653564,0.24431277811527252,-0.6831931471824646
1761400827257855200,12.026855224609376,0.04887920990586281,0.23155589401721954,-0.20699138939380646
1761400827267926800,12.0369267578125,-0.2593512535095215,0.5322754383087158,0.18539126217365265
1761400827278016300,12.047016357421874,-0.4316858649253845,0.7982050180435181,0.6418914794921875
1761400827288097000,12.057096923828125,-0.4627120792865753,0.720531165599823,1.1487197875976562
1761400827298156500,12.067156494140624,-0.497402161359787,0.3656531274318695,1.7102560997009277
1761400827308252400,12.07725244140625,-0.6044368147850037,-0.02797855995595455,2.216618061065674
1761400827318337800,12.087337890625,-0.7870302200317383,-0.3758619725704193,2.549412965774536
1761400827328419600,12.097419677734376,-0.9441598057746887,-0.48329630494117737,2.7380850315093994
1761400827338501600,12.107501708984374,-1.0241985321044922,-0.3463512659072876,2.8610575199127197
1761400827348569900,12.11756982421875,-1.05072820186615,-0.25558748841285706,2.9538698196411133
1761400827358651400,12.1276513671875,-1.0414851903915405,-0.321370393037796,3.0810723304748535
1761400827368733200,12.137733154296875,-1.0377048254013062,-0.3945476710796356,3.2657973766326904
1761400827378823000,12.147822998046875,-1.087833046913147,-0.4966694116592407,3.4147000312805176
1761400827388905700,12.15790576171875,-1.251657485961914,-0.6350966691970825,3.501633405685425
1761400827398998800,12.167998779296875,-1.5051299333572388,-0.7920264005661011,3.579923391342163
1761400827409054700,12.1780546875,-1.7429476976394653,-0.9569500088691711,3.698415994644165
1761400827419148000,12.18814794921875,-2.0422017574310303,-0.9089035391807556,3.9029924869537354
1761400827429216500,12.198216552734374,-2.309396982192993,-0.5019153952598572,4.26747989654541
1761400827439296800,12.208296875,-2.490025281906128,0.04446592554450035,4.685376167297363
1761400827449390800,12.218390869140626,-2.559938430786133,0.28521478176116943,5.002183437347412
1761400827459471600,12.2284716796875,-2.5336084365844727,0.2524398863315582,5.147472381591797
1761400827469540900,12.238540771484375,-2.472205638885498,0.11081508547067642,5.176116943359375
1761400827479617300,12.2486171875,-2.3834736347198486,-0.06283517926931381,5.129868984222412
1761400827489714000,12.2587138671875,-2.328249216079712,-0.189737930893898,5.058506965637207
1761400827499794400,12.26879443359375,-2.3704833984375,-0.21098831295967102,5.09581184387207
1761400827509869800,12.278869873046874,-2.384106397628784,0.17205148935317993,5.298173427581787
1761400827519956500,12.28895654296875,-2.2439637184143066,0.7210640907287598,5.680030822753906
1761400827530037500,12.29903759765625,-1.941678762435913,1.1041206121444702,6.148921489715576
1761400827540105200,12.309105224609375,-1.594011902809143,1.0078777074813843,6.602307319641113
1761400827550199600,12.319199462890625,-1.3868871927261353,0.8125939965248108,7.0608391761779785
1761400827560279800,12.32927978515625,-1.2592684030532837,0.8113116025924683,7.572863578796387
1761400827570358800,12.33935888671875,-1.0858179330825806,0.9299540519714355,8.051613807678223
1761400827580430800,12.349430908203125,-0.8681014180183411,0.8978952765464783,8.412154197692871
1761400827590504700,12.359504638671876,-0.6897714138031006,0.7703096866607666,8.705728530883789
1761400827600601300,12.369601318359376,-0.5977585911750793,0.6484697461128235,8.894683837890625
1761400827610673700,12.379673583984374,-0.5576893091201782,0.5275956988334656,8.92744255065918
1761400827620752100,12.389752197265626,-0.5260302424430847,0.37164855003356934,8.783252716064453
1761400827630845700,12.399845703125,-0.49232274293899536,0.010691806674003601,8.42870807647705
1761400827640922600,12.409922607421874,-0.4541853070259094,-0.6683878302574158,7.8525824546813965
1761400827651007500,12.420007568359376,-0.344286173582077,-1.3705997467041016,7.19853401184082
1761400827661078800,12.430078857421876,-0.1389102190732956,-1.9094034433364868,6.538572788238525
1761400827671169000,12.4401689453125,0.1169104129076004,-2.1655073165893555,5.8874053955078125
1761400827681250000,12.45025,0.3403225541114807,-2.19598388671875,5.223330497741699
1761400827691331000,12.4603310546875,0.47705110907554626,-2.0666162967681885,4.554110050201416
1761400827701397500,12.4703974609375,0.5425509214401245,-1.8363595008850098,3.8759632110595703
1761400827711492600,12.48049267578125,0.5674818158149719,-1.6067687273025513,3.163958787918091
1761400827721573000,12.490572998046876,0.6224730014801025,-1.3052164316177368,2.4659602642059326
1761400827731625200,12.500625244140625,0.7444295287132263,-0.9221766591072083,1.8086973428726196
1761400827741709300,12.510709228515625,0.8820407390594482,-0.532092273235321,1.1684379577636719
1761400827751790600,12.52079052734375,0.9727545976638794,-0.21248717606067657,0.5371717214584351
1761400827761871600,12.53087158203125,1.1138464212417603,0.22964069247245789,-0.15699635446071625
1761400827771952400,12.540952392578125,1.2305070161819458,0.5532926917076111,-0.794224739074707
1761400827782059300,12.551059326171876,1.238500952720642,0.5306100845336914,-1.3259172439575195
1761400827792139000,12.561138916015626,1.2043770551681519,0.41894564032554626,-1.7901781797409058
1761400827802219800,12.5712197265625,1.130300521850586,0.45781585574150085,-2.1973161697387695
1761400827812301000,12.581301025390625,0.9574496150016785,0.6227894425392151,-2.563502311706543
1761400827822360600,12.591360595703126,0.6380943655967712,0.8224530816078186,-2.896080732345581
1761400827832458500,12.60145849609375,0.2350032478570938,1.1346471309661865,-3.1667733192443848
1761400827842543900,12.6115439453125,-0.14813648164272308,1.492539644241333,-3.4402971267700195
1761400827852624400,12.621624267578126,-0.41003578901290894,1.7533397674560547,-3.832130193710327
1761400827862680600,12.6316806640625,-0.4562337100505829,1.7512580156326294,-4.445193767547607
1761400827872786200,12.6417861328125,-0.318522572517395,1.5785902738571167,-5.1910719871521
1761400827882866400,12.651866455078125,-0.09640945494174957,1.3517807722091675,-5.930688858032227
1761400827892943400,12.661943359375,0.11074846982955933,1.1420748233795166,-6.597877502441406
1761400827903028000,12.672028076171875,0.3329615294933319,1.0726946592330933,-7.233839988708496
1761400827913084400,12.68208447265625,0.5937283635139465,1.155814290046692,-7.7586212158203125
1761400827923165700,12.692165771484374,0.9174469709396362,1.2420815229415894,-8.161845207214355
1761400827933270500,12.7022705078125,1.3184562921524048,1.2304404973983765,-8.481884002685547
1761400827943352000,12.71235205078125,1.611415147781372,1.218599557876587,-8.61601448059082
1761400827953407500,12.722407470703125,1.7426645755767822,1.395597219467163,-8.483765602111816
1761400827963508500,12.732508544921876,1.8123778104782104,1.5205014944076538,-8.229360580444336
1761400827973570800,12.74257080078125,1.895647406578064,1.3977621793746948,-8.01412582397461
1761400827983674600,12.752674560546875,1.9360164403915405,0.8640878796577454,-7.96199893951416
1761400827993750500,12.76275048828125,1.923925757408142,0.12144027650356293,-8.086919784545898
1761400828003837200,12.772837158203124,1.866686224937439,-0.4118344187736511,-8.223498344421387
1761400828013918200,12.782918212890625,1.6992145776748657,-0.48759302496910095,-8.255390167236328
1761400828023993900,12.792993896484376,1.5314098596572876,-0.10946611315011978,-8.094630241394043
1761400828034079700,12.803079833984375,1.3952142000198364,0.4464578926563263,-7.7958760261535645
1761400828044160300,12.81316015625,1.3192557096481323,0.994671106338501,-7.4253764152526855
1761400828054241500,12.823241455078126,1.2944080829620361,1.3063489198684692,-6.937800407409668
1761400828064322000,12.833322021484374,1.2623493671417236,1.3869205713272095,-6.294476509094238
1761400828074391000,12.84339111328125,1.184958577156067,1.3955472707748413,-5.588667392730713
1761400828084484400,12.853484375,1.031592845916748,1.2574530839920044,-4.907839298248291
1761400828094564600,12.863564697265625,0.7795859575271606,0.886770486831665,-4.208508491516113
1761400828104645400,12.873645263671875,0.5472306609153748,0.49785181879997253,-3.40012788772583
1761400828114726700,12.8837265625,0.44206124544143677,0.2646305561065674,-2.6551320552825928
1761400828124799500,12.893799560546874,0.4589649736881256,-0.09627622365951538,-2.121091365814209
1761400828134888000,12.903887939453124,0.4957534372806549,-0.45724961161613464,-1.7862145900726318
1761400828144960300,12.913960205078125,0.4925392270088196,-0.5663326978683472,-1.586517572402954
1761400828155040000,12.9240400390625,0.5058290362358093,-0.37289759516716003,-1.5037809610366821
1761400828165130200,12.934130126953125,0.5000001788139343,-0.15421515703201294,-1.517970085144043
1761400828175217700,12.9442177734375,0.4525698721408844,-0.16374118626117706,-1.505013346672058
1761400828185291800,12.954291748046876,0.37374693155288696,-0.23841729760169983,-1.3058992624282837
