time,seconds_elapsed,z,y,x
1761399196905440300,0.126440185546875,-0.04912351071834564,0.017876625061035156,0.2588522434234619
1761399196925603000,0.14660302734375,-0.03742894530296326,0.0011281967163085938,0.2940545082092285
1761399196945793800,0.166793701171875,-0.028739094734191895,0.006003379821777344,0.2655036449432373
1761399196965937000,0.18693701171875,-0.015660583972930908,-0.021806716918945312,0.2998284101486206
1761399196986099200,0.20709912109375,-0.022580623626708984,-0.0321044921875,0.40739643573760986
1761399197006273000,0.22727294921875,-0.04850831627845764,0.022411346435546875,0.4873178005218506
1761399197026434000,0.24743408203125,-0.026837870478630066,-0.04328441619873047,0.4561421871185303
1761399197046595800,0.267595947265625,-0.008645981550216675,-0.07899856567382812,0.41623640060424805
1761399197066767000,0.28776708984375,0.02857285737991333,-0.013928413391113281,0.348288893699646
1761399197086905900,0.30790576171875,-0.02874848246574402,0.056537628173828125,0.26514649391174316
1761399197107078100,0.328078125,-0.10590694844722748,0.16878795623779297,0.10545718669891357
1761399197127231700,0.348231689453125,-0.10952326655387878,0.16495323181152344,-0.04909873008728027
1761399197147381800,0.3683818359375,-0.08147101104259491,0.14853572845458984,-0.06407272815704346
1761399197167554000,0.388553955078125,0.006426259875297546,0.0033731460571289062,-0.18395888805389404
1761399197187719200,0.40871923828125,0.019565850496292114,0.08008098602294922,-0.11879146099090576
1761399197207887400,0.428887451171875,0.023692183196544647,0.023766517639160156,-0.004833221435546875
1761399197228028000,0.44902783203125,0.05952375382184982,-0.03658294677734375,-0.030411481857299805
1761399197248196000,0.469196044921875,0.10426563024520874,-0.021257400512695312,-0.12867891788482666
1761399197268365300,0.489365234375,0.12684893608093262,0.013997077941894531,-0.34676694869995117
1761399197288523300,0.509523193359375,0.09150443971157074,0.07383060455322266,-0.4179201126098633
1761399197308694300,0.5296943359375,0.09952747821807861,0.12341880798339844,-0.4260801076889038
1761399197328843500,0.549843505859375,0.12050772458314896,0.12487506866455078,-0.6069834232330322
1761399197349017600,0.570017578125,0.20109032094478607,0.31015872955322266,-0.7597962617874146
1761399197369179000,0.590178955078125,0.2806035578250885,0.3109273910522461,-0.86545729637146
1761399197389328100,0.610328125,0.2800087034702301,0.2541007995605469,-0.9102169275283813
1761399197409493200,0.6304931640625,0.2293260246515274,0.2663412094116211,-0.8872853517532349
1761399197429659000,0.650658935546875,0.3178583085536957,0.30542564392089844,-0.8234953880310059
1761399197449824500,0.670824462890625,0.4407416582107544,0.3297863006591797,-0.8464740514755249
1761399197469978400,0.690978271484375,0.4234592318534851,0.35718536376953125,-0.9247497320175171
1761399197490135600,0.711135498046875,0.2985329031944275,0.41764259338378906,-0.9640334844589233
1761399197510308600,0.73130859375,0.12572798132896423,0.3849220275878906,-1.0041303634643555
1761399197530457600,0.75145751953125,0.05527225509285927,0.3587198257446289,-0.9274954795837402
1761399197550631400,0.77163134765625,0.10718721151351929,0.3808403015136719,-0.8803322315216064
1761399197570781400,0.791781494140625,0.12448938190937042,0.40191078186035156,-0.9905376434326172
1761399197590944300,0.8119443359375,0.10071364790201187,0.4066810607910156,-1.0467491149902344
1761399197611118300,0.832118408203125,0.06724312901496887,0.27455902099609375,-0.9785408973693848
1761399197631264300,0.85226416015625,0.09778495877981186,0.22297096252441406,-0.9445985555648804
1761399197651438800,0.87243896484375,0.1172487884759903,0.19394779205322266,-1.0061814785003662
1761399197671588600,0.892588623046875,0.1051827073097229,0.0895538330078125,-1.0825845003128052
1761399197691762000,0.912761962890625,0.19984020292758942,0.11034297943115234,-1.1468253135681152
1761399197711911400,0.932911376953125,0.29918938875198364,0.08179473876953125,-1.24552583694458
1761399197732072000,0.953072021484375,0.21391341090202332,0.2164630889892578,-1.381365418434143
1761399197752244200,0.973244140625,-0.05926758795976639,0.3477611541748047,-1.8514504432678223
1761399197772407000,0.993406982421875,-0.42097124457359314,-0.30484580993652344,-2.945155143737793
1761399197792559400,1.013559326171875,-0.5243956446647644,-1.4890413284301758,-3.5480382442474365
1761399197812713700,1.033713623046875,0.5597156286239624,-1.9272470474243164,-3.0473289489746094
1761399197832881700,1.053881591796875,2.035796880722046,-1.47265625,-2.354473114013672
1761399197853053000,1.074052978515625,1.998173713684082,-1.241927146911621,-1.5409340858459473
1761399197873214500,1.09421435546875,1.0480282306671143,-0.26724815368652344,-1.0242998600006104
1761399197893376300,1.114376220703125,0.41218507289886475,-0.08316326141357422,-0.74472975730896
1761399197913519600,1.13451953125,-0.0854872465133667,-0.6798238754272461,0.23792219161987305
1761399197933698600,1.154698486328125,-0.1603008508682251,-0.7547645568847656,1.1914551258087158
1761399197953860400,1.1748603515625,-0.38648927211761475,-1.0052528381347656,1.495444416999817
1761399197974008800,1.1950087890625,-1.2319751977920532,-2.701228141784668,1.9737833738327026
1761399197994174200,1.21517431640625,-1.8437894582748413,-2.779582977294922,2.0082387924194336
1761399198014345000,1.235344970703125,-2.3669166564941406,-0.36811065673828125,1.4242030382156372
1761399198034495700,1.255495849609375,-2.2850518226623535,0.6399736404418945,1.1180026531219482
1761399198054653400,1.2756533203125,-1.2025587558746338,0.0838632583618164,1.0054030418395996
1761399198074816300,1.295816162109375,-1.2354850769042969,-0.5070219039916992,1.5632309913635254
1761399198094965200,1.31596533203125,-1.8593312501907349,-0.23191070556640625,1.7710031270980835
1761399198115151600,1.336151611328125,-2.1049022674560547,0.48656558990478516,2.39825439453125
1761399198135310800,1.356310791015625,-2.06807804107666,1.615036964416504,2.9402151107788086
1761399198155439600,1.376439697265625,-1.8667001724243164,2.448415756225586,2.7007994651794434
1761399198175625000,1.396625,-1.76620352268219,2.740950584411621,2.6793460845947266
1761399198195783000,1.416782958984375,-0.9512505531311035,1.961857795715332,2.9303576946258545
1761399198215939800,1.43693994140625,-0.0759124755859375,1.9532356262207031,2.9784820079803467
1761399198236107500,1.457107421875,0.43547987937927246,2.4048805236816406,2.6743736267089844
1761399198256280000,1.477280029296875,0.4289064407348633,2.2191786766052246,1.547025203704834
1761399198276424200,1.497424072265625,1.8498153686523438,1.0681743621826172,-0.4090237617492676
1761399198296605000,1.51760498046875,2.590618848800659,-0.7871856689453125,-2.207913637161255
1761399198316759000,1.537759033203125,1.8598084449768066,-3.769601821899414,-4.072613716125488
1761399198336906200,1.55790625,1.255908727645874,-4.4414873123168945,-2.4569621086120605
1761399198357089000,1.578089111328125,2.1773600578308105,-2.308349609375,-0.2789335250854492
1761399198377246200,1.59824609375,2.1604998111724854,0.8647384643554688,0.3877086639404297
1761399198397399000,1.61839892578125,1.9673495292663574,3.429849624633789,-0.018017292022705078
1761399198417563100,1.638563232421875,1.0516657829284668,1.1761236190795898,0.6380572319030762
1761399198437723100,1.65872314453125,0.6858994960784912,-8.308035850524902,0.620631217956543
1761399198457896400,1.678896484375,-1.1414463520050049,-9.019527435302734,0.3463709354400635
1761399198478057500,1.699057373046875,-2.8758254051208496,-0.27356719970703125,2.2396562099456787
1761399198498219000,1.719218994140625,-2.7158420085906982,4.17378044128418,4.315075874328613
1761399198518380000,1.739380126953125,-4.618271827697754,4.186388969421387,5.924065589904785
1761399198538541800,1.759541748046875,-6.221101760864258,0.15114307403564453,3.9609854221343994
1761399198558703400,1.779703369140625,-5.317210674285889,-5.850445747375488,-0.907839298248291
1761399198578856400,1.7998564453125,-3.257753849029541,-2.7750625610351562,-3.76639986038208
1761399198599007200,1.82000732421875,-1.9118951559066772,0.8318929672241211,-1.916337490081787
1761399198619175000,1.8401748046875,-1.2387032508850098,0.9343681335449219,1.1587411165237427
1761399198639347200,1.86034716796875,-0.8189409971237183,0.1904315948486328,2.4076099395751953
1761399198659497500,1.88049755859375,-1.202089786529541,0.05003547668457031,1.3528995513916016
1761399198679670000,1.900669921875,-1.2695304155349731,0.23548507690429688,0.18788480758666992
1761399198699832000,1.92083203125,-1.0917209386825562,0.6520004272460938,0.23806142807006836
1761399198719991000,1.940990966796875,-1.1292524337768555,0.9103565216064453,0.8665841817855835
1761399198740156700,1.96115673828125,-1.1737717390060425,0.7470903396606445,0.35954904556274414
1761399198760317400,1.9813173828125,-0.7353643774986267,0.4110755920410156,-0.7739300727844238
1761399198780476400,2.001476318359375,-0.07301270961761475,0.3954486846923828,-1.0477986335754395
1761399198800640300,2.02164013671875,0.043799400329589844,0.6227273941040039,-0.7764756679534912
1761399198820810800,2.041810791015625,-0.24574822187423706,1.0228958129882812,-0.7698032855987549
1761399198840950300,2.0619501953125,-0.6047098636627197,1.3563032150268555,-0.8847827911376953
1761399198861120500,2.08212060546875,-0.4441221356391907,0.9092636108398438,-0.7649555206298828
1761399198881286100,2.1022861328125,0.0018797144293785095,0.04103660583496094,0.05688166618347168
1761399198901445600,2.122445556640625,0.771316409111023,0.0038127899169921875,0.42821240425109863
1761399198921596200,2.14259619140625,0.5947275161743164,-0.1783618927001953,-1.1013463735580444
1761399198941758200,2.16275830078125,-0.48844850063323975,-0.0685281753540039,-2.298330307006836
1761399198961911600,2.18291162109375,0.18196484446525574,-0.4902353286743164,-1.6221734285354614
1761399198982080000,2.203080078125,-0.027592048048973083,-0.5398578643798828,-1.7421848773956299
1761399199002254600,2.223254638671875,-0.3491382598876953,-0.7922706604003906,-2.693770408630371
1761399199022415000,2.2434150390625,-0.3957499861717224,-0.7991361618041992,-2.7555127143859863
1761399199042561300,2.263561279296875,-0.469329833984375,-2.2139415740966797,-5.900158882141113
1761399199062726700,2.2837265625,-1.1607991456985474,-1.4833850860595703,-6.5316362380981445
1761399199082900500,2.303900390625,-0.29402852058410645,-1.2262916564941406,-4.2973127365112305
1761399199103043000,2.32404296875,0.43895572423934937,-1.3968887329101562,-0.7450861930847168
1761399199123223600,2.3442236328125,1.063399314880371,-1.972224235534668,2.092064619064331
1761399199143373300,2.364373291015625,0.006938457489013672,-2.751410484313965,3.6317052841186523
1761399199163533000,2.384532958984375,-2.3123927116394043,-2.5291261672973633,3.3847062587738037
1761399199183707400,2.404707275390625,-3.373650550842285,-1.0882387161254883,1.4176547527313232
1761399199203856400,2.4248564453125,-2.7226903438568115,-1.1616992950439453,-0.9764866828918457
1761399199224033000,2.445032958984375,-2.0692138671875,-2.1009531021118164,-1.6634669303894043
1761399199244179000,2.465178955078125,-2.4698100090026855,-1.3145008087158203,-1.244424819946289
1761399199264353300,2.485353271484375,-2.565732002258301,-0.3413124084472656,0.08449172973632812
1761399199284501500,2.50550146484375,-2.998152017593384,-0.2209606170654297,1.3327722549438477
1761399199304666400,2.525666259765625,-3.284787893295288,-0.3956794738769531,2.493936538696289
1761399199324817400,2.5458173828125,-3.779834270477295,-0.2979011535644531,2.7569684982299805
1761399199344985600,2.565985595703125,-3.0480198860168457,0.11814498901367188,2.981191396713257
1761399199365160700,2.58616064453125,-2.6980180740356445,0.5463390350341797,2.6328225135803223
1761399199385322000,2.606322021484375,-2.6592421531677246,0.9973273277282715,2.4090535640716553
1761399199405481200,2.626481201171875,-2.471386432647705,1.1497182846069336,3.728285312652588
1761399199425642800,2.646642822265625,-2.0622317790985107,1.5970211029052734,3.66308856010437
1761399199445794000,2.6667939453125,-1.4280009269714355,2.475670337677002,4.110302448272705
1761399199465967400,2.68696728515625,-0.39841294288635254,3.2278008460998535,3.864119529724121
1761399199486110200,2.707110107421875,0.4134697914123535,2.8187742233276367,2.361300468444824
1761399199506278000,2.72727783203125,0.9207756519317627,1.200531005859375,0.3569808006286621
1761399199526451700,2.74745166015625,0.6172256469726562,-1.8711280822753906,-2.3033576011657715
1761399199546602200,2.767602294921875,1.5054450035095215,-4.842622756958008,-4.521454334259033
1761399199566774300,2.787774169921875,2.1060335636138916,-3.460155487060547,-3.500108003616333
1761399199586936000,2.80793603515625,1.780726671218872,-0.3541727066040039,-1.4503445625305176
1761399199607075600,2.82807568359375,0.9947426319122314,2.612985610961914,0.052838802337646484
1761399199627259100,2.848259033203125,0.24756789207458496,4.8394975662231445,0.24637722969055176
1761399199647420400,2.86842041015625,-0.45448732376098633,2.210568428039551,1.1520676612854004
1761399199667579600,2.88857958984375,-1.7749912738800049,-8.360973358154297,0.025004863739013672
1761399199687744300,2.908744140625,-1.2901569604873657,-14.05734920501709,-1.1112604141235352
1761399199707904800,2.92890478515625,-0.7073841094970703,-3.765679359436035,0.8136494159698486
1761399199728053200,2.94905322265625,-4.012874126434326,4.498117446899414,3.0118727684020996
1761399199748227300,2.969227294921875,-6.553056716918945,5.459287643432617,2.44571852684021
1761399199768388900,2.989388916015625,-6.723308563232422,1.6999425888061523,1.0545310974121094
1761399199788537900,3.009537841796875,-5.235321998596191,-4.184110641479492,-0.6663439273834229
1761399199808712200,3.029712158203125,-2.9701156616210938,-3.554401397705078,-0.8499772548675537
1761399199828873000,3.049873046875,-1.430928111076355,0.05426502227783203,-0.013875722885131836
1761399199849031000,3.070031005859375,-1.413941502571106,0.35944366455078125,1.763228416442871
1761399199869184300,3.090184326171875,-1.327056884765625,-0.2968463897705078,2.8611934185028076
1761399199889357300,3.110357421875,-0.8935360312461853,-0.3167991638183594,2.075191020965576
1761399199909507000,3.130507080078125,-0.615023136138916,0.20444965362548828,0.8155977725982666
1761399199929678300,3.15067822265625,-0.5891401767730713,1.1648807525634766,0.2110443115234375
1761399199949841700,3.170841552734375,-1.011408805847168,1.5112338066101074,-0.38085198402404785
1761399199969998300,3.190998291015625,-1.1816989183425903,0.9658670425415039,-1.0181829929351807
1761399199990152200,3.211152099609375,-0.8008761405944824,0.7690000534057617,-1.6413142681121826
1761399200010326300,3.231326171875,-0.32633471488952637,1.1823816299438477,-2.282320022583008
1761399200030477600,3.2514775390625,-0.0042057037353515625,1.066178321838379,-2.3449106216430664
1761399200050645200,3.271645263671875,-0.040125101804733276,0.788599967956543,-1.7165703773498535
1761399200070797800,3.2917978515625,0.06272798776626587,0.757634162902832,-0.6736845970153809
1761399200090972000,3.311971923828125,0.2365744560956955,0.4088735580444336,0.14737319946289062
1761399200111121200,3.33212109375,-0.03841719031333923,-0.2102518081665039,0.32957661151885986
1761399200131269600,3.35226953125,-0.7041008472442627,0.2014446258544922,-0.7032631635665894
1761399200151431000,3.372430908203125,-1.023166537284851,0.17279529571533203,-2.664182186126709
1761399200171586000,3.3925859375,-0.32635095715522766,-0.3838319778442383,-2.940739631652832
1761399200191752700,3.412752685546875,0.05436629056930542,-0.8901424407958984,-2.330106735229492
1761399200211924200,3.43292431640625,0.3005342483520508,-1.1214618682861328,-1.5328047275543213
1761399200232102000,3.453101806640625,0.5530418157577515,-1.035883903503418,-1.6493276357650757
1761399200252263400,3.473263427734375,-0.15479141473770142,-0.6697235107421875,-3.2950658798217773
1761399200272424700,3.4934248046875,-0.9170743823051453,-0.8220891952514648,-5.677646636962891
1761399200292586000,3.5135859375,-0.6194168925285339,-0.14391326904296875,-6.356128215789795
1761399200312745500,3.533745361328125,0.18377628922462463,0.3821687698364258,-5.456621170043945
1761399200332909300,3.553909423828125,0.7182209491729736,-0.5342264175415039,-3.600179433822632
1761399200353070300,3.5740703125,0.6042525172233582,-0.37952518463134766,-0.974342942237854
1761399200373230000,3.59422998046875,0.9273549318313599,-0.4199676513671875,1.0106369256973267
1761399200393393400,3.614393310546875,-0.1780949831008911,-1.7877788543701172,1.7027959823608398
1761399200413554400,3.634554443359375,-1.8527623414993286,-2.8216018676757812,1.4620602130889893
1761399200433699800,3.654699951171875,-2.87045955657959,-1.5705995559692383,0.6112411022186279
1761399200453877800,3.674877685546875,-2.568734884262085,-1.4995050430297852,-0.7586221694946289
1761399200474051000,3.695051025390625,-1.3427146673202515,-2.7542285919189453,-1.852616786956787
1761399200494200300,3.715200439453125,-1.834482192993164,-2.0855026245117188,-1.8488774299621582
1761399200514361600,3.735361572265625,-2.975149393081665,-0.5628204345703125,-0.1398162841796875
1761399200534510300,3.75551025390625,-2.6271612644195557,0.3393135070800781,1.2304985523223877
1761399200554666200,3.775666259765625,-3.0788843631744385,-0.24470043182373047,2.5530920028686523
1761399200574846200,3.79584619140625,-2.3617780208587646,-0.4082765579223633,3.6068878173828125
1761399200595007700,3.8160078125,-2.3388378620147705,-0.2633504867553711,3.7338695526123047
1761399200615156500,3.836156494140625,-1.9286859035491943,-0.05433940887451172,3.4702579975128174
1761399200635325700,3.85632568359375,-1.6558277606964111,0.5914936065673828,3.875337839126587
1761399200655491600,3.87649169921875,-1.8525584936141968,1.3021240234375,4.156649589538574
1761399200675630000,3.896630126953125,-2.0787644386291504,1.70257568359375,4.280535697937012
1761399200695815000,3.91681494140625,-1.5694565773010254,2.5834197998046875,4.475440979003906
1761399200715964000,3.9369638671875,-1.0701494216918945,3.5169496536254883,4.335402488708496
1761399200736137700,3.9571376953125,-0.6942799091339111,3.5764427185058594,2.876532554626465
1761399200756297500,3.97729736328125,0.2213890552520752,2.588505268096924,1.1739776134490967
1761399200776435200,3.997435302734375,1.7566702365875244,0.41587066650390625,-0.9382719993591309
1761399200796610600,4.017610595703125,3.224303722381592,-2.3984365463256836,-3.3999783992767334
1761399200816775000,4.03777490234375,3.30952787399292,-5.350184440612793,-6.275799751281738
1761399200836925400,4.057925537109375,1.9738037586212158,-4.415016174316406,-5.343742370605469
1761399200857106000,4.07810595703125,1.547837495803833,-1.442976951599121,-2.182105779647827
1761399200877265400,4.098265380859375,1.6476867198944092,1.2885613441467285,0.11924433708190918
1761399200897412600,4.11841259765625,0.3999216556549072,-1.6355781555175781,1.9105782508850098
1761399200917578000,4.138577880859375,0.7995584011077881,-6.259711265563965,3.6942574977874756
1761399200937739000,4.158739013671875,-1.8402032852172852,-3.8910579681396484,2.749999523162842
1761399200957913600,4.17891357421875,-1.0034910440444946,1.884878158569336,2.4813284873962402
1761399200978075000,4.199074951171875,-3.5321474075317383,2.3331165313720703,2.778555393218994
1761399200998236200,4.219236083984375,-5.749417304992676,-0.06834888458251953,2.958095073699951
1761399201018398200,4.239398193359375,-5.2964067459106445,-2.3863725662231445,1.7987034320831299
1761399201038559200,4.259559326171875,-3.107696294784546,-2.61252498626709,0.3625373840332031
1761399201058714000,4.279714111328125,-2.388946533203125,-0.66241455078125,-0.9920125007629395
1761399201078879700,4.299879638671875,-1.1919279098510742,-0.05922412872314453,-1.2528934478759766
1761399201099021800,4.320021728515625,-0.8300860524177551,0.36769866943359375,-0.007532596588134766
1761399201119192300,4.3401923828125,-0.14502131938934326,0.3247699737548828,1.6344798803329468
1761399201139364400,4.3603642578125,-0.3564484715461731,0.08219337463378906,1.884881615638733
1761399201159516400,4.380516357421875,-0.7493932247161865,0.6178426742553711,1.5090619325637817
1761399201179676000,4.400676025390625,-0.7122065424919128,1.198277473449707,0.6940035820007324
1761399201199836000,4.4208359375,-0.8317072987556458,1.0489978790283203,-0.48850369453430176
1761399201219999200,4.440999267578125,-0.6140486001968384,0.6493167877197266,-1.2983002662658691
1761399201240173000,4.461173095703125,0.058810412883758545,0.8274927139282227,-1.3933601379394531
1761399201260334800,4.4813349609375,0.643844723701477,0.6092348098754883,-0.8219170570373535
1761399201280483600,4.501483642578125,1.0498840808868408,0.7166748046875,-0.5713050365447998
1761399201300657700,4.52165771484375,0.537471354007721,1.5022354125976562,-0.8792052268981934
1761399201320802600,4.541802490234375,0.6649959087371826,1.0676326751708984,-1.0283653736114502
1761399201340980500,4.56198046875,0.7272473573684692,0.21125030517578125,-0.7118995189666748
1761399201361130000,4.5821298828125,0.5173625349998474,0.09444046020507812,-0.04119300842285156
1761399201381303000,4.602302978515625,0.5917385220527649,-0.08612537384033203,-1.72039794921875
1761399201401450200,4.6224501953125,0.8315284848213196,-0.17416763305664062,-2.0442819595336914
1761399201421626400,4.64262646484375,0.5407401919364929,-0.6079654693603516,-1.2172014713287354
1761399201441788400,4.662788330078125,0.5213155746459961,-0.7862615585327148,-1.4169116020202637
1761399201461947100,4.682947021484375,0.9373162984848022,-0.8959817886352539,-2.9229631423950195
1761399201482110500,4.7031103515625,0.6968319416046143,-1.0829706192016602,-4.517420768737793
1761399201502271700,4.723271728515625,-0.2021556943655014,-0.5698823928833008,-5.838909149169922
1761399201522421500,4.74342138671875,-1.3857145309448242,-0.670222282409668,-5.82346248626709
1761399201542582500,4.76358251953125,-0.18736913800239563,-2.324575424194336,-3.0202622413635254
1761399201562758700,4.783758544921875,2.2902519702911377,-4.0100603103637695,0.7665927410125732
1761399201582913800,4.803913818359375,0.4583439826965332,-3.180304527282715,2.9541213512420654
1761399201603078700,4.82407861328125,-3.1886870861053467,-2.547548294067383,3.2550323009490967
1761399201623228200,4.844228271484375,-4.616479873657227,-1.9879674911499023,1.6840505599975586
1761399201643402000,4.864402099609375,-3.382486581802368,-2.263333320617676,-1.957322597503662
1761399201663563300,4.884563232421875,-3.5384509563446045,-1.3003501892089844,-2.948702335357666
1761399201683724300,4.904724365234375,-3.2793848514556885,-1.3783721923828125,-3.0910658836364746
1761399201703897600,4.924897705078125,-2.657794237136841,-1.5835685729980469,-0.7304806709289551
1761399201724035000,4.94503515625,-3.8160629272460938,-0.2907724380493164,0.9911437034606934
1761399201744196000,4.965196044921875,-5.051875114440918,0.5617380142211914,2.074984073638916
1761399201764370400,4.985370361328125,-4.643157005310059,1.2749414443969727,2.930527925491333
1761399201784527600,5.005527587890625,-3.20997953414917,1.7016563415527344,3.141531229019165
1761399201804692500,5.0256923828125,-2.465959072113037,1.60858154296875,2.7186319828033447
1761399201824861200,5.045861083984375,-2.6568920612335205,0.8395757675170898,3.1899662017822266
1761399201845006800,5.0660068359375,-2.44272518157959,1.1893396377563477,3.634000301361084
1761399201865177300,5.08617724609375,-1.7822299003601074,1.9538569450378418,4.58720064163208
1761399201885338600,5.106338623046875,-1.2477695941925049,2.12699556350708,4.505210876464844
1761399201905488000,5.12648779296875,-0.5246171951293945,1.538282871246338,3.5829391479492188
1761399201925646300,5.146646240234375,0.24851465225219727,0.49077510833740234,2.3021059036254883
1761399201945823200,5.1668232421875,0.2516014575958252,-1.0543551445007324,0.23247289657592773
1761399201965967400,5.18696728515625,0.5634677410125732,-3.671710968017578,-2.7174973487854004
1761399201986145500,5.2071455078125,0.6214714050292969,-4.685722351074219,-4.494043827056885
1761399202006307300,5.227307373046875,-0.10069966316223145,-1.6285686492919922,-3.547661304473877
1761399202026468900,5.24746875,-1.42021906375885,1.3890156745910645,-1.0645098686218262
1761399202046630400,5.26763037109375,-1.5491514205932617,-0.02330493927001953,1.002591848373413
1761399202066793000,5.28779296875,-3.6947851181030273,-5.989306449890137,0.051033973693847656
1761399202086944000,5.307944091796875,-0.29690706729888916,-3.6060476303100586,1.586454153060913
1761399202107114200,5.3281142578125,0.6072871685028076,1.608767032623291,3.6539011001586914
1761399202127263500,5.348263427734375,-2.5336999893188477,2.2036094665527344,3.630155324935913
1761399202147424500,5.368424560546875,-3.397825002670288,-1.7852420806884766,1.8220009803771973
1761399202167599400,5.388599365234375,-4.550041198730469,-3.3391284942626953,-0.506136417388916
1761399202187760600,5.4087607421875,-2.43019700050354,-1.045414924621582,-0.9023873805999756
1761399202207919900,5.428919921875,-1.2883318662643433,0.3529520034790039,-0.43696045875549316
1761399202228081200,5.4490810546875,-0.9901784658432007,0.18914508819580078,1.3154735565185547
1761399202248244200,5.469244140625,-0.9820604920387268,-0.31228065490722656,1.8725507259368896
1761399202268406300,5.48940625,-0.6467703580856323,0.22575664520263672,1.935349702835083
1761399202288565500,5.5095654296875,-0.4896988868713379,0.8179178237915039,1.758919596672058
1761399202308709000,5.529709228515625,-1.035735845565796,0.9832868576049805,0.9452464580535889
1761399202328877300,5.549877197265625,-0.8833981156349182,0.7806863784790039,-0.6426498889923096
1761399202349051100,5.570051025390625,0.027671337127685547,0.6817007064819336,-1.016956090927124
1761399202369212700,5.590212646484375,0.5100885033607483,1.3231887817382812,-0.55161452293396
1761399202389374700,5.610374755859375,-0.2690185308456421,1.406628131866455,-0.5157909393310547
1761399202409534200,5.6305341796875,-0.3386937081813812,1.1440668106079102,-1.3389296531677246
1761399202429696300,5.6506962890625,0.02766886167228222,1.1242942810058594,-2.008594512939453
1761399202449846300,5.67084619140625,-0.2423013150691986,0.8707637786865234,-2.245374917984009
1761399202470005500,5.691005615234375,0.04526662826538086,0.24864864349365234,-0.20908737182617188
1761399202490181600,5.711181640625,-0.3103516697883606,-2.380847930908203,-0.7874653339385986
1761399202510343200,5.73134326171875,0.3690280318260193,-1.4973077774047852,-1.200693130493164
1761399202530504000,5.75150390625,-0.21486330032348633,-1.1424827575683594,-3.474456548690796
1761399202550662100,5.771662109375,0.013529360294342041,-0.6927042007446289,-4.3439812660217285
1761399202570827500,5.79182763671875,0.15176838636398315,-1.2949495315551758,-4.1583709716796875
1761399202590977500,5.8119775390625,0.33863121271133423,-1.9213342666625977,-4.650638580322266
1761399202611148300,5.832148193359375,-0.9240338802337646,-0.9249505996704102,-4.90633487701416
1761399202631312000,5.852311767578125,0.5499595403671265,-1.8489665985107422,-3.319485664367676
1761399202651447600,5.872447509765625,0.3742693364620209,-1.9107379913330078,0.27069950103759766
1761399202671630800,5.892630859375,1.3332489728927612,-3.4609737396240234,3.127603054046631
1761399202691795700,5.912795654296875,0.27713239192962646,-4.4129638671875,5.333538055419922
1761399202711932400,5.932932373046875,-2.474087715148926,-2.9539575576782227,6.053510665893555
1761399202732118300,5.9531181640625,-2.003631353378296,-1.959829330444336,4.774389266967773
1761399202752280000,5.973280029296875,-0.8366501331329346,-2.1530494689941406,2.557211399078369
1761399202772441300,5.99344140625,-1.3827128410339355,-1.7809457778930664,1.3445637226104736
1761399202792603100,6.01360302734375,-1.8114628791809082,-0.9636573791503906,1.3177495002746582
1761399202812764200,6.03376416015625,-1.8386876583099365,-0.587677001953125,1.9195036888122559
1761399202832900600,6.053900634765625,-2.1840193271636963,-0.3615436553955078,2.9116716384887695
1761399202853082000,6.07408203125,-2.3739118576049805,-0.18440532684326172,3.6509809494018555
1761399202873236700,6.09423681640625,-2.5698609352111816,0.4443693161010742,3.8723561763763428
1761399202893410600,6.11441064453125,-2.5734848976135254,1.3474249839782715,4.358582019805908
1761399202913561600,6.1345615234375,-2.304567575454712,2.0996203422546387,4.841861724853516
1761399202933731300,6.1547314453125,-1.8359506130218506,2.3183107376098633,5.143625259399414
1761399202953894700,6.174894775390625,-1.541177749633789,2.4469099044799805,5.018178939819336
1761399202974046000,6.1950458984375,-1.365757703781128,2.42857027053833,4.73978328704834
1761399202994217000,6.215217041015625,-0.9185888767242432,2.6004128456115723,4.207548141479492
1761399203014378800,6.235378662109375,-0.3324165344238281,2.419260025024414,2.92612624168396
1761399203034538200,6.255538330078125,1.3432605266571045,0.9061031341552734,0.8480443954467773
1761399203054699000,6.275698974609375,4.154918670654297,-1.7115106582641602,-1.7078680992126465
1761399203074862600,6.295862548828125,4.650705337524414,-5.723647117614746,-5.343697547912598
1761399203095019800,6.316019775390625,4.297610759735107,-6.649667739868164,-6.264404296875
1761399203115183600,6.33618359375,3.2054128646850586,-2.7032289505004883,-3.087770938873291
1761399203135340800,6.3563408203125,3.2223408222198486,2.595581531524658,-0.29631948471069336
1761399203155508700,6.3765087890625,3.3082070350646973,6.9775004386901855,1.3848745822906494
1761399203175666700,6.396666748046875,1.1371920108795166,0.07814311981201172,2.4034929275512695
1761399203195829500,6.41682958984375,-0.7747690677642822,-10.356096267700195,2.787872076034546
1761399203215992800,6.436992919921875,-2.3819990158081055,-7.555159568786621,1.5899443626403809
1761399203236154400,6.457154296875,-0.9616838693618774,0.18965625762939453,2.267011880874634
1761399203256316000,6.47731591796875,-3.491816997528076,3.744560718536377,3.6816983222961426
1761399203276478000,6.49747802734375,-3.944117546081543,2.1042613983154297,6.14244270324707
1761399203296638500,6.517638427734375,-3.9728970527648926,-0.5609798431396484,5.114792346954346
1761399203316787200,6.537787109375,-4.530648708343506,-5.320598602294922,0.9920647144317627
1761399203336950300,6.5579501953125,-2.553373336791992,-2.1654481887817383,-0.30872368812561035
1761399203357122800,6.578122802734375,-0.6916654109954834,0.017653465270996094,-0.9954104423522949
1761399203377282300,6.5982822265625,0.20438674092292786,-0.28795719146728516,0.6917548179626465
1761399203397420500,6.618420654296875,0.28537166118621826,-0.4261512756347656,2.231153726577759
1761399203417583900,6.638583984375,-0.24336238205432892,-0.037047386169433594,2.2779221534729004
1761399203437737700,6.65873779296875,-0.7722641229629517,0.7157669067382812,1.4640215635299683
1761399203457902000,6.678902099609375,-0.9225770831108093,1.080704689025879,0.005125522613525391
1761399203478075100,6.6990751953125,-0.9571355581283569,1.0421371459960938,-1.1399590969085693
1761399203498252800,6.719252685546875,-0.37794533371925354,1.1115856170654297,-1.9189939498901367
1761399203518414600,6.73941455078125,0.6261372566223145,1.6023130416870117,-2.1744117736816406
1761399203538575600,6.75957568359375,1.472215175628662,1.6581101417541504,-2.2757949829101562
1761399203558737000,6.77973681640625,1.5446741580963135,0.9737911224365234,-1.9388082027435303
1761399203578898200,6.799898193359375,1.1075613498687744,0.4969959259033203,-1.501145839691162
1761399203599059500,6.8200595703125,0.7741179466247559,0.2726926803588867,-0.8226959705352783
1761399203619221000,6.840220947265625,0.8022761940956116,0.6197280883789062,-0.19957327842712402
1761399203639379500,6.86037939453125,0.7421771287918091,0.29929351806640625,-1.01619291305542
1761399203659532000,6.880531982421875,0.3936351537704468,0.4492511749267578,-2.878424644470215
1761399203679692000,6.900692138671875,0.5991525650024414,0.5154571533203125,-2.857975959777832
1761399203699863000,6.920863037109375,0.33777499198913574,-0.20415496826171875,-1.776184320449829
1761399203720026000,6.941026123046875,0.018785476684570312,-0.8952093124389648,-2.3306663036346436
1761399203740190200,6.961190185546875,0.9767827987670898,-0.724970817565918,-2.24416446685791
1761399203760347100,6.98134716796875,0.5932897925376892,-0.6035318374633789,-1.7189950942993164
1761399203780512800,7.0015126953125,0.6917711496353149,-1.4361953735351562,-3.9676737785339355
1761399203800674000,7.021674072265625,0.39991289377212524,-1.2014942169189453,-4.841542720794678
1761399203820835300,7.04183544921875,1.634926676750183,-2.4119062423706055,-3.10369610786438
1761399203840996900,7.061996826171875,1.9937458038330078,-1.7177553176879883,0.8036127090454102
1761399203861158400,7.082158447265625,1.4752675294876099,-2.653254508972168,3.0997040271759033
1761399203881319400,7.1023193359375,-0.3402300179004669,-4.062958717346191,4.703088760375977
1761399203901480200,7.122480224609375,-1.4103453159332275,-3.4725704193115234,4.286433219909668
1761399203921642500,7.142642578125,-1.4276021718978882,-1.9404573440551758,2.3031532764434814
1761399203941805600,7.1628056640625,-0.8215141296386719,-2.431857109069824,0.7067351341247559
1761399203961963300,7.18296337890625,-1.4955165386199951,-2.365337371826172,0.4273667335510254
1761399203982127000,7.203127197265625,-1.5734288692474365,-0.9472923278808594,0.5960242748260498
1761399204002288600,7.22328857421875,-1.285946249961853,0.19535446166992188,1.0881233215332031
1761399204022447900,7.24344775390625,-2.9296863079071045,0.7035951614379883,2.0805790424346924
1761399204042583800,7.263583740234375,-3.2976937294006348,0.8074140548706055,3.1395983695983887
1761399204062772500,7.2837724609375,-2.6945080757141113,0.722081184387207,3.601015090942383
1761399204082919700,7.303919677734375,-1.651254653930664,0.7807445526123047,3.5658795833587646
1761399204103095000,7.324094970703125,-1.9062138795852661,0.6058025360107422,4.871460437774658
1761399204123243800,7.344243896484375,-2.4538488388061523,1.6953701972961426,5.221541404724121
1761399204143417900,7.36441796875,-2.6707763671875,2.80385684967041,5.160750865936279
1761399204163579600,7.38457958984375,-2.1985716819763184,3.549654006958008,4.966299057006836
1761399204183728000,7.40472802734375,-1.6371597051620483,3.3918800354003906,4.335775375366211
1761399204203890200,7.42489013671875,-0.866072416305542,2.7193193435668945,3.282442331314087
1761399204224063500,7.4450634765625,0.5437870025634766,1.2475757598876953,1.1513166427612305
1761399204244238000,7.465238037109375,3.3651959896087646,-1.7519731521606445,-2.147911548614502
1761399204264386800,7.48538671875,4.221580505371094,-7.025617599487305,-7.046508312225342
1761399204284543700,7.505543701171875,4.6446332931518555,-6.811612129211426,-8.206136703491211
1761399204304710000,7.5257099609375,2.683034658432007,-1.8387823104858398,-3.138486385345459
1761399204324871200,7.54587109375,2.694899559020996,1.6725149154663086,0.13257455825805664
1761399204345030400,7.566030517578125,2.831491708755493,3.894619941711426,2.5159034729003906
1761399204365181000,7.586180908203125,1.5080022811889648,-0.9228782653808594,2.524784564971924
1761399204385356000,7.60635595703125,0.5887718200683594,-5.469944953918457,3.1066887378692627
1761399204405514500,7.626514404296875,-2.2185468673706055,-5.87144660949707,1.885859489440918
1761399204425665500,7.64666552734375,-3.209730386734009,-0.26342105865478516,1.0840485095977783
1761399204445826800,7.666826904296875,-2.955782413482666,2.1666460037231445,3.9461488723754883
1761399204465988400,7.68698828125,-3.1917014122009277,0.9381046295166016,6.3512678146362305
1761399204486162200,7.707162109375,-2.7649459838867188,-0.37732982635498047,6.623376846313477
1761399204506323500,7.727323486328125,-5.019866943359375,-4.719943046569824,1.218876838684082
1761399204526483000,7.74748291015625,-3.5666918754577637,-4.398832321166992,-0.8662562370300293
1761399204546645800,7.767645751953125,-1.7155358791351318,-0.5121898651123047,-0.08294486999511719
1761399204566793700,7.787793701171875,-0.3848193883895874,-0.005661964416503906,1.32948637008667
1761399204586969000,7.807968994140625,-0.9340885877609253,-0.4438199996948242,2.961215019226074
1761399204607119400,7.828119384765625,-1.602399230003357,-0.4208984375,2.6813466548919678
1761399204627279600,7.848279541015625,-2.221616744995117,0.6272869110107422,1.2671186923980713
1761399204647453700,7.86845361328125,-2.721928596496582,1.1813678741455078,-0.636695384979248
1761399204667615200,7.888615234375,-2.1103739738464355,0.8844633102416992,-1.9318969249725342
1761399204687776500,7.908776611328125,0.5400649309158325,0.4710245132446289,-1.9957499504089355
1761399204707938000,7.92893798828125,1.5598000288009644,0.3750619888305664,-0.7285480499267578
1761399204728099000,7.94909912109375,1.3700202703475952,-0.008702278137207031,-0.826362133026123
1761399204748260600,7.969260498046875,1.6062532663345337,0.8682050704956055,-0.7083156108856201
1761399204768409300,7.989409423828125,0.8883281946182251,1.323995590209961,-1.037978172302246
1761399204788581600,8.00958154296875,0.7377952337265015,1.369377613067627,-0.787452220916748
1761399204808744700,8.02974462890625,1.2271130084991455,0.9178924560546875,-0.10282087326049805
1761399204828893700,8.049893798828125,1.1602237224578857,0.03135490417480469,-0.3150980472564697
1761399204849065700,8.070065673828125,0.2295864224433899,0.43451690673828125,-0.4977998733520508
1761399204869229000,8.09022900390625,-0.21037757396697998,0.5734272003173828,0.34955835342407227
1761399204889390600,8.110390625,0.9246205687522888,-0.039961814880371094,1.2770123481750488
1761399204909527600,8.130527587890626,2.0210583209991455,-0.5676584243774414,1.2095816135406494
1761399204929712000,8.150712158203126,1.5794122219085693,-0.423095703125,-0.7670156955718994
1761399204949875200,8.170875244140625,0.05067408084869385,0.6475467681884766,-2.64021897315979
1761399204970023000,8.19102294921875,-0.5271830558776855,1.0124082565307617,-3.7270820140838623
1761399204990185000,8.21118505859375,-0.211090087890625,0.6910104751586914,-3.9493513107299805
1761399205010359300,8.231359375,0.3251838684082031,0.3267383575439453,-3.9594411849975586
1761399205030507500,8.251507568359376,-0.3862789273262024,-0.48128509521484375,-4.477015495300293
1761399205050682000,8.27168212890625,-1.0708467960357666,-1.4816207885742188,-5.253068923950195
1761399205070843100,8.291843017578126,-1.2498964071273804,-2.4552574157714844,-4.40457010269165
1761399205090983400,8.3119833984375,2.005664825439453,-5.561559677124023,1.5123647451400757
1761399205111164200,8.3321640625,2.618682384490967,-4.509762763977051,4.761092185974121
1761399205131292400,8.35229248046875,1.5132441520690918,-4.049469947814941,4.991742134094238
1761399205151473000,8.372472900390624,-0.6317464113235474,-2.4523839950561523,4.924829006195068
1761399205171640600,8.392640625,-1.4745140075683594,-0.32346343994140625,3.867748737335205
1761399205191801000,8.412801025390625,-0.31050580739974976,-1.033681869506836,2.9684653282165527
1761399205211973000,8.43297314453125,0.10487687587738037,-1.717926025390625,1.9713550806045532
1761399205232134700,8.453134765625,-1.2885898351669312,-0.6600456237792969,1.3724446296691895
1761399205252296000,8.4732958984375,-2.033050537109375,-0.007857322692871094,1.3040375709533691
1761399205272457200,8.493457275390625,-1.6959425210952759,-0.24767589569091797,1.309025526046753
1761399205292618800,8.51361865234375,-1.956944227218628,-0.6721601486206055,2.1212973594665527
1761399205312780800,8.53378076171875,-1.4415132999420166,-0.49959754943847656,2.3901596069335938
1761399205332942000,8.553942138671875,-0.7746597528457642,0.29886913299560547,2.231156349182129
1761399205353102800,8.574102783203125,-0.7437443733215332,1.3499250411987305,3.0677528381347656
1761399205373254100,8.594254150390626,-0.8196852207183838,2.483649730682373,3.863300085067749
1761399205393425700,8.61442578125,-0.9793989658355713,2.96835994720459,4.239545822143555
1761399205413587700,8.634587646484375,-1.5104202032089233,3.213592529296875,3.5760200023651123
1761399205433724000,8.654723876953126,-1.8363475799560547,3.078993320465088,2.512856960296631
1761399205453910000,8.674909912109374,-1.6618791818618774,3.3871521949768066,1.8262603282928467
1761399205474058800,8.695058837890626,-1.2873271703720093,3.3029232025146484,0.7479872703552246
1761399205494230500,8.71523046875,-0.47483956813812256,2.3600683212280273,-0.5502603054046631
1761399205514394600,8.73539453125,1.3047287464141846,0.8485879898071289,-2.276233673095703
1761399205534554000,8.75555419921875,3.4626595973968506,-0.7213001251220703,-4.499258041381836
1761399205554715100,8.775715087890624,4.32557487487793,-3.4617691040039062,-6.715203285217285
1761399205574882800,8.7958828125,3.832113265991211,-2.563143730163574,-5.526390075683594
1761399205595040000,8.8160400390625,4.371298313140869,-1.553731918334961,-3.4299323558807373
1761399205615199200,8.83619921875,5.2600860595703125,0.5303573608398438,-1.9816884994506836
1761399205635338200,8.856338134765625,3.5681896209716797,4.169075965881348,0.7383484840393066
1761399205655524600,8.876524658203126,2.3811140060424805,1.12322998046875,2.352822780609131
1761399205675683800,8.896683837890626,1.9741203784942627,-7.373827934265137,2.8049750328063965
1761399205695847200,8.91684716796875,0.647748589515686,-8.685534477233887,2.798737049102783
1761399205716008400,8.937008544921875,-3.0297982692718506,0.5961122512817383,1.1733152866363525
1761399205736170200,8.957170166015626,-2.865738868713379,4.417287826538086,2.6820621490478516
1761399205756331300,8.977331298828124,-3.6845221519470215,2.299142360687256,3.7978200912475586
1761399205776492800,8.997492919921875,-2.6743342876434326,-0.6109704971313477,4.765651226043701
1761399205796641500,9.0176416015625,-4.0603437423706055,-2.8764801025390625,1.920628309249878
1761399205816815900,9.03781591796875,-3.3523263931274414,-2.1170482635498047,-0.2872023582458496
1761399205836970000,9.057969970703125,-1.608519196510315,-0.48354434967041016,-1.0802595615386963
1761399205857138700,9.078138671875,-0.037965815514326096,-0.260406494140625,-0.3975069522857666
1761399205877298000,9.0982978515625,0.5601150989532471,-0.25063228607177734,1.6796784400939941
1761399205897461500,9.11846142578125,-0.5425558686256409,-0.08714675903320312,2.5072312355041504
1761399205917632300,9.13863232421875,-1.2955572605133057,0.18570518493652344,1.825445532798767
1761399205937771800,9.158771728515624,-1.5820221900939941,0.9359312057495117,0.19469189643859863
1761399205957945900,9.17894580078125,-2.054617166519165,1.1571931838989258,-1.3119573593139648
1761399205978094300,9.19909423828125,-1.2584342956542969,1.044661521911621,-1.9085643291473389
1761399205998244000,9.219244140625,0.23830300569534302,1.0480804443359375,-2.3744354248046875
1761399206018417700,9.239417724609375,0.9412550926208496,0.4506063461303711,-2.5481953620910645
1761399206038591500,9.259591552734374,2.0513384342193604,-0.32341575622558594,-1.8859379291534424
1761399206058740200,9.279740234375,1.7549200057983398,-0.10532760620117188,-1.0724091529846191
1761399206078902800,9.29990283203125,1.024634599685669,0.26496124267578125,-1.0424022674560547
1761399206099075600,9.32007568359375,1.3414692878723145,0.6592864990234375,-1.221938133239746
1761399206119227600,9.3402275390625,1.69241201877594,1.1061668395996094,-1.2596938610076904
1761399206139386400,9.360386474609374,1.5333129167556763,0.7061338424682617,-1.7233383655548096
1761399206159559000,9.380558837890625,1.0063197612762451,0.8156232833862305,-1.5592443943023682
1761399206179709000,9.400708984375,1.0871057510375977,0.14946937561035156,-1.0859248638153076
1761399206199879000,9.42087890625,1.4922548532485962,-0.9864826202392578,-0.42281198501586914
1761399206220044000,9.4410439453125,1.236560344696045,-0.6587295532226562,-0.3998246192932129
1761399206240205800,9.461205810546875,1.3158366680145264,-0.27965259552001953,-0.8567464351654053
1761399206260362800,9.48136279296875,1.5185482501983643,-0.2969207763671875,-1.135509729385376
1761399206280528400,9.5015283203125,0.6217285394668579,-1.7143869400024414,-2.9302005767822266
1761399206300689700,9.521689697265625,1.0666098594665527,-1.1864652633666992,-4.5841193199157715
1761399206320849000,9.541848876953125,-0.10303080081939697,-1.4360179901123047,-5.810833930969238
1761399206341013000,9.562012939453124,0.6620123982429504,-2.280895233154297,-4.213199615478516
1761399206361173800,9.582173828125,1.44413423538208,-1.9694747924804688,0.15419507026672363
1761399206381322800,9.60232275390625,2.129643678665161,-2.1326093673706055,2.7783143520355225
1761399206401484800,9.62248486328125,0.5185450315475464,-3.4552974700927734,4.694768905639648
1761399206421658400,9.642658447265624,-1.7436802387237549,-2.0155019760131836,4.175226211547852
1761399206441820000,9.66281982421875,-2.613997459411621,-0.06053638458251953,1.442528247833252
1761399206461981200,9.682981201171875,-1.108392357826233,-0.8796987533569336,-1.2167670726776123
1761399206482142700,9.703142822265624,-1.3267189264297485,-1.4597110748291016,-1.3856425285339355
1761399206502291000,9.723291015625,-1.1423065662384033,-1.5138521194458008,-0.3302803039550781
1761399206522448000,9.74344775390625,-1.3286319971084595,-1.0873022079467773,1.0346786975860596
1761399206542626600,9.76362646484375,-2.454376220703125,-0.08598899841308594,1.9182953834533691
1761399206562767000,9.78376708984375,-2.4278836250305176,0.6312975883483887,2.231327772140503
1761399206582947800,9.80394775390625,-1.9871279001235962,0.7373781204223633,1.9770474433898926
1761399206603111000,9.82411083984375,-1.6741256713867188,0.4029994010925293,1.5691609382629395
1761399206623272200,9.844272216796876,-1.9049373865127563,0.8928918838500977,1.69980788230896
1761399206643432000,9.864431884765626,-2.119622230529785,2.2722396850585938,1.9875879287719727
1761399206663561500,9.8845615234375,-1.9955229759216309,3.777691125869751,2.5985686779022217
1761399206683731500,9.9047314453125,-1.6817715167999268,4.1184258460998535,2.3699240684509277
1761399206703881200,9.924881103515625,-1.1077094078063965,3.35799503326416,1.3717498779296875
1761399206724063500,9.9450634765625,0.03218650817871094,2.8191518783569336,0.41704750061035156
1761399206744232400,9.965232421875,1.1512160301208496,2.3064746856689453,-0.7752828598022461
1761399206764376800,9.985376953125,1.5153419971466064,1.440011978149414,-2.039867401123047
1761399206784561700,10.005561767578126,1.7559335231781006,-0.5072803497314453,-3.1172122955322266
1761399206804722000,10.025721923828126,2.211296319961548,-2.498774528503418,-2.557955265045166
1761399206824886500,10.045886474609375,2.1010189056396484,-2.514725685119629,-1.3093886375427246
1761399206845046000,10.0660458984375,0.9663486480712891,-2.0075559616088867,0.5717380046844482
1761399206865209300,10.086209228515624,-0.9355819225311279,0.3029356002807617,2.259608030319214
1761399206885370600,10.10637060546875,0.13334059715270996,4.618612289428711,3.1834347248077393
1761399206905537800,10.126537841796875,0.9390816688537598,1.2759394645690918,3.7191030979156494
1761399206925689300,10.146689453125,1.8964207172393799,-12.41615104675293,-1.0048422813415527
1761399206945842700,10.1668427734375,-1.8389599323272705,-15.683064460754395,-4.338502883911133
1761399206966016300,10.187016357421875,-3.4959664344787598,1.519012451171875,-2.023228883743286
1761399206986177500,10.207177490234375,-6.776078701019287,5.929986953735352,0.9415342807769775
1761399207006339300,10.22733935546875,-6.918838024139404,4.610288619995117,1.7616829872131348
1761399207026493400,10.247493408203125,-5.127255439758301,0.9550800323486328,0.7399137020111084
1761399207046644700,10.267644775390625,-2.937105655670166,-3.412017822265625,-2.6128807067871094
1761399207066823700,10.28782373046875,-2.5952329635620117,-2.461493492126465,-2.428495168685913
1761399207086982400,10.307982421875,-2.204594135284424,0.40320491790771484,0.27571773529052734
1761399207107146200,10.328146240234375,-1.2563167810440063,0.7453470230102539,2.3502793312072754
1761399207127296000,10.3482958984375,-0.8082009553909302,-0.38671302795410156,1.9235591888427734
1761399207147446300,10.3684462890625,-0.886091947555542,-0.754633903503418,0.9556124210357666
1761399207167617800,10.38861767578125,-0.5986080169677734,-0.007595062255859375,-0.10608959197998047
1761399207187774500,10.4087744140625,-0.5335284471511841,1.3283205032348633,-0.4147636890411377
1761399207207953000,10.428952880859375,-1.2154879570007324,1.621960163116455,-0.560244083404541
1761399207228114700,10.44911474609375,-1.8570046424865723,1.2988719940185547,-1.1212916374206543
1761399207248276200,10.469276123046875,-1.4973747730255127,1.3031349182128906,-2.010274648666382
1761399207268437200,10.489437255859375,-0.6201530694961548,0.980860710144043,-1.9946072101593018
1761399207288593700,10.50959375,-0.34366458654403687,0.2201080322265625,-1.2232270240783691
1761399207308749600,10.52974951171875,-0.5743439197540283,0.23044872283935547,-0.6599023342132568
1761399207328896800,10.549896728515625,-1.0198479890823364,0.6537113189697266,-1.0271308422088623
1761399207349081300,10.570081298828125,-0.6924855709075928,0.29692745208740234,-1.1532940864562988
1761399207369244700,10.59024462890625,-0.7632441520690918,-0.6496419906616211,-0.5257959365844727
1761399207389406200,10.61040625,-0.7186169028282166,-0.7580604553222656,-0.17270731925964355
1761399207409563400,10.6305634765625,-0.900132954120636,-0.19964599609375,-1.9614202976226807
1761399207429719800,10.6507197265625,-0.5075291395187378,0.12310123443603516,-2.9050283432006836
1761399207449878500,10.67087841796875,0.764920711517334,-0.2044229507446289,-2.3634092807769775
1761399207470051300,10.69105126953125,0.16842371225357056,0.0884714126586914,-1.743053913116455
1761399207490212900,10.711212890625,-0.4630168080329895,0.25754737854003906,-1.8219444751739502
1761399207510364000,10.731364013671875,-1.2482472658157349,0.3582744598388672,-2.878624677658081
1761399207530523400,10.7515234375,-1.8404449224472046,-0.16746044158935547,-3.9847280979156494
1761399207550677200,10.77167724609375,-1.4445044994354248,-0.7806253433227539,-4.287677764892578
1761399207570858800,10.791858642578125,-0.619308590888977,-1.6528911590576172,-3.4844298362731934
1761399207591007500,10.812007568359375,0.14552819728851318,-2.6018171310424805,-1.0375094413757324
1761399207611181300,10.832181396484375,-0.007489442825317383,-2.948820114135742,0.7342851161956787
1761399207631343000,10.852343017578125,-1.6536352634429932,-2.6906261444091797,0.8847841024398804
1761399207651494100,10.872494140625,-4.470986843109131,-1.9792919158935547,0.3468160629272461
1761399207671664400,10.892664306640626,-5.4903059005737305,-0.9781627655029297,-1.4440701007843018
1761399207691827200,10.9128271484375,-3.82287859916687,-0.7931108474731445,-2.9381909370422363
1761399207711976200,10.93297607421875,-3.7896342277526855,-0.9554386138916016,-3.5441157817840576
1761399207732148200,10.953148193359375,-4.488166332244873,-0.7359619140625,-4.780176162719727
1761399207752289300,10.973289306640625,-4.772487163543701,-0.9875402450561523,-3.888859987258911
1761399207772473000,10.99347314453125,-4.748701095581055,-0.6318302154541016,-1.0956196784973145
1761399207792616400,11.013616455078125,-4.637446880340576,-0.3440876007080078,0.26590967178344727
1761399207812782300,11.0337822265625,-4.022069931030273,-0.6252837181091309,0.9199259281158447
1761399207832957200,11.053957275390625,-3.9821066856384277,-1.4163341522216797,1.1665549278259277
1761399207853118500,11.074118408203125,-4.451596736907959,-1.4926552772521973,0.04150533676147461
1761399207873280500,11.094280517578126,-2.989990472793579,-0.6611461639404297,-0.20399045944213867
1761399207893441000,11.11444091796875,-1.9835145473480225,0.6427168846130371,0.1193995475769043
1761399207913602300,11.134602294921875,-1.9710891246795654,1.1714043617248535,0.9544639587402344
1761399207933764400,11.154764404296875,-2.32965350151062,0.7801170349121094,1.7814311981201172
1761399207953925000,11.174925048828126,-2.1916842460632324,-0.21320009231567383,1.1892728805541992
1761399207974087000,11.1950869140625,-2.0178608894348145,-0.9431447982788086,0.456756591796875
1761399207994232000,11.215232177734375,-1.8867902755737305,-0.7748398780822754,1.6596522331237793
1761399208014409700,11.23540966796875,-1.0829508304595947,0.9537501335144043,2.6222870349884033
1761399208034569200,11.2555693359375,-0.33045172691345215,2.0119986534118652,3.659824848175049
1761399208054722800,11.275722900390624,0.15263867378234863,1.4696063995361328,3.039076805114746
1761399208074894000,11.29589404296875,0.3528304100036621,0.8015165328979492,1.3253860473632812
1761399208095055600,11.3160556640625,0.3094780445098877,0.46474266052246094,-0.9577531814575195
1761399208115215000,11.336215087890626,-0.5130398273468018,0.6792879104614258,-2.734130382537842
1761399208135358500,11.3563583984375,-1.6740614175796509,1.1221132278442383,-3.301393508911133
1761399208155539500,11.37653955078125,-2.444190263748169,1.8016672134399414,-2.32002592086792
1761399208175690000,11.39668994140625,-2.1517109870910645,1.8978338241577148,-0.8525805473327637
1761399208195862300,11.4168623046875,-0.906282901763916,0.9553318023681641,0.2806363105773926
1761399208216023600,11.4370234375,0.7643039226531982,-1.7856340408325195,1.2717640399932861
1761399208236183600,11.45718359375,-1.0195435285568237,-14.775777816772461,-1.2645697593688965
1761399208256347000,11.477346923828126,2.950587272644043,-13.213568687438965,-1.2515854835510254
1761399208276508200,11.497508056640624,2.056525707244873,0.279388427734375,1.9707765579223633
1761399208296658200,11.517658203125,-2.2063727378845215,6.028952598571777,3.48075532913208
1761399208316831000,11.5378310546875,-5.003714561462402,8.285168647766113,5.2247748374938965
1761399208336992300,11.5579921875,-6.187197208404541,2.26564884185791,4.62130069732666
1761399208357153500,11.578153564453125,-4.777324676513672,-5.399316787719727,2.3875532150268555
1761399208377315600,11.598315673828125,-1.9638367891311646,-6.550086975097656,-2.4144163131713867
1761399208397476600,11.6184765625,-0.13722050189971924,-0.6006336212158203,-0.7706809043884277
1761399208417638100,11.63863818359375,-1.0294133424758911,1.0027785301208496,2.2407734394073486
1761399208437791700,11.658791748046875,-1.0626475811004639,0.4006624221801758,3.516735553741455
1761399208457960700,11.678960693359375,-1.3346233367919922,-0.053763389587402344,2.871316432952881
1761399208478122200,11.699122314453126,-1.3733971118927002,-0.19570350646972656,1.4318556785583496
1761399208498281700,11.71928173828125,-0.6727937459945679,-0.5483970642089844,0.8669376373291016
1761399208518445000,11.739445068359375,-0.08693766593933105,-0.3647613525390625,1.1201424598693848
1761399208538611000,11.75961083984375,0.04514855146408081,0.2862377166748047,1.6551330089569092
1761399208558766000,11.77976611328125,-0.19715748727321625,0.47804737091064453,0.809694766998291
1761399208578929200,11.79992919921875,-0.4444235563278198,0.5469255447387695,0.23517942428588867
1761399208599090700,11.820090576171875,-0.8025134205818176,0.5132350921630859,-0.10747742652893066
1761399208619263000,11.840262939453124,-0.7609325647354126,0.41069602966308594,-0.07818913459777832
1761399208639413800,11.860413818359374,-0.2448989599943161,0.3354949951171875,-0.11997151374816895
1761399208659573000,11.880572998046874,-0.13582411408424377,0.3410158157348633,-0.5826210975646973
1761399208679722000,11.900721923828126,0.06328341364860535,0.5723714828491211,-0.9781250953674316
1761399208699897300,11.9208974609375,0.02240985631942749,0.30673885345458984,-1.4632539749145508
1761399208720059400,11.941059326171874,-0.4215512275695801,0.2342243194580078,-1.8960421085357666
1761399208740220700,11.961220703125,-0.17579901218414307,-0.02392292022705078,-1.7624127864837646
1761399208760377900,11.9813779296875,0.5509376525878906,-0.876917839050293,-2.831209659576416
1761399208780543700,12.001543701171874,1.6271873712539673,-0.8381681442260742,-2.773881196975708
1761399208800704800,12.021704833984375,0.13751131296157837,-1.955470085144043,-5.105778217315674
1761399208820863200,12.04186328125,-1.3171913623809814,-2.6597118377685547,-5.598608016967773
1761399208841027600,12.062027587890626,-0.05234837532043457,-2.422236442565918,-3.182119846343994
1761399208861185000,12.08218505859375,1.6619982719421387,-1.6730451583862305,0.0701456069946289
1761399208881348900,12.102348876953124,1.1872389316558838,-0.6280040740966797,1.671148419380188
1761399208901512000,12.122511962890625,-0.05360066890716553,-1.1783638000488281,2.1195685863494873
1761399208921671000,12.1426708984375,-1.1662590503692627,-1.9415388107299805,2.04945969581604
1761399208941809400,12.162809326171875,-1.3542400598526,-2.940096855163574,1.4013255834579468
1761399208961979100,12.182979248046875,-1.8303762674331665,-2.910019874572754,0.8887255191802979
1761399208982155300,12.2031552734375,-2.6221156120300293,-1.9809083938598633,0.7139673233032227
1761399209002301400,12.223301513671874,-3.454352617263794,-0.8837575912475586,0.8879730701446533
1761399209022480600,12.243480712890625,-3.051084041595459,-0.5915994644165039,0.907825231552124
1761399209042642000,12.263641845703125,-2.296971082687378,-0.7511262893676758,0.7420504093170166
1761399209062779400,12.283779296875,-1.7519352436065674,-1.0492000579833984,1.4662961959838867
1761399209082962200,12.303962158203126,-1.8408045768737793,-0.9963855743408203,2.126962661743164
1761399209103125500,12.32412548828125,-1.842376470565796,-0.5466527938842773,2.724419593811035
1761399209123287000,12.344287109375,-1.237349510192871,0.14756393432617188,3.627422332763672
1761399209143435800,12.364435791015625,-1.230993390083313,0.2076883316040039,4.567020416259766
1761399209163609900,12.38460986328125,-1.358817219734192,1.0215611457824707,3.3828821182250977
1761399209183771600,12.404771728515625,-1.351915955543518,1.2503070831298828,2.9981272220611572
1761399209203918800,12.4249189453125,-1.034199595451355,1.6297874450683594,2.9883155822753906
1761399209224094200,12.44509423828125,-0.3264446258544922,2.0611977577209473,3.7365522384643555
1761399209244255500,12.46525537109375,0.1778733730316162,2.599649429321289,3.970799446105957
1761399209264417300,12.485417236328125,0.3663513660430908,2.5483274459838867,3.439889430999756
1761399209284576300,12.505576171875,0.520179033279419,1.6259584426879883,1.9740138053894043
1761399209304727300,12.525727294921875,2.288724899291992,0.12329483032226562,-0.02349710464477539
1761399209324896000,12.54589599609375,3.416901111602783,-1.5398635864257812,-1.9568290710449219
1761399209345062400,12.5660625,2.896493434906006,-2.8979921340942383,-3.688096523284912
1761399209365201400,12.586201416015625,2.4224276542663574,-1.93280029296875,-1.9749317169189453
1761399209385385700,12.6063857421875,2.3801395893096924,0.5224294662475586,0.2232961654663086
1761399209405535000,12.626534912109374,2.2632293701171875,2.906999111175537,1.260106086730957
1761399209425708300,12.646708251953125,2.5405712127685547,1.3060293197631836,1.402045726776123
1761399209445870000,12.6668701171875,0.4640873670578003,-7.842648506164551,-1.2888078689575195
1761399209466031400,12.68703125,-1.4403398036956787,-11.250781059265137,-2.1613192558288574
1761399209486193000,12.70719287109375,-1.5035479068756104,-2.455681800842285,-1.024975299835205
1761399209506354000,12.72735400390625,-1.5308557748794556,4.74483585357666,3.3572661876678467
1761399209526515700,12.747515625,-3.264556646347046,5.614242076873779,5.785046577453613
1761399209546664400,12.76766455078125,-3.8473353385925293,2.039316177368164,4.889178276062012
1761399209566825500,12.787825439453124,-5.234264373779297,-4.177150726318359,1.241229772567749
1761399209587005200,12.808005126953125,-3.2630772590637207,-6.026010513305664,-1.4686808586120605
1761399209607160800,12.828160888671874,-1.102908968925476,-0.33571434020996094,0.11713123321533203
1761399209627322600,12.848322509765625,-0.3234955668449402,0.5437393188476562,1.659512996673584
1761399209647458600,12.86845849609375,-0.15078705549240112,-0.13969802856445312,3.182150363922119
1761399209667645000,12.88864501953125,-0.13936451077461243,-0.4253530502319336,3.0389058589935303
1761399209687794000,12.9087939453125,-0.05284714698791504,0.24727439880371094,2.0401124954223633
1761399209707967700,12.9289677734375,0.13987427949905396,1.0587530136108398,1.2984592914581299
1761399209728129500,12.949129638671875,-0.00836116075515747,1.0011415481567383,0.41992616653442383
1761399209748291000,12.969291015625,-0.32126468420028687,0.5427942276000977,-0.6862747669219971
1761399209768452000,12.9894521484375,-0.08087000250816345,0.7838602066040039,-1.0657119750976562
1761399209788600800,13.009600830078124,0.9004979729652405,0.9197654724121094,-1.167952537536621
1761399209808775000,13.02977490234375,1.2816686630249023,0.502070426940918,-1.2016723155975342
1761399209828934700,13.0499345703125,1.106965184211731,0.6402778625488281,-1.1326048374176025
1761399209849098200,13.07009814453125,0.5176374912261963,0.7584829330444336,-1.2327003479003906
1761399209869259300,13.09025927734375,-0.10741713643074036,0.4121665954589844,-0.6518459320068359
1761399209889420800,13.1104208984375,-0.07314395904541016,-0.22771549224853516,0.2347707748413086
1761399209909578000,13.130577880859375,0.40524888038635254,-0.6530332565307617,0.34058094024658203
1761399209929718300,13.15071826171875,0.6567361354827881,-0.40172576904296875,-0.586489200592041
1761399209949877500,13.17087744140625,1.1747422218322754,-0.39878082275390625,-1.1752915382385254
1761399209970029600,13.191029541015626,0.5594301819801331,-0.6409769058227539,-1.8805263042449951
1761399209990211800,13.2112119140625,0.4579005241394043,-0.7193899154663086,-2.1287968158721924
1761399210010380800,13.231380859375,1.799863576889038,-0.2616081237792969,-2.0940744876861572
1761399210030538000,13.2515380859375,1.703728199005127,0.5435323715209961,-2.8535408973693848
1761399210050712000,13.271712158203124,-0.9355478286743164,-0.13346290588378906,-5.374629020690918
1761399210070873300,13.291873291015625,-2.049783229827881,0.3120288848876953,-5.243972301483154
1761399210091035000,13.312034912109375,0.3003920316696167,-2.405946731567383,-2.710299015045166
1761399210111196200,13.332196044921876,1.0658186674118042,-5.902020454406738,1.055908441543579
1761399210131357700,13.352357666015624,-0.8766322135925293,-6.482098579406738,3.114262104034424
1761399210151519200,13.372519287109375,-3.335331678390503,-4.175563812255859,3.8394296169281006
1761399210171668000,13.39266796875,-3.8777754306793213,-2.176656723022461,1.8855266571044922
1761399210191841800,13.412841796875,-2.078727960586548,-1.8910932540893555,-0.9732398986816406
1761399210212003000,13.433003173828125,-2.8454551696777344,-1.1567163467407227,-1.9858498573303223
1761399210232147200,13.453147216796875,-3.0937252044677734,-1.6137986183166504,-1.415247917175293
1761399210252326000,13.473325927734376,-2.7497546672821045,-3.1691107749938965,1.0195417404174805
1761399210272487400,13.4934873046875,-3.2527785301208496,-3.5344676971435547,3.1888298988342285
1761399210292647200,13.513647216796874,-2.8082118034362793,-3.407776355743408,4.486064434051514
1761399210312797700,13.533797607421874,-2.227546453475952,-2.5357327461242676,4.0770745277404785
1761399210332971800,13.5539716796875,-1.500722885131836,-0.9533500671386719,3.6468138694763184
1761399210353133300,13.57413330078125,-2.9971823692321777,-0.060103416442871094,3.207690715789795
1761399210373294800,13.594294921875,-2.812169075012207,0.36544084548950195,2.9705629348754883
1761399210393455900,13.614455810546875,-2.8185319900512695,0.5387444496154785,3.1227667331695557
1761399210413604600,13.6346044921875,-2.5474019050598145,0.21791505813598633,2.934705972671509
1761399210433779000,13.654779052734375,-3.4513673782348633,1.3780956268310547,3.9869837760925293
1761399210453918200,13.674918212890624,-3.875774621963501,2.4334394931793213,4.626196384429932
1761399210474101500,13.6951015625,-3.5071794986724854,2.7534406185150146,4.627740383148193
1761399210494250000,13.71525,-3.565192699432373,2.6853690147399902,4.108512878417969
1761399210514411800,13.735411865234376,-3.2373337745666504,2.4912362098693848,3.402433395385742
1761399210534583600,13.75558349609375,-2.402510166168213,2.150909900665283,2.393794059753418
1761399210554745600,13.77574560546875,-0.9934203624725342,1.704660415649414,1.0193724632263184
1761399210574908400,13.795908447265624,0.6484482288360596,0.8885250091552734,-0.5315232276916504
1761399210595053800,13.8160537109375,1.6555397510528564,-2.091559886932373,-3.053778648376465
1761399210615229200,13.836229248046875,1.0510468482971191,-7.425340175628662,-5.82395601272583
1761399210635381800,13.8563818359375,2.8844876289367676,-7.771303176879883,-4.495733261108398
1761399210655554000,13.876553955078125,4.058049201965332,-1.7717609405517578,-0.30297327041625977
1761399210675690500,13.8966904296875,1.4537498950958252,-2.5221118927001953,1.4764690399169922
1761399210695877000,13.916877197265626,1.0304269790649414,-7.040921211242676,2.560929298400879
1761399210716038400,13.937038330078124,-1.3924837112426758,-6.375187873840332,1.4653851985931396
1761399210736187400,13.9571875,-2.8439056873321533,-2.447294235229492,-1.6581683158874512
1761399210756361200,13.977361328125,-3.9022717475891113,1.1026244163513184,-1.334488868713379
1761399210776522500,13.9975224609375,-4.847789287567139,1.9351320266723633,0.21128320693969727
1761399210796682000,14.017681884765626,-5.003780364990234,3.09934139251709,2.278334617614746
1761399210816845300,14.03784521484375,-3.232903242111206,1.1065654754638672,2.7668652534484863
1761399210836989000,14.057989013671875,-2.134432077407837,-0.9247064590454102,1.3341193199157715
1761399210857168400,14.07816845703125,-1.2921770811080933,-2.0696544647216797,-0.37602972984313965
1761399210877309400,14.098309326171876,-0.6576340198516846,-0.8511734008789062,0.9184191226959229
1761399210897491200,14.1184912109375,-1.1333794593811035,-0.2886810302734375,2.0342869758605957
1761399210917652500,14.138652587890626,-1.327417254447937,-0.33979129791259766,1.2061643600463867
1761399210937814300,14.158814208984374,-1.3678549528121948,0.6897544860839844,1.0576956272125244
1761399210957975000,14.17897509765625,-1.514390230178833,1.0624198913574219,0.9317171573638916
1761399210978106600,14.199106689453124,-1.4527677297592163,0.791438102722168,0.1582496166229248
1761399210998295800,14.2192958984375,-0.7396328449249268,0.42620849609375,-0.6699554920196533
1761399211018459100,14.239459228515624,0.03880876302719116,0.5033559799194336,-0.6623237133026123
1761399211038621200,14.25962109375,0.16862142086029053,0.8004903793334961,-0.5461642742156982
1761399211058780400,14.279780517578125,0.7081068754196167,0.8457212448120117,0.02261805534362793
1761399211078943700,14.29994384765625,0.5086200833320618,0.41552734375,-0.13085174560546875
1761399211099105000,14.32010498046875,-0.046393513679504395,-0.30400943756103516,-0.2412707805633545
1761399211119261200,14.34026123046875,-0.20951281487941742,0.2773303985595703,-0.39793944358825684
1761399211139427800,14.360427734375,-0.31508028507232666,0.791259765625,-0.39130711555480957
1761399211159587000,14.380587158203125,-0.6034465432167053,0.8829174041748047,-0.6145930290222168
1761399211179738000,14.400738037109376,-0.47327086329460144,0.38714027404785156,-0.9960324764251709
1761399211199911700,14.42091162109375,0.11584365367889404,0.17940044403076172,-1.0978705883026123
1761399211220060400,14.441060302734375,0.7579944133758545,-0.10355758666992188,-1.2990391254425049
1761399211240235500,14.461235595703124,0.5891703367233276,-0.3571939468383789,-1.8020458221435547
1761399211260396300,14.481396240234375,0.004327267408370972,0.08295536041259766,-1.3631832599639893
1761399211280557800,14.501557861328125,0.007572740316390991,-0.13398170471191406,-1.48270583152771
1761399211300713000,14.521712890625,-0.570266842842102,-0.12435436248779297,-2.186563014984131
1761399211320876500,14.54187646484375,-1.2914329767227173,-0.8542242050170898,-3.590707302093506
1761399211341054000,14.562053955078126,-1.0622221231460571,-1.3790292739868164,-4.776557922363281
1761399211361212700,14.582212646484376,-1.0239965915679932,-1.9570636749267578,-4.254255771636963
1761399211381364700,14.60236474609375,0.014239579439163208,-2.346308708190918,-2.551812171936035
1761399211401526300,14.6225263671875,0.361998051404953,-2.165861129760742,-0.466594934463501
1761399211421687800,14.642687744140625,0.4329410791397095,-2.619678497314453,1.726754903793335
1761399211441847000,14.662846923828125,0.21390831470489502,-1.5071592330932617,2.3571972846984863
1761399211462014700,14.6830146484375,-1.4297930002212524,-0.005082130432128906,3.024345874786377
1761399211482159000,14.7031591796875,-2.8968865871429443,0.07660102844238281,2.007915496826172
1761399211502333200,14.723333251953125,-2.5573790073394775,-0.9883279800415039,0.741234540939331
1761399211522481400,14.7434814453125,-2.2483487129211426,-2.1810970306396484,0.4869835376739502
1761399211542656000,14.763656005859374,-2.359293222427368,-3.296445846557617,0.2563319206237793
1761399211562817500,14.783817626953125,-2.466099739074707,-3.136225700378418,-0.021076679229736328
1761399211582978600,14.803978515625,-2.085411787033081,-1.7559280395507812,-1.0662074089050293
1761399211603152100,14.824152099609375,-2.331906318664551,-2.606450080871582,0.3404712677001953
1761399211623288600,14.84428857421875,-2.949105739593506,-2.2778234481811523,2.870561122894287
1761399211643460900,14.8644609375,-2.161527395248413,-1.0428972244262695,3.672250270843506
1761399211663624200,14.884624267578126,-1.773319959640503,-0.3186640739440918,3.282356023788452
1761399211683794400,14.90479443359375,-1.7524926662445068,-0.6898155212402344,2.079162120819092
1761399211703945500,14.924945556640624,-0.5805739164352417,-1.5089812278747559,2.5188357830047607
1761399211724108000,14.94510791015625,-0.07138347625732422,-1.8155345916748047,2.1330747604370117
1761399211744246300,14.965246337890624,-0.26955461502075195,-1.0948944091796875,2.2094762325286865
1761399211764418800,14.985418701171875,-0.551119327545166,-0.9038267135620117,2.2235615253448486
1761399211784590600,15.005590576171874,-0.8908323049545288,-0.9112186431884766,1.5476315021514893
1761399211804754200,15.025754150390625,1.0014004707336426,-0.44202518463134766,-0.5692453384399414
1761399211824874200,15.045874267578125,1.7163351774215698,0.5983848571777344,-1.2650351524353027
1761399211845066200,15.066066162109376,2.47656512260437,0.4473409652709961,-0.525245189666748
1761399211865231000,15.086231201171875,1.860260248184204,0.9227190017700195,0.30077075958251953
1761399211885389600,15.1063896484375,3.4781012535095215,0.9845647811889648,-1.7714276313781738
1761399211905561300,15.126561279296874,2.7560324668884277,2.09555721282959,-3.5891363620758057
1761399211925722600,15.14672265625,4.390693664550781,1.713897705078125,-3.0107309818267822
1761399211945883600,15.166883544921875,4.58556604385376,1.0460424423217773,-3.7658114433288574
1761399211966045200,15.187045166015626,2.4745988845825195,1.1605992317199707,-4.125988006591797
1761399211986181400,15.207181396484375,0.7579948902130127,2.473118782043457,-3.779046058654785
1761399212006363100,15.227363037109376,0.5792515277862549,2.9549031257629395,-3.7012932300567627
1761399212026529500,15.247529541015625,1.4420092105865479,2.628486156463623,-3.886876344680786
1761399212046678000,15.267677978515625,1.9260456562042236,2.473829746246338,-5.192258358001709
1761399212066849800,15.287849853515626,2.081571340560913,2.495603084564209,-5.958221435546875
1761399212087013600,15.308013671875,1.7401247024536133,1.1775321960449219,-6.771173000335693
1761399212107169800,15.328169677734374,-0.4587130546569824,0.35883569717407227,-5.79045295715332
1761399212127336400,15.34833642578125,-3.0794758796691895,-0.028285980224609375,-5.104283332824707
1761399212147486000,15.36848583984375,-3.610630750656128,0.3138546943664551,-4.368096351623535
1761399212167659500,15.388659423828125,-2.3671083450317383,-4.27359676361084,-4.8451948165893555
1761399212187808500,15.40880859375,-3.8081533908843994,-5.2786946296691895,-3.53177809715271
1761399212207980300,15.428980224609376,-5.327536106109619,-4.88270902633667,-2.2406373023986816
1761399212228131000,15.449131103515626,-4.229168891906738,-4.25368595123291,-1.5618295669555664
1761399212248304600,15.4693046875,-2.5696444511413574,-6.216333389282227,-0.9950301647186279
1761399212268468200,15.48946826171875,-3.6398472785949707,-5.585789203643799,-0.4430418014526367
1761399212288627700,15.509627685546874,-4.870858669281006,-3.5789318084716797,0.8151267766952515
1761399212308789500,15.52978955078125,-5.150140762329102,-2.3452038764953613,0.5410385131835938
1761399212328950500,15.549950439453125,-5.22159481048584,-3.9769833087921143,-0.3776814937591553
1761399212349111800,15.57011181640625,12.557520866394043,-3.0247573852539062,8.871365547180176
1761399212369273000,15.590273193359375,1.5431089401245117,-5.1735639572143555,1.3127764463424683
1761399212389435000,15.610434814453125,-4.29996395111084,-3.4395477771759033,-1.7216824293136597
1761399212409594000,15.630593994140625,-2.3948159217834473,-2.464474678039551,-1.335758924484253
1761399212429757700,15.6507578125,-0.07771015167236328,-2.0532751083374023,-1.413585901260376
1761399212449894700,15.670894775390625,-1.9752001762390137,-0.9042925238609314,-0.07924334704875946
1761399212470065700,15.691065673828126,-0.8203239440917969,-2.2480123043060303,-0.6277939677238464
1761399212490240500,15.711240478515625,-0.2030658721923828,-3.318146228790283,-0.5229018330574036
1761399212510402800,15.73140283203125,-0.5591859817504883,-2.4868359565734863,0.8782352209091187
1761399212530539300,15.751539306640625,-4.453863143920898,2.3724520206451416,1.1695563793182373
1761399212550726100,15.77172607421875,-1.8039398193359375,0.7706012725830078,-2.3428139686584473
1761399212570887200,15.79188720703125,-1.3647699356079102,-0.7371058464050293,-1.7474777698516846
1761399212591048700,15.812048583984375,-0.33411216735839844,-0.6634516716003418,-0.006639420986175537
1761399212611219200,15.83221923828125,-0.19295501708984375,-1.2623991966247559,0.8863946795463562
1761399212631371500,15.85237158203125,-0.6629743576049805,-0.45812416076660156,0.18104374408721924
1761399212651532800,15.87253271484375,-0.9942922592163086,0.21790719032287598,-0.30134546756744385
1761399212671694000,15.892694091796875,-0.9803018569946289,0.22764134407043457,-0.36772024631500244
1761399212691856000,15.91285595703125,-0.7996482849121094,0.06332564353942871,-0.1532433032989502
1761399212712004600,15.933004638671875,-0.44875431060791016,-0.35018038749694824,0.20238232612609863
1761399212732166000,15.953165771484375,-0.1691761016845703,-0.5176852941513062,0.4700043201446533
1761399212752339700,15.973339599609375,-0.054938316345214844,-0.33189940452575684,0.32166945934295654
1761399212772501200,15.993501220703125,-0.20112323760986328,-0.19174551963806152,0.24605631828308105
1761399212792661200,16.0136611328125,-0.257232666015625,-0.024274826049804688,0.3297072649002075
1761399212812824000,16.033823974609376,-0.2936248779296875,0.1054384708404541,0.11904621124267578
1761399212832986000,16.053986083984373,-0.3093843460083008,0.1358935832977295,0.11140716075897217
1761399212853144800,16.074144775390625,-0.1441059112548828,0.22632145881652832,-0.03978914022445679
1761399212873295400,16.09429541015625,-0.23647212982177734,0.16031146049499512,0.04886770248413086
1761399212893469700,16.1144697265625,-0.20300769805908203,0.23307061195373535,0.00691300630569458
1761399212913630700,16.134630615234375,0.24207210540771484,0.17496252059936523,0.0298575758934021
1761399212933793000,16.15479296875,-0.22765254974365234,0.3885989189147949,-0.24846738576889038
1761399212974102800,16.195102783203126,-0.3055419921875,0.9482836723327637,-0.5935632586479187
1761399212994251500,16.21525146484375,-0.1644573211669922,0.6521425247192383,-0.43311697244644165
1761399213014425300,16.23542529296875,0.060062408447265625,0.06038331985473633,0.1290488839149475
