time,seconds_elapsed,z,y,x
1761399196907960600,0.128960693359375,0.22512978315353394,-9.581520080566406,-1.7208324670791626
1761399196918041300,0.139041259765625,0.22662615776062012,-9.577704429626465,-1.7129017114639282
1761399196928124400,0.14912451171875,0.20380641520023346,-9.577404975891113,-1.6985365152359009
1761399196938203600,0.15920361328125,0.21226094663143158,-9.579126358032227,-1.7194108963012695
1761399196948318700,0.169318603515625,0.22423195838928223,-9.566107749938965,-1.7369933128356934
1761399196958389200,0.17938916015625,0.23672668635845184,-9.592069625854492,-1.718812346458435
1761399196968470000,0.189469970703125,0.22026655077934265,-9.611148834228516,-1.6784101724624634
1761399196978546700,0.199546630859375,0.22909517586231232,-9.62259578704834,-1.6134674549102783
1761399196988631300,0.20963134765625,0.20605097711086273,-9.59408950805664,-1.5568296909332275
1761399196998690300,0.219690185546875,0.18151041865348816,-9.548824310302734,-1.5047557353973389
1761399197008793300,0.22979345703125,0.17814357578754425,-9.564237594604492,-1.5003414154052734
1761399197018873600,0.23987353515625,0.186074361205101,-9.612719535827637,-1.522712230682373
1761399197028954000,0.2499541015625,0.20702363550662994,-9.643694877624512,-1.5394717454910278
1761399197039031300,0.26003125,0.21689970791339874,-9.668609619140625,-1.5626654624938965
1761399197049115600,0.27011572265625,0.2182464450597763,-9.661651611328125,-1.583988904953003
1761399197059196400,0.280196533203125,0.23343466222286224,-9.621698379516602,-1.6089035272598267
1761399197069277000,0.29027685546875,0.2636614739894867,-9.5670804977417,-1.6647931337356567
1761399197079357700,0.300357666015625,0.23261165618896484,-9.534384727478027,-1.6999579668045044
1761399197089438700,0.310438720703125,0.1470937728881836,-9.505578994750977,-1.7512837648391724
1761399197099520300,0.320520263671875,0.09083002805709839,-9.443554878234863,-1.832162857055664
1761399197109596400,0.330596435546875,0.09808745235204697,-9.383849143981934,-1.9238158464431763
1761399197119680800,0.3406806640625,0.09786299616098404,-9.391106605529785,-2.0085856914520264
1761399197129761500,0.350761474609375,0.07721300423145294,-9.438616752624512,-2.0380642414093018
1761399197139842000,0.360842041015625,0.08192659169435501,-9.42903995513916,-2.0231003761291504
1761399197149880000,0.370880126953125,0.12307693064212799,-9.463979721069336,-2.0340988636016846
1761399197160004000,0.381004150390625,0.15607202053070068,-9.566556930541992,-2.1115362644195557
1761399197170080300,0.391080322265625,0.19804537296295166,-9.610325813293457,-2.1523125171661377
1761399197180165600,0.40116552734375,0.18974047899246216,-9.540968894958496,-2.103081703186035
1761399197190246000,0.411245849609375,0.1629553586244583,-9.48694896697998,-2.016366720199585
1761399197200345300,0.421345458984375,0.16722002625465393,-9.541492462158203,-1.9613748788833618
1761399197210407400,0.431407470703125,0.1728314310312271,-9.596184730529785,-1.9171570539474487
1761399197220462800,0.441462890625,0.19243396818637848,-9.635764122009277,-1.9428198337554932
1761399197230527200,0.45152734375,0.20358195900917053,-9.639803886413574,-1.9635447263717651
1761399197240646000,0.46164599609375,0.2098667472600937,-9.632172584533691,-2.0159926414489746
1761399197250702000,0.4717021484375,0.232162743806839,-9.610176086425781,-2.0970962047576904
1761399197260811000,0.48181103515625,0.23986908793449402,-9.58788013458252,-2.223839282989502
1761399197270891300,0.491891357421875,0.23276129364967346,-9.575758934020996,-2.306588888168335
1761399197280952300,0.501952392578125,0.20784664154052734,-9.547926902770996,-2.3312790393829346
1761399197291033300,0.512033447265625,0.18315643072128296,-9.502885818481445,-2.3127987384796143
1761399197301108200,0.522108154296875,0.19108721613883972,-9.449689865112305,-2.2834699153900146
1761399197311214600,0.532214599609375,0.200065478682518,-9.499444007873535,-2.3477392196655273
1761399197321295600,0.542295654296875,0.2107645720243454,-9.509170532226562,-2.4599673748016357
1761399197331351000,0.55235107421875,0.19797055423259735,-9.442806243896484,-2.545410394668579
1761399197341472000,0.562471923828125,0.23014263808727264,-9.327435493469238,-2.6192567348480225
1761399197351538200,0.5725380859375,0.30279168486595154,-9.26062297821045,-2.6827030181884766
1761399197361614300,0.5826142578125,0.33339259028434753,-9.266608238220215,-2.7399394512176514
1761399197371699200,0.59269921875,0.3456628620624542,-9.31157398223877,-2.780416250228882
1761399197381754000,0.602754150390625,0.3562871515750885,-9.352949142456055,-2.816404104232788
1761399197391836200,0.612836181640625,0.3189525604248047,-9.356165885925293,-2.8137106895446777
1761399197401921800,0.622921875,0.28378772735595703,-9.350704193115234,-2.8104934692382812
1761399197412001500,0.63300146484375,0.26889878511428833,-9.326238632202148,-2.7764508724212646
1761399197422102500,0.6431025390625,0.3230676054954529,-9.296984672546387,-2.7253496646881104
1761399197432179200,0.65317919921875,0.3936217129230499,-9.297134399414062,-2.7014825344085693
1761399197442230000,0.66322998046875,0.4630535840988159,-9.277457237243652,-2.7172691822052
1761399197452344800,0.6733447265625,0.48243165016174316,-9.263765335083008,-2.7613375186920166
1761399197462425600,0.683425537109375,0.4462941586971283,-9.248052597045898,-2.80435848236084
1761399197472490800,0.69349072265625,0.40447044372558594,-9.224709510803223,-2.8418426513671875
1761399197482562800,0.703562744140625,0.3437175750732422,-9.179743766784668,-2.8597991466522217
1761399197492648200,0.713648193359375,0.267851322889328,-9.191414833068848,-2.8719944953918457
1761399197502748700,0.723748779296875,0.15988777577877045,-9.2033109664917,-2.8935422897338867
1761399197512829200,0.7338291015625,0.07878419756889343,-9.22979736328125,-2.8994531631469727
1761399197522892000,0.74389208984375,0.04010287672281265,-9.23451042175293,-2.8412439823150635
1761399197532964900,0.75396484375,0.03419219329953194,-9.252243041992188,-2.7801170349121094
1761399197543054600,0.7640546875,0.05222352594137192,-9.23787784576416,-2.7510125637054443
1761399197553151700,0.77415185546875,0.060303956270217896,-9.229497909545898,-2.7457752227783203
1761399197563229200,0.784229248046875,0.057161565870046616,-9.21947193145752,-2.8155064582824707
1761399197573289700,0.794289794921875,0.02603694424033165,-9.196053504943848,-2.8651859760284424
1761399197583393800,0.804393798828125,0.012719196267426014,-9.18737506866455,-2.8877813816070557
1761399197593453600,0.81445361328125,-0.019303251057863235,-9.232789993286133,-2.8918964862823486
1761399197603533000,0.824532958984375,-0.05596446618437767,-9.305888175964355,-2.828674554824829
1761399197613641500,0.834641357421875,-0.06718728691339493,-9.36581802368164,-2.7830350399017334
1761399197623717400,0.84471728515625,-0.07983165979385376,-9.392303466796875,-2.7718122005462646
1761399197633771800,0.854771728515625,-0.06501753628253937,-9.398588180541992,-2.7427077293395996
1761399197643854000,0.86485400390625,-0.054917000234127045,-9.400757789611816,-2.766425132751465
1761399197653958700,0.874958740234375,-0.06628946214914322,-9.451485633850098,-2.8232874870300293
1761399197664019000,0.88501904296875,-0.0909048467874527,-9.521440505981445,-2.8355579376220703
1761399197674097200,0.89509716796875,-0.10033201426267624,-9.547103881835938,-2.8440122604370117
1761399197684175000,0.905175048828125,-0.02985270321369171,-9.52353572845459,-2.8830678462982178
1761399197694282000,0.915281982421875,0.059406131505966187,-9.515604972839355,-2.9135937690734863
1761399197704362800,0.92536279296875,0.1388636976480484,-9.554361343383789,-2.977863073348999
1761399197714419500,0.93541943359375,0.14103344082832336,-9.527201652526855,-3.064802646636963
1761399197724498400,0.94549853515625,0.1356464922428131,-9.43023681640625,-3.1885528564453125
1761399197734579200,0.9555791015625,0.06763619929552078,-9.314492225646973,-3.421314239501953
1761399197744685600,0.965685546875,-0.0528968945145607,-9.183484077453613,-3.6482396125793457
1761399197754766600,0.9757666015625,-0.18974047899246216,-9.269824981689453,-4.078821659088135
1761399197764825000,0.9858251953125,-0.3828478157520294,-9.615488052368164,-4.6570963859558105
1761399197774927400,0.99592724609375,-0.44502225518226624,-10.192191123962402,-5.245920181274414
1761399197784962000,1.005962158203125,-0.5327098965644836,-10.88142204284668,-5.5784149169921875
1761399197795089200,1.016089111328125,-0.28700491786003113,-11.323376655578613,-5.580659866333008
1761399197815243000,1.036242919921875,1.2479028701782227,-11.491120338439941,-4.858957767486572
1761399197825331000,1.0463310546875,2.1529858112335205,-11.14081859588623,-4.5388078689575195
1761399197835391700,1.056391845703125,2.5831191539764404,-10.932598114013672,-4.176236152648926
1761399197845493000,1.066492919921875,2.6367642879486084,-10.898555755615234,-3.768772840499878
1761399197855573200,1.0765732421875,2.283245325088501,-10.622175216674805,-3.4590229988098145
1761399197865653800,1.08665380859375,1.889548897743225,-10.01539421081543,-3.214514970779419
1761399197875734500,1.096734619140625,1.6496797800064087,-9.528773307800293,-3.1710453033447266
1761399197885815000,1.10681494140625,1.523086428642273,-9.436671257019043,-3.1432876586914062
1761399197895896000,1.11689599609375,1.4431051015853882,-9.662773132324219,-2.87064790725708
1761399197905954000,1.1269541015625,1.3736732006072998,-9.972074508666992,-2.3553707599639893
1761399197916021800,1.137021728515625,1.3358149528503418,-10.173710823059082,-1.8455554246902466
1761399197926138600,1.147138671875,1.525106430053711,-10.154109001159668,-1.3848960399627686
1761399197936219100,1.15721923828125,1.64885675907135,-9.98763656616211,-1.1248258352279663
1761399197946299400,1.16729931640625,1.6938977241516113,-9.992424964904785,-1.0843489170074463
1761399197956380200,1.177380126953125,1.5980547666549683,-10.480169296264648,-1.1301380395889282
1761399197966461200,1.187461181640625,1.2292729616165161,-11.35001277923584,-0.8113350868225098
1761399197976541700,1.197541748046875,0.7824550271034241,-12.335525512695312,-0.7595604658126831
1761399197986622500,1.20762255859375,0.7268646955490112,-12.435558319091797,-0.7919570207595825
1761399197996703000,1.217702880859375,0.5717653036117554,-11.241674423217773,-0.8898948431015015
1761399198006783700,1.22778369140625,0.2693476974964142,-9.818696022033691,-1.2259808778762817
1761399198016865500,1.237865478515625,0.3711760938167572,-8.614787101745605,-1.8861820697784424
1761399198026945800,1.24794580078125,0.4240729808807373,-8.18525218963623,-1.8404676914215088
1761399198037031400,1.258031494140625,0.8552537560462952,-8.09442138671875,-2.041505813598633
1761399198047103000,1.26810302734375,1.6597055196762085,-8.371176719665527,-2.3067386150360107
1761399198057184800,1.278184814453125,2.0866963863372803,-8.862212181091309,-2.2772598266601562
1761399198067264000,1.288263916015625,2.0556466579437256,-9.135076522827148,-2.0264673233032227
1761399198077348900,1.298348876953125,1.7244237661361694,-9.230246543884277,-1.541940689086914
1761399198087429600,1.3084296875,1.437942624092102,-8.964639663696289,-1.5539116859436035
1761399198097485300,1.3184853515625,1.262193202972412,-8.677634239196777,-1.6064344644546509
1761399198107591000,1.3285908203125,1.194407343864441,-8.308178901672363,-1.2157307863235474
1761399198117671700,1.338671630859375,1.2471545934677124,-7.738284587860107,-0.8738836050033569
1761399198127748900,1.348748779296875,1.3121721744537354,-7.113846778869629,-0.6117185354232788
1761399198137833200,1.358833251953125,1.404199242591858,-6.558990478515625,-0.5165489912033081
1761399198147914200,1.368914306640625,1.5373767614364624,-6.0499982833862305,-0.739209771156311
1761399198157969400,1.378969482421875,1.6407763957977295,-5.862801551818848,-0.8910919427871704
1761399198168075300,1.3890751953125,1.6759412288665771,-5.706504821777344,-0.8762030005455017
1761399198178156300,1.39915625,1.7274165153503418,-5.52357292175293,-1.2063783407211304
1761399198188236800,1.40923681640625,2.259303331375122,-6.327500820159912,-0.8100631833076477
1761399198198313700,1.419313720703125,2.6768672466278076,-6.639345645904541,-0.6644657850265503
1761399198208398000,1.429398193359375,3.1105170249938965,-6.592658996582031,-0.7168389558792114
1761399198218478800,1.439478759765625,3.5225441455841064,-6.4293293952941895,-0.5615150928497314
1761399198228559600,1.4495595703125,3.774533748626709,-6.154819011688232,-0.7069628834724426
1761399198238640000,1.45964013671875,3.746626377105713,-6.028824329376221,-1.1038018465042114
1761399198248721200,1.46972119140625,3.610755443572998,-6.1536970138549805,-1.6411504745483398
1761399198258797800,1.4797978515625,3.748422145843506,-6.5067667961120605,-2.4262988567352295
1761399198268882400,1.48988232421875,4.525789260864258,-7.039551734924316,-3.4019360542297363
1761399198278925800,1.49992578125,5.982511520385742,-7.856423377990723,-4.33103609085083
1761399198289044200,1.510044189453125,6.234875202178955,-8.782231330871582,-5.072565078735352
1761399198299124700,1.520124755859375,5.950863361358643,-10.009259223937988,-6.250288009643555
1761399198309205500,1.53020556640625,5.520580291748047,-11.69118595123291,-7.371148586273193
1761399198319282000,1.540281982421875,5.048473358154297,-13.010017395019531,-7.5231804847717285
1761399198329366800,1.55036669921875,4.7322893142700195,-13.264999389648438,-6.505420207977295
1761399198339446500,1.560446533203125,4.705204963684082,-12.712088584899902,-5.10032320022583
1761399198349528000,1.570528076171875,5.305476188659668,-11.494711875915527,-3.9716813564300537
1761399198359609000,1.580609130859375,6.069077014923096,-9.977985382080078,-3.1833903789520264
1761399198369689300,1.590689453125,6.151676654815674,-8.244583129882812,-2.9053637981414795
1761399198379762400,1.600762451171875,5.797858715057373,-6.63395881652832,-3.035698175430298
1761399198389847300,1.610847412109375,5.57946252822876,-5.309741020202637,-3.4170496463775635
1761399198399906600,1.620906494140625,5.884947776794434,-4.400393009185791,-3.61494517326355
1761399198410013200,1.63101318359375,5.610811710357666,-5.123666286468506,-3.2977135181427
1761399198420094000,1.641093994140625,4.174889087677002,-9.373523712158203,-2.6185832023620605
1761399198430174000,1.651174072265625,3.914370059967041,-14.897919654846191,-3.262399196624756
1761399198440254700,1.661254638671875,4.285171985626221,-18.749591827392578,-2.797699451446533
1761399198450332000,1.671331787109375,3.6122517585754395,-19.110591888427734,-3.261127233505249
1761399198460416500,1.68141650390625,1.0898107290267944,-15.958251953125,-2.866532802581787
1761399198470496500,1.69149658203125,-0.29710546135902405,-10.694075584411621,-1.8977789878845215
1761399198480578000,1.701578125,1.1460744142532349,-6.541408061981201,-0.4323030412197113
1761399198490658800,1.711658935546875,1.5402199029922485,-4.334103584289551,0.6346130967140198
1761399198520896500,1.741896484375,-1.8597710132598877,-4.577713489532471,2.695197820663452
1761399198541062000,1.762061767578125,-3.505335807800293,-11.046772003173828,-0.5253028273582458
1761399198551142700,1.772142578125,-3.018040895462036,-14.910564422607422,-3.050886392593384
1761399198561223700,1.7822236328125,-1.7955764532089233,-15.017630577087402,-5.224896430969238
1761399198571304200,1.79230419921875,-0.7478887438774109,-13.098004341125488,-6.981941223144531
1761399198581380900,1.802380859375,-0.0934486836194992,-10.296712875366211,-6.7031660079956055
1761399198591465500,1.812465576171875,0.4406079351902008,-8.303316116333008,-5.683610439300537
1761399198601521200,1.822521240234375,0.7540239095687866,-7.717484951019287,-4.272976875305176
1761399198611626800,1.832626708984375,0.8188169598579407,-7.819462776184082,-2.5363574028015137
1761399198621707800,1.842707763671875,1.2092963457107544,-8.302642822265625,-1.0882395505905151
1761399198631788300,1.852788330078125,1.2809727191925049,-8.750059127807617,-0.4330512285232544
1761399198641865200,1.862865234375,1.1257985830307007,-9.06519603729248,-0.5932382941246033
1761399198651949800,1.87294970703125,0.8159738779067993,-9.160365104675293,-1.213935136795044
1761399198662030300,1.8830302734375,0.4543745815753937,-9.0906343460083,-1.978433609008789
1761399198672111000,1.893111083984375,0.33601123094558716,-8.928576469421387,-2.5258827209472656
1761399198682192000,1.90319189453125,0.3801543414592743,-8.930821418762207,-2.919654130935669
1761399198692272400,1.9132724609375,0.43589434027671814,-8.56540584564209,-2.7112836837768555
1761399198702346800,1.9233466796875,0.3444657623767853,-8.542586326599121,-2.50874924659729
1761399198712430600,1.9334306640625,0.24443303048610687,-8.420257568359375,-2.0610334873199463
1761399198722514700,1.9435146484375,0.14612112939357758,-8.351873397827148,-1.890745997428894
1761399198732594200,1.95359423828125,0.03763385862112045,-8.43626880645752,-2.119541883468628
1761399198742676700,1.9636767578125,0.03179799020290375,-8.69214916229248,-2.673201084136963
1761399198752756700,1.9737568359375,0.18502689898014069,-8.906804084777832,-3.2811787128448486
1761399198762837800,1.983837646484375,0.5267243981361389,-8.990751266479492,-3.713257312774658
1761399198772914200,1.9939140625,0.8364742398262024,-9.01439380645752,-3.8218941688537598
1761399198782998800,2.003998779296875,0.9323919415473938,-8.968754768371582,-3.647566318511963
1761399198793079600,2.01407958984375,0.8839093446731567,-8.858022689819336,-3.410914421081543
1761399198803160300,2.024160400390625,0.7429507374763489,-8.751331329345703,-3.2817022800445557
1761399198813241300,2.034241455078125,0.5340566039085388,-8.544981002807617,-3.20059871673584
1761399198823321900,2.04432177734375,0.19729718565940857,-8.306009292602539,-3.162067174911499
1761399198833403100,2.054403076171875,-0.05970540642738342,-8.247052192687988,-3.3406596183776855
1761399198843478800,2.064478759765625,-0.22924481332302094,-8.087762832641602,-3.155632734298706
1761399198853564000,2.07456396484375,-0.20043957233428955,-8.343718528747559,-3.105504035949707
1761399198863644700,2.084644775390625,-0.0983867272734642,-8.888548851013184,-2.8244097232818604
1761399198873725200,2.09472509765625,0.07220014184713364,-9.462708473205566,-2.3570916652679443
1761399198883806200,2.10480615234375,0.2677016854286194,-9.626337051391602,-1.6808043718338013
1761399198893886500,2.114886474609375,0.6049100160598755,-9.591096878051758,-1.46308171749115
1761399198903968000,2.124968017578125,0.8991723656654358,-9.69621753692627,-1.6900819540023804
1761399198914023200,2.135023193359375,0.8087164163589478,-9.90473747253418,-2.533215045928955
1761399198924129000,2.14512890625,0.20208558440208435,-9.734973907470703,-3.360262155532837
1761399198934210000,2.1552099609375,-0.5182698369026184,-9.601496696472168,-3.908459424972534
1761399198944290000,2.1652900390625,-0.7445219159126282,-9.804854393005371,-4.16568660736084
1761399198954371300,2.175371337890625,-0.3006967604160309,-10.054076194763184,-3.6222774982452393
1761399198964451600,2.18545166015625,0.2852092683315277,-10.222193717956543,-3.067570924758911
1761399198974507300,2.19550732421875,0.15390227735042572,-10.110788345336914,-3.0143747329711914
1761399198984613400,2.20561328125,-0.4438251256942749,-10.234912872314453,-3.70046329498291
1761399198994694000,2.21569384765625,-0.6073790192604065,-10.362030029296875,-4.255244731903076
1761399199004775000,2.22577490234375,-0.46342766284942627,-10.561646461486816,-4.501922130584717
1761399199014830300,2.235830322265625,-0.39968204498291016,-10.95152759552002,-4.767603874206543
1761399199024936000,2.24593603515625,-0.37828385829925537,-10.330830574035645,-4.562226295471191
1761399199034992000,2.2559921875,-0.5042787194252014,-12.00108528137207,-7.5599164962768555
1761399199045097500,2.266097412109375,-0.5554547905921936,-11.881674766540527,-8.009278297424316
1761399199055178000,2.276177978515625,-1.0502315759658813,-11.43216323852539,-8.41696548461914
1761399199065234000,2.28623388671875,-1.027711033821106,-10.822240829467773,-8.214282035827637
1761399199075339800,2.29633984375,-0.29635727405548096,-10.769493103027344,-7.229142189025879
1761399199085420500,2.306420654296875,0.2248305082321167,-10.796053886413574,-5.103914260864258
1761399199095501600,2.31650146484375,0.7535749673843384,-10.856882095336914,-3.3646016120910645
1761399199105557000,2.326556884765625,1.0934767723083496,-11.059191703796387,-1.9574095010757446
1761399199115662600,2.33666259765625,1.657909870147705,-11.309236526489258,-0.6052840948104858
1761399199125743400,2.346743408203125,1.9865888357162476,-11.714978218078613,0.5746832489967346
1761399199135824600,2.35682470703125,1.740360140800476,-12.127080917358398,1.3576619625091553
1761399199145904600,2.366904541015625,0.7069628834724426,-12.264148712158203,1.4918869733810425
1761399199155985700,2.376985595703125,-0.28229135274887085,-12.088099479675293,1.3026702404022217
1761399199166044000,2.3870439453125,-0.9320926666259766,-11.599608421325684,0.739209771156311
1761399199176147200,2.397147216796875,-1.2535890340805054,-10.680758476257324,-0.32927754521369934
1761399199186227700,2.407227783203125,-1.2085480690002441,-9.964293479919434,-1.8912696838378906
1761399199196308700,2.417308837890625,-0.7050175666809082,-9.960851669311523,-3.297189950942993
1761399199206389000,2.427388916015625,0.19280806183815002,-10.496030807495117,-4.082188606262207
1761399199216469800,2.4374697265625,0.6919991374015808,-11.068843841552734,-4.537161827087402
1761399199226550300,2.44755029296875,0.8187421560287476,-11.008539199829102,-4.560056209564209
1761399199236632300,2.45763232421875,0.7967454195022583,-10.513388633728027,-4.320860862731934
1761399199246711800,2.4677119140625,0.54692542552948,-9.629853248596191,-4.416479110717773
1761399199256792600,2.47779248046875,0.4091840386390686,-9.199345588684082,-3.68430233001709
1761399199266873000,2.487873046875,0.337133526802063,-8.816423416137695,-3.0068180561065674
1761399199276954400,2.497954345703125,0.2214636504650116,-8.804527282714844,-2.391657829284668
1761399199287032800,2.50803271484375,0.06434416770935059,-8.725144386291504,-2.0171897411346436
1761399199297114600,2.518114501953125,0.01339256577193737,-8.773551940917969,-1.5251812934875488
1761399199307176400,2.528176513671875,0.11133038252592087,-8.87986946105957,-0.866401731967926
1761399199317277000,2.53827685546875,-0.2562544047832489,-8.768613815307617,-0.9349357485771179
1761399199327357700,2.548357666015625,-0.07668927311897278,-8.505850791931152,-0.9383774399757385
1761399199337439000,2.55843896484375,0.5196914076805115,-8.252813339233398,-0.8157494068145752
1761399199347515000,2.568514892578125,0.8519617319107056,-8.008679389953613,-0.44838908314704895
1761399199357586200,2.578586181640625,1.0971429347991943,-7.7667155265808105,-0.8279448747634888
1761399199367681300,2.588681396484375,1.186850666999817,-7.5558013916015625,-1.3386579751968384
1761399199377760800,2.5987607421875,1.2690765857696533,-7.418059825897217,-1.4493898153305054
1761399199387842600,2.608842529296875,1.147720456123352,-7.1065144538879395,-1.075445532798767
1761399199397922300,2.61892236328125,1.2725181579589844,-7.0307230949401855,-0.3238905966281891
1761399199407999500,2.62899951171875,1.4600889682769775,-6.873079776763916,-0.07062894850969315
1761399199418084400,2.63908447265625,1.6012719869613647,-6.623484134674072,-0.3307739198207855
1761399199428164600,2.64916455078125,1.8792238235473633,-6.31253719329834,-0.28977322578430176
1761399199438245600,2.65924560546875,2.2088754177093506,-5.856815814971924,-0.0020201075822114944
1761399199448302000,2.669302001953125,2.549525499343872,-5.349544525146484,0.1387888789176941
1761399199458381600,2.679381591796875,3.1052796840667725,-4.937816619873047,0.0471358448266983
1761399199468487700,2.68948779296875,3.524489402770996,-4.8092780113220215,-0.4354454278945923
1761399199478564600,2.699564697265625,3.8313961029052734,-5.054159641265869,-1.270722508430481
1761399199488615400,2.709615478515625,4.17840576171875,-5.65151309967041,-2.1977274417877197
1761399199498704400,2.719704345703125,4.387075424194336,-6.506318092346191,-3.166182041168213
1761399199508785400,2.729785400390625,4.434360980987549,-7.688080787658691,-4.326172828674316
1761399199518891300,2.739891357421875,4.157082557678223,-9.340903282165527,-5.555370807647705
1761399199528972000,2.749971923828125,3.9923312664031982,-11.202469825744629,-6.969371318817139
1761399199539031800,2.76003173828125,4.546663761138916,-12.895020484924316,-8.095244407653809
1761399199549111600,2.770111572265625,5.326874256134033,-13.604976654052734,-8.540266990661621
1761399199559214000,2.780214111328125,5.706804275512695,-12.681114196777344,-7.826121807098389
1761399199569294600,2.790294677734375,5.58866548538208,-10.993800163269043,-6.547169208526611
1761399199579350800,2.800350830078125,5.443516731262207,-9.37853717803955,-5.475240230560303
1761399199589456100,2.8104560546875,5.239785194396973,-7.815497398376465,-4.5994110107421875
1761399199599533300,2.820533203125,4.788702487945557,-6.327500820159912,-3.842618942260742
1761399199609573400,2.830573486328125,4.300136089324951,-4.888810157775879,-3.4747347831726074
1761399199619698400,2.840698486328125,3.828777313232422,-3.7245547771453857,-3.492541790008545
1761399199629779500,2.850779541015625,3.7275476455688477,-3.134010076522827,-3.7000889778137207
1761399199639834400,2.86083447265625,3.83461332321167,-4.211625099182129,-3.3622074127197266
1761399199649940500,2.8709404296875,2.0945522785186768,-8.326659202575684,-2.350881576538086
1761399199660021000,2.88102099609375,1.2030863761901855,-14.428506851196289,-3.443460702896118
1761399199670098000,2.891097900390625,1.2877812385559082,-19.760692596435547,-4.085780143737793
1761399199680179000,2.901178955078125,0.861463725566864,-23.144149780273438,-4.488978385925293
1761399199690265600,2.911265625,2.4501662254333496,-22.16364860534668,-4.752864360809326
1761399199700318700,2.921318603515625,3.0832080841064453,-15.762825012207031,-3.4858081340789795
1761399199710425300,2.93142529296875,1.8045547008514404,-8.960000991821289,-1.7078888416290283
1761399199720505900,2.941505859375,0.13819032907485962,-4.78122091293335,-0.45340195298194885
1761399199730560500,2.951560546875,-1.8375498056411743,-2.7543046474456787,-0.3862146735191345
1761399199740667600,2.961667724609375,-3.2148144245147705,-2.529848098754883,-0.8351274728775024
1761399199750747600,2.97174755859375,-3.6144216060638428,-3.5615994930267334,-1.2984055280685425
1761399199760828400,2.981828369140625,-3.6804866790771484,-5.587692737579346,-1.9761890172958374
1761399199770909200,2.9919091796875,-3.6063411235809326,-8.659079551696777,-2.7492170333862305
1761399199780990200,3.001990234375,-2.8565070629119873,-12.110620498657227,-3.5942952632904053
1761399199791070200,3.0120703125,-1.6516999006271362,-14.053813934326172,-4.058471202850342
1761399199801117400,3.022117431640625,-0.4628291130065918,-13.569512367248535,-3.9310548305511475
1761399199811232500,3.032232421875,0.3412485718727112,-11.380313873291016,-3.845536947250366
1761399199821312800,3.042312744140625,1.0540473461151123,-9.248427391052246,-3.4328362941741943
1761399199831393000,3.05239306640625,1.2490999698638916,-8.39152717590332,-2.5772833824157715
1761399199841474300,3.062474365234375,1.0118495225906372,-8.426018714904785,-1.597905158996582
1761399199851554300,3.07255419921875,0.7771428823471069,-8.868572235107422,-0.7199065089225769
1761399199861631700,3.0826318359375,0.6480056643486023,-9.342923164367676,-0.03703530877828598
1761399199871716400,3.09271630859375,0.6668599843978882,-9.63179874420166,0.2695721387863159
1761399199881786000,3.1027861328125,0.7555202841758728,-9.712228775024414,0.028880057856440544
1761399199891878000,3.1128779296875,0.8504653573036194,-9.640702247619629,-0.5984756350517273
1761399199901958100,3.122958251953125,0.8634089827537537,-9.397017478942871,-1.2930933237075806
1761399199912039200,3.1330390625,0.9501988291740417,-8.951695442199707,-1.7156699895858765
1761399199922116600,3.14311669921875,0.8835352659225464,-8.419509887695312,-1.9233670234680176
1761399199932200200,3.1532001953125,0.6548141837120056,-8.058658599853516,-2.1660044193267822
1761399199942281200,3.16328125,0.3374328017234802,-7.897124767303467,-2.369436740875244
1761399199952362000,3.173362060546875,0.1107318252325058,-8.023268699645996,-2.6785879135131836
1761399199962442500,3.1834423828125,-0.06599018722772598,-8.375591278076172,-2.918606758117676
1761399199972523800,3.193523681640625,-0.08454524725675583,-8.716166496276855,-3.250053882598877
1761399199982604000,3.20360400390625,0.057161565870046616,-8.843731880187988,-3.5686323642730713
1761399199992663600,3.21366357421875,0.21218612790107727,-8.68713665008545,-3.920280933380127
1761399200002765300,3.223765380859375,0.3835960030555725,-8.422277450561523,-4.244021892547607
1761399200012846300,3.233846435546875,0.5392939448356628,-8.286855697631836,-4.483891010284424
1761399200022927400,3.24392724609375,0.6614730358123779,-8.354043006896973,-4.622679710388184
1761399200032987100,3.253987060546875,0.6172551512718201,-8.546627044677734,-4.54224967956543
1761399200043088600,3.264088623046875,0.47667059302330017,-8.71377182006836,-4.264671802520752
1761399200053165300,3.274165283203125,0.43679216504096985,-8.750133514404297,-3.6849007606506348
1761399200063250400,3.28425048828125,0.3891325891017914,-8.826897621154785,-3.3839049339294434
1761399200073305300,3.294305419921875,0.42122986912727356,-8.77729320526123,-2.333448886871338
1761399200083411700,3.30441162109375,0.43993455171585083,-9.037138938903809,-2.036717414855957
1761399200093492500,3.314492431640625,0.36900633573532104,-9.320403099060059,-1.6440683603286743
1761399200103572700,3.32457275390625,0.09778817743062973,-9.720309257507324,-1.5118635892868042
1761399200113629000,3.33462890625,-0.2364274114370346,-9.951125144958496,-1.6950948238372803
1761399200123709400,3.34470947265625,-0.5922656655311584,-9.915436744689941,-2.4065468311309814
1761399200133790000,3.3547900390625,-1.090334415435791,-9.109338760375977,-2.8039841651916504
1761399200143872300,3.364872314453125,-1.3949966430664062,-9.646014213562012,-4.484264850616455
1761399200153951200,3.374951171875,-1.395969271659851,-9.434351921081543,-4.483891010284424
1761399200164038400,3.385038330078125,-0.9720458984375,-9.812411308288574,-4.585120677947998
1761399200174101200,3.395101318359375,-0.583960771560669,-10.250325202941895,-4.464812278747559
1761399200194283300,3.415283203125,-0.36997899413108826,-10.630704879760742,-3.581725835800171
1761399200204363800,3.42536376953125,-0.2695721387863159,-10.754080772399902,-3.1260793209075928
1761399200214444500,3.435444580078125,-0.07032967358827591,-10.83787727355957,-2.8156559467315674
1761399200224542000,3.4455419921875,0.11866261810064316,-10.825233459472656,-2.8645875453948975
1761399200234622500,3.45562255859375,0.06456862390041351,-10.590526580810547,-3.2563388347625732
1761399200244677600,3.465677734375,-0.367584764957428,-10.33913516998291,-4.0394673347473145
1761399200254784000,3.475783935546875,-0.8131307363510132,-10.350059509277344,-5.3972039222717285
1761399200264864800,3.48586474609375,-1.24685537815094,-10.51398754119873,-6.713940143585205
1761399200285025800,3.50602587890625,-1.0524013042449951,-10.10854434967041,-7.833004951477051
1761399200295106000,3.51610595703125,-0.8102127909660339,-9.53273868560791,-7.651644229888916
1761399200305187600,3.5261875,-0.37065234780311584,-9.210418701171875,-7.152153968811035
1761399200315267600,3.536267578125,0.2059013396501541,-9.382951736450195,-6.479757308959961
1761399200325348400,3.546348388671875,0.41038113832473755,-9.948731422424316,-5.560308933258057
1761399200335430000,3.556429931640625,0.6583306193351746,-10.462512016296387,-4.454038143157959
1761399200345509600,3.566509521484375,0.4875941276550293,-10.312126159667969,-3.1927428245544434
1761399200355590100,3.576590087890625,0.8610147833824158,-9.834108352661133,-1.8219126462936401
1761399200365671000,3.5866708984375,1.2633154392242432,-9.81600284576416,-0.8981249332427979
1761399200375752400,3.59675244140625,1.435024619102478,-10.258705139160156,-0.26657938957214355
1761399200385832400,3.60683251953125,1.0271124839782715,-10.929829597473145,0.014814122579991817
1761399200395913700,3.616913818359375,0.30189386010169983,-11.899032592773438,-0.17081132531166077
1761399200405993700,3.62699365234375,-0.32680854201316833,-12.513145446777344,-0.3845686614513397
1761399200416074800,3.63707470703125,-0.8752303719520569,-12.161870956420898,-0.7288099527359009
1761399200426156300,3.64715625,-1.2274024486541748,-11.238981246948242,-1.2810475826263428
1761399200436211000,3.6572109375,-1.2794764041900635,-10.68098258972168,-2.0381391048431396
1761399200446336800,3.667336669921875,-1.0010756254196167,-10.605714797973633,-2.909254312515259
1761399200456398300,3.6773984375,-0.29037177562713623,-10.956989288330078,-3.6727802753448486
1761399200466478600,3.687478515625,0.6759130954742432,-11.750816345214844,-4.561478137969971
1761399200476558800,3.697558837890625,0.9316437244415283,-12.063933372497559,-4.780248165130615
1761399200486639600,3.7076396484375,0.7443722486495972,-11.487005233764648,-5.021090030670166
1761399200496720600,3.717720703125,0.21502923965454102,-10.630704879760742,-4.699443817138672
1761399200506801200,3.72780126953125,-0.8163479566574097,-9.684171676635742,-3.8283286094665527
1761399200516882000,3.7378818359375,-0.5199158787727356,-9.05142879486084,-3.058892011642456
1761399200526963500,3.74796337890625,-0.00673369225114584,-8.639552116394043,-2.2405238151550293
1761399200537017600,3.758017578125,-0.19393034279346466,-8.200440406799316,-2.299032211303711
1761399200547119900,3.768119873046875,-0.5969792008399963,-8.698957443237305,-1.6411504745483398
1761399200557200400,3.778200439453125,-0.07392098009586334,-9.009455680847168,-0.687061071395874
1761399200567285800,3.78828564453125,0.5377227663993835,-8.991798400878906,-0.18203414976596832
1761399200577366500,3.798366455078125,0.7412298917770386,-8.891242027282715,-0.19407998025417328
1761399200587447600,3.808447509765625,0.7211784720420837,-8.782530784606934,0.10137947648763657
1761399200597527800,3.81852783203125,0.909721851348877,-8.581192970275879,-0.35254621505737305
1761399200607582700,3.828582763671875,1.2277765274047852,-8.192134857177734,-1.0496330261230469
1761399200617664300,3.838664306640625,1.5773299932479858,-8.38456916809082,-0.21869535744190216
1761399200627766000,3.84876611328125,1.8157026767730713,-7.942614555358887,-0.12621931731700897
1761399200637851400,3.858851318359375,1.7679682970046997,-7.33815336227417,-0.19654899835586548
1761399200647931100,3.86893115234375,1.7411831617355347,-6.912958145141602,-0.04825812950730324
1761399200658012000,3.879011962890625,1.4615105390548706,-6.712518692016602,0.016983868554234505
1761399200668093400,3.889093505859375,1.3619266748428345,-6.537816524505615,-0.06905775517225266
1761399200678173200,3.899173095703125,1.4117560386657715,-6.228740215301514,0.10444705188274384
1761399200688229600,3.909229736328125,1.694645881652832,-5.7707743644714355,0.11724106222391129
1761399200698334700,3.919334716796875,2.0619313716888428,-5.212401390075684,0.22774843871593475
1761399200708416300,3.929416259765625,2.2900538444519043,-4.7253313064575195,0.24069209396839142
1761399200718496300,3.939496337890625,2.3964462280273438,-4.416628837585449,-0.22430677711963654
1761399200728577500,3.94957763671875,2.519897222518921,-4.4304704666137695,-0.9872341156005859
1761399200738657500,3.959657470703125,2.702829360961914,-4.7287726402282715,-1.9229180812835693
1761399200748738300,3.96973828125,3.090914487838745,-5.287220478057861,-2.72841739654541
1761399200758815700,3.979815673828125,3.627664566040039,-6.137161731719971,-3.5429697036743164
1761399200768899800,3.98989990234375,4.349740982055664,-7.331868648529053,-4.5621514320373535
1761399200778955500,3.99995556640625,5.177760601043701,-8.733299255371094,-5.670217990875244
1761399200789061000,4.01006103515625,5.946224212646484,-10.185981750488281,-6.791527271270752
1761399200799142000,4.020141845703125,6.303110122680664,-11.76361083984375,-8.133626937866211
1761399200809222700,4.03022265625,6.340444564819336,-13.380146026611328,-9.723526000976562
1761399200819299300,4.04029931640625,5.937695026397705,-14.434342384338379,-10.642375946044922
1761399200829384000,4.050384033203125,5.040692329406738,-13.84020709991455,-10.093505859375
1761399200839464700,4.060464599609375,4.627168655395508,-12.086079597473145,-8.402600288391113
1761399200849545200,4.070545166015625,4.411840438842773,-10.50485897064209,-6.667178153991699
1761399200859626000,4.0806259765625,4.471470832824707,-9.102604866027832,-5.393013954162598
1761399200869662700,4.090662841796875,4.571279048919678,-7.6029372215271,-4.373608112335205
1761399200879784000,4.100783935546875,4.627542972564697,-6.648623466491699,-3.1887025833129883
1761399200889868500,4.11086865234375,3.604246139526367,-8.175600051879883,-2.2469582557678223
1761399200899916000,4.120916015625,3.1961843967437744,-11.840150833129883,-1.7116297483444214
1761399200910029800,4.13102978515625,3.5580081939697266,-14.448633193969727,-0.5579986572265625
1761399200920085800,4.141085693359375,3.726724624633789,-15.291915893554688,0.10968436300754547
1761399200930190800,4.15119091796875,1.6420482397079468,-13.988048553466797,-0.604311466217041
1761399200940271600,4.161271728515625,0.8483704328536987,-10.824859619140625,-1.3886369466781616
1761399200950348800,4.171348876953125,2.087893486022949,-7.383718013763428,-1.6589573621749878
1761399200960433200,4.18143310546875,1.6492308378219604,-5.59098482131958,-1.236904501914978
1761399200970514000,4.191513916015625,0.011671733111143112,-5.4962639808654785,-1.1528829336166382
1761399200980594700,4.2015947265625,-1.5205425024032593,-6.724265098571777,-1.1086649894714355
1761399200990675500,4.211675537109375,-2.869076728820801,-8.163180351257324,-0.8279448747634888
1761399201000756200,4.221756103515625,-3.6215293407440186,-9.432256698608398,-0.9314941167831421
1761399201010832600,4.23183251953125,-3.445929527282715,-10.710536003112793,-1.4746037721633911
1761399201020918000,4.24191796875,-2.4316110610961914,-11.75208854675293,-2.1980268955230713
1761399201030994700,4.25199462890625,-1.2807482481002808,-12.040141105651855,-2.9573628902435303
1761399201041079000,4.2620791015625,-0.27802667021751404,-11.012280464172363,-3.235988140106201
1761399201051159800,4.272159912109375,-0.1082628071308136,-9.763928413391113,-3.9876925945281982
1761399201061240300,4.282240234375,-0.19722236692905426,-9.340529441833496,-4.64707088470459
1761399201071321600,4.292321533203125,0.4165162742137909,-9.148768424987793,-4.642656326293945
1761399201081397800,4.302397705078125,1.009081244468689,-8.929698944091797,-4.503119468688965
1761399201091483400,4.3124833984375,1.017835021018982,-8.783502578735352,-3.736076831817627
1761399201101563600,4.322563720703125,0.8465747833251953,-8.612018585205078,-2.7753286361694336
1761399201111644700,4.332644775390625,1.180640697479248,-8.628703117370605,-1.767220139503479
1761399201121725200,4.34272509765625,1.3343933820724487,-8.925434112548828,-1.3838485479354858
1761399201131805200,4.35280517578125,1.08651864528656,-9.046416282653809,-1.2114660739898682
1761399201141882000,4.362882080078125,0.5808931589126587,-9.101483345031738,-1.3063362836837769
1761399201151967000,4.372967041015625,0.2504185438156128,-8.800786018371582,-1.4800655841827393
1761399201162026000,4.38302587890625,0.2098667472600937,-8.388758659362793,-1.7452234029769897
1761399201172128300,4.393128173828125,0.18951602280139923,-8.065167427062988,-2.139219284057617
1761399201182208500,4.40320849609375,0.07100304216146469,-8.019004821777344,-2.6669909954071045
1761399201192289800,4.413289794921875,-0.5340566039085388,-8.053645133972168,-3.116128444671631
1761399201202366500,4.423366455078125,-0.13033436238765717,-8.358981132507324,-3.8824973106384277
1761399201212451800,4.433451904296875,-0.3016694188117981,-8.635885238647461,-4.507608413696289
1761399201222531800,4.44353173828125,-0.020275896415114403,-8.5287446975708,-4.7189717292785645
1761399201232603100,4.45360302734375,0.2687491476535797,-8.387337684631348,-4.915221214294434
1761399201242693400,4.463693359375,0.5654056668281555,-8.362049102783203,-4.637942790985107
1761399201252749600,4.47374951171875,0.7096563577651978,-8.557400703430176,-4.314426422119141
1761399201262855200,4.483855224609375,0.9793781042098999,-8.71033000946045,-3.8682069778442383
1761399201272931000,4.49393115234375,1.1653028726577759,-8.749160766601562,-3.7276971340179443
1761399201282991000,4.5039912109375,1.0581623315811157,-8.380304336547852,-3.6997148990631104
1761399201293097000,4.514096923828125,0.6459107398986816,-7.94059419631958,-3.9560441970825195
1761399201303177500,4.524177490234375,0.2547580301761627,-7.655235290527344,-3.8845174312591553
1761399201313258500,4.534258544921875,0.3645172119140625,-8.011372566223145,-3.931279182434082
1761399201323296300,4.544296142578125,0.452279657125473,-8.498144149780273,-3.8638675212860107
1761399201333420300,4.554420166015625,0.4670189619064331,-8.95917797088623,-3.5388545989990234
1761399201343501000,4.5645009765625,0.3131915032863617,-9.321450233459473,-3.2347161769866943
1761399201353581300,4.574581298828125,0.13938742876052856,-9.311200141906738,-2.5434651374816895
1761399201363637800,4.5846376953125,0.012943653389811516,-9.293617248535156,-2.8175265789031982
1761399201373745700,4.59474560546875,-0.009202713146805763,-9.495927810668945,-3.956268787384033
1761399201383823000,4.604822998046875,0.1446247398853302,-9.529895782470703,-4.620883941650391
1761399201393903900,4.61490380859375,0.272938996553421,-9.483582496643066,-4.6644287109375
1761399201403959600,4.62495947265625,0.33002573251724243,-9.750760078430176,-4.4048075675964355
1761399201414066200,4.635066162109375,0.08776245266199112,-9.998335838317871,-3.8505496978759766
1761399201424146200,4.645146240234375,-0.0007481880020350218,-10.163162231445312,-3.4841620922088623
1761399201434227500,4.6552275390625,0.02289455384016037,-10.25271987915039,-3.558457136154175
1761399201444307200,4.66530712890625,0.18629881739616394,-10.261697769165039,-4.188655853271484
1761399201454388700,4.675388671875,0.5144540667533875,-10.323199272155762,-5.001936435699463
1761399201464469500,4.685469482421875,0.7015010714530945,-10.40340518951416,-5.8299560546875
1761399201474549500,4.695549560546875,0.6298995018005371,-10.420987129211426,-6.568043231964111
1761399201484630300,4.70563037109375,0.31191959977149963,-10.614917755126953,-7.468487739562988
1761399201494685700,4.715685791015625,-0.21128830313682556,-10.237082481384277,-8.060379028320312
1761399201504792000,4.7257919921875,-0.34992754459381104,-9.848249435424805,-8.790685653686523
1761399201514872800,4.735872802734375,-0.9293243288993835,-9.925686836242676,-8.908001899719238
1761399201524933400,4.745933349609375,-1.3137433528900146,-10.249577522277832,-8.145597457885742
1761399201535009300,4.75600927734375,-0.5398176908493042,-11.021781921386719,-6.778808116912842
1761399201545090000,4.766090087890625,1.1852046251296997,-12.350040435791016,-4.912153720855713
1761399201555195400,4.7761953125,2.8773066997528076,-13.21816349029541,-2.9536218643188477
1761399201565275600,4.786275634765625,3.4868555068969727,-13.393463134765625,-1.3691092729568481
1761399201575357000,4.79635693359375,2.6454432010650635,-12.771644592285156,-0.2568529546260834
1761399201585437400,4.8064375,1.115623116493225,-11.959261894226074,0.13669395446777344
1761399201595518200,4.816518310546875,-0.5588216185569763,-11.572672843933105,0.2719663381576538
1761399201605598700,4.8265986328125,-1.7114801406860352,-11.457901000976562,0.024016836658120155
1761399201615655200,4.8366552734375,-2.132261037826538,-11.15121841430664,-0.7829787731170654
1761399201625761300,4.84676123046875,-1.9517980813980103,-10.594791412353516,-2.497227191925049
1761399201635841000,4.856841064453125,-0.8682721853256226,-10.795156478881836,-4.867860794067383
1761399201645922300,4.86692236328125,-0.24892215430736542,-10.968735694885254,-6.156614780426025
1761399201655980800,4.876980712890625,-0.5091419816017151,-10.321179389953613,-6.496816158294678
1761399201666083000,4.8870830078125,-0.31551089882850647,-9.43719482421875,-7.0405988693237305
1761399201676164000,4.8971640625,0.035164836794137955,-9.53737735748291,-7.149011611938477
1761399201686244400,4.907244384765625,0.20979192852973938,-9.770063400268555,-7.010895729064941
1761399201696326000,4.917325927734375,0.792555570602417,-9.86119270324707,-5.781174182891846
1761399201706406100,4.92740625,0.9455600380897522,-9.498396873474121,-4.108375072479248
1761399201716487400,4.9374873046875,0.31603461503982544,-8.618752479553223,-3.396848440170288
1761399201726568200,4.947568115234375,-0.5819406509399414,-7.952191352844238,-2.943446636199951
1761399201736648700,4.957648681640625,-1.1252000331878662,-7.546598434448242,-2.3877673149108887
1761399201746728700,4.967728759765625,-1.409436583518982,-7.09798526763916,-2.0486135482788086
1761399201756809200,4.977809326171875,-1.2087725400924683,-6.695834159851074,-1.6467618942260742
1761399201766890800,4.987890869140625,-0.26253917813301086,-6.366631031036377,-1.2106430530548096
1761399201776946400,4.997946533203125,0.5630863308906555,-6.134318828582764,-1.1122562885284424
1761399201787048200,5.008048095703125,1.199569821357727,-5.88352632522583,-1.5719430446624756
1761399201797128200,5.018128173828125,1.6548422574996948,-5.8203043937683105,-2.078840494155884
1761399201807211500,5.02821142578125,1.5922189950942993,-6.2748284339904785,-1.6441432237625122
1761399201817293800,5.0382939453125,1.3987375497817993,-6.7200751304626465,-1.443778395652771
1761399201827374300,5.048374267578125,1.389235496520996,-6.859537601470947,-1.3595324754714966
1761399201837451800,5.05845166015625,1.5089455842971802,-6.634706974029541,-1.2838906049728394
1761399201847536600,5.06853662109375,1.7545009851455688,-6.265625953674316,-0.6370820999145508
1761399201857616400,5.078616455078125,2.1134066581726074,-5.847463607788086,-0.08948329091072083
1761399201867697700,5.08869775390625,2.4205379486083984,-5.550732135772705,0.1974468231201172
1761399201877753000,5.098753173828125,2.665644407272339,-5.4944682121276855,0.08634089678525925
1761399201887858700,5.108858642578125,2.8108675479888916,-5.685705184936523,-0.22767361998558044
1761399201897939700,5.118939697265625,3.075875759124756,-6.019397258758545,-0.7422773241996765
1761399201907995100,5.1289951171875,3.512892484664917,-6.5027265548706055,-1.3161375522613525
1761399201918102000,5.13910205078125,3.892298698425293,-7.070751190185547,-1.9373581409454346
1761399201928150800,5.14915087890625,3.919682264328003,-7.7318501472473145,-2.6991631984710693
1761399201938262800,5.1592626953125,3.7562780380249023,-8.530765533447266,-3.732710123062134
1761399201948343000,5.169343017578125,3.652803659439087,-9.63187313079834,-5.030666828155518
1761399201958398700,5.179398681640625,3.761664867401123,-11.074006080627441,-6.5865983963012695
1761399201968470000,5.189469970703125,3.8610992431640625,-12.454412460327148,-8.058808326721191
1761399201978611200,5.199611083984375,3.8796541690826416,-13.112070083618164,-8.972644805908203
1761399201988665900,5.209665771484375,3.699415683746338,-12.455310821533203,-9.132981300354004
1761399201998746600,5.21974658203125,3.2988357543945312,-10.684124946594238,-8.612616539001465
1761399202008828000,5.229827880859375,2.6437222957611084,-8.658705711364746,-7.511209487915039
1761399202018908000,5.239907958984375,1.8700212240219116,-7.039177417755127,-6.212878704071045
1761399202028989000,5.249989013671875,1.2642881870269775,-6.291587829589844,-4.896965503692627
1761399202039065600,5.260065673828125,1.1789199113845825,-6.94887113571167,-3.775057554244995
1761399202049150500,5.270150390625,1.035866379737854,-9.542839050292969,-3.4112136363983154
1761399202059231000,5.28023095703125,-0.44023382663726807,-13.270760536193848,-4.185139179229736
1761399202069312300,5.290312255859375,-1.9292027950286865,-15.312641143798828,-4.75421142578125
1761399202079392500,5.300392578125,-0.3189525604248047,-13.927221298217773,-3.8983588218688965
1761399202089473000,5.31047314453125,3.9659202098846436,-10.236259460449219,-1.9920506477355957
1761399202099550000,5.320550048828125,4.456282615661621,-7.442451000213623,-0.8186673521995544
1761399202109634600,5.330634521484375,1.8014123439788818,-5.825915813446045,-0.6180033087730408
1761399202119689700,5.340689697265625,-0.15921440720558167,-5.51272439956665,-0.6646154522895813
1761399202129796000,5.350796142578125,-0.4457704424858093,-6.948122978210449,-0.8759037256240845
1761399202139877400,5.36087744140625,-0.638578474521637,-9.432106971740723,-1.8151041269302368
1761399202149957400,5.370957275390625,-1.7291373014450073,-11.41824722290039,-3.042132616043091
1761399202160034300,5.381034423828125,-2.6985645294189453,-12.245742797851562,-4.243497848510742
1761399202170119400,5.391119384765625,-2.0744261741638184,-11.878382682800293,-4.985700607299805
1761399202180199400,5.401199462890625,-0.6483797430992126,-10.439018249511719,-4.919261455535889
1761399202190280700,5.41128076171875,0.1247977614402771,-9.054646492004395,-4.803067684173584
1761399202200361500,5.421361572265625,0.6333411931991577,-8.395792007446289,-4.619088649749756
1761399202210438400,5.4314384765625,0.6192752122879028,-8.340800285339355,-4.018742561340332
1761399202220522500,5.4415224609375,0.6185270547866821,-8.570793151855469,-2.9774889945983887
1761399202230599000,5.451598876953125,0.6857143044471741,-8.785298347473145,-2.0167407989501953
1761399202240662800,5.461662841796875,0.46657004952430725,-9.258378028869629,-1.8171242475509644
1761399202250764500,5.4717646484375,0.29807811975479126,-9.316287994384766,-1.6885855197906494
1761399202260845000,5.481844970703125,0.4736778438091278,-8.774150848388672,-1.4532055854797363
1761399202270926300,5.49192626953125,0.512808084487915,-8.733898162841797,-1.6903064250946045
1761399202281006600,5.502006591796875,0.617030680179596,-8.388758659362793,-1.5792752504348755
1761399202291083500,5.51208349609375,0.3407996594905853,-8.148740768432617,-1.8201918601989746
1761399202301167900,5.52216796875,-0.09397241473197937,-8.114847183227539,-2.035595178604126
1761399202311248600,5.53224853515625,-0.309151291847229,-8.179415702819824,-2.844536066055298
1761399202321329400,5.542329345703125,-0.28064534068107605,-8.299125671386719,-3.6768951416015625
1761399202331410200,5.55241015625,-0.06771101802587509,-8.522011756896973,-4.227187633514404
1761399202341465300,5.56246533203125,0.36339491605758667,-8.635062217712402,-4.364629745483398
1761399202351571500,5.572571533203125,0.8863783478736877,-8.458041191101074,-4.140622138977051
1761399202361648000,5.582648193359375,1.0832266807556152,-8.082674980163574,-3.772064685821533
1761399202371733000,5.59273291015625,0.8850316405296326,-7.814001083374023,-3.5045127868652344
1761399202381813800,5.602813720703125,0.3063829839229584,-7.790807247161865,-3.381660223007202
1761399202391895000,5.61289501953125,-0.14754268527030945,-8.000299453735352,-3.5494039058685303
1761399202401974800,5.622974853515625,-0.23440730571746826,-8.252439498901367,-4.0143280029296875
1761399202412055800,5.633055908203125,-0.13085809350013733,-8.22191333770752,-4.3855791091918945
1761399202422132700,5.6431328125,0.02124853990972042,-8.173954010009766,-4.846837043762207
1761399202432217000,5.653217041015625,-0.04556465148925781,-8.34641170501709,-5.12808084487915
1761399202442273800,5.663273681640625,-0.28393736481666565,-8.292766571044922,-5.122918128967285
1761399202452379400,5.67337939453125,-0.6696282625198364,-8.425644874572754,-5.11304235458374
1761399202462460200,5.683460205078125,-0.5244050025939941,-8.491110801696777,-3.4304420948028564
1761399202472540200,5.6935400390625,-0.47165772318840027,-9.731382369995117,-2.4315361976623535
1761399202482616800,5.703616943359375,-0.4875941276550293,-10.778322219848633,-2.4361751079559326
1761399202492701700,5.71370166015625,-1.1528829336166382,-12.36724853515625,-3.6762967109680176
1761399202502765300,5.723765380859375,-0.5048024654388428,-11.303625106811523,-3.2618753910064697
1761399202512863500,5.733863525390625,-0.35598787665367126,-10.638260841369629,-4.105083465576172
1761399202522943700,5.74394384765625,-0.8411129713058472,-10.601001739501953,-5.4112701416015625
1761399202533023000,5.75402294921875,-1.0797849893569946,-10.515857696533203,-6.399327278137207
1761399202543105500,5.76410546875,-0.8847323656082153,-10.212018013000488,-6.776638507843018
1761399202553182200,5.77418212890625,-0.5790975093841553,-10.133159637451172,-6.691269874572754
1761399202563267300,5.784267333984375,-0.5107879638671875,-10.524237632751465,-6.4549174308776855
1761399202573347300,5.794347412109375,-0.5392939448356628,-11.035698890686035,-6.573056221008301
1761399202583427800,5.804427734375,-0.3372831642627716,-11.485284805297852,-7.0202484130859375
1761399202593508900,5.8145087890625,-0.29545944929122925,-11.27534294128418,-7.078681945800781
1761399202603590100,5.824590087890625,-1.0436475276947021,-10.5414457321167,-7.518616199493408
1761399202613670700,5.834670654296875,-1.5376012325286865,-10.220173835754395,-7.326855659484863
1761399202623725800,5.844725830078125,0.08970774710178375,-10.76769733428955,-6.5884690284729
1761399202633832400,5.85483251953125,0.42848727107048035,-11.60439682006836,-5.171026706695557
1761399202643887000,5.86488720703125,0.35913026332855225,-11.340360641479492,-3.2655415534973145
1761399202653967600,5.874967529296875,0.5846341252326965,-11.312378883361816,-1.7387142181396484
1761399202664074200,5.88507421875,1.4995183944702148,-12.075156211853027,-0.33608606457710266
1761399202674147300,5.895147216796875,2.062978744506836,-13.3565034866333,0.6821230053901672
1761399202684235500,5.905235595703125,1.807472586631775,-13.856218338012695,1.7829320430755615
1761399202694315800,5.915315673828125,0.7059902548789978,-13.38785171508789,2.461613416671753
1761399202704396800,5.925396728515625,-0.622118353843689,-12.452692031860352,2.744727849960327
1761399202714452500,5.935452392578125,-1.3602806329727173,-11.503839492797852,2.534412145614624
1761399202724533200,5.945533203125,-0.7303811311721802,-10.909255027770996,1.7679682970046997
1761399202734638600,5.955638671875,0.44180503487586975,-10.770689964294434,0.5669020414352417
1761399202744719600,5.9657197265625,1.2701988220214844,-10.881721496582031,-0.7546224594116211
1761399202754800000,5.975800048828125,1.6041151285171509,-10.898481369018555,-1.7933318614959717
1761399202764856600,5.985856689453125,1.3709797859191895,-10.571148872375488,-2.57810640335083
1761399202774961400,5.99596142578125,1.021501064300537,-10.065149307250977,-2.797250509262085
1761399202785042200,6.006042236328125,0.5737854242324829,-9.601422309875488,-2.907458782196045
1761399202795123200,6.016123291015625,1.0464905500411987,-9.277831077575684,-2.6595091819763184
1761399202805178400,6.026178466796875,1.4193127155303955,-9.008258819580078,-2.460266590118408
1761399202815284000,6.036283935546875,0.7655459642410278,-8.813355445861816,-2.1954829692840576
1761399202825365200,6.046365234375,0.7821557521820068,-8.603414535522461,-1.7204583883285522
1761399202835420700,6.056420654296875,0.900668740272522,-8.485200881958008,-1.2182745933532715
1761399202845504300,6.066504150390625,0.9027636647224426,-8.360776901245117,-0.8634837865829468
1761399202855607000,6.07660693359375,0.8365490436553955,-8.134374618530273,-0.758438229560852
1761399202865688300,6.086688232421875,0.7698854804039001,-7.733795166015625,-0.7377133965492249
1761399202875769000,6.09676904296875,0.8520365357398987,-7.286453723907471,-0.5847837924957275
1761399202885849300,6.106849365234375,0.9479542374610901,-6.781052589416504,-0.3125181496143341
1761399202895930600,6.1169306640625,0.9745897054672241,-6.281038284301758,-0.08357260376214981
1761399202906010600,6.1270107421875,1.1430068016052246,-5.864297866821289,0.16063596308231354
1761399202916072200,6.137072265625,1.456647276878357,-5.630189895629883,0.38561612367630005
1761399202926172200,6.147172119140625,1.7070658206939697,-5.556792736053467,0.5272480845451355
1761399202936253400,6.15725341796875,1.894561767578125,-5.481973648071289,0.577526330947876
1761399202946333700,6.167333740234375,2.0213048458099365,-5.427281379699707,0.494253009557724
1761399202956414200,6.177414306640625,2.05085825920105,-5.43491268157959,0.37312138080596924
1761399202966495000,6.187494873046875,2.0551228523254395,-5.487061500549316,0.26560676097869873
1761399202976575700,6.19757568359375,2.109516143798828,-5.541604518890381,0.044592007994651794
1761399202986656500,6.207656494140625,2.286238193511963,-5.483170986175537,-0.15023615956306458
1761399202996737000,6.217737060546875,2.471564292907715,-5.3943610191345215,-0.569819986820221
1761399203006809000,6.22780908203125,2.611325979232788,-5.513397693634033,-1.2530653476715088
1761399203016899000,6.237899169921875,2.957512378692627,-5.931933879852295,-1.9739444255828857
1761399203026954800,6.247954833984375,3.652803659439087,-6.79160213470459,-3.0014309883117676
1761399203037056800,6.258056884765625,4.820724964141846,-8.009502410888672,-4.257564067840576
1761399203047136800,6.26813671875,6.358101844787598,-9.423652648925781,-5.5493855476379395
1761399203057217000,6.278217041015625,7.164648532867432,-10.934693336486816,-6.764517784118652
1761399203067302700,6.288302734375,7.253383636474609,-12.84743595123291,-8.656684875488281
1761399203077382700,6.298382568359375,6.949918746948242,-15.602264404296875,-10.756175994873047
1761399203087464200,6.308464111328125,6.930315971374512,-16.237850189208984,-11.179051399230957
1761399203097544200,6.318544189453125,6.228665351867676,-14.17644214630127,-10.297012329101562
1761399203107624700,6.328624755859375,5.439401626586914,-12.020090103149414,-8.613739013671875
1761399203117702000,6.338701904296875,5.599140167236328,-9.737217903137207,-6.6472015380859375
1761399203127787300,6.348787353515625,6.001739978790283,-6.89066219329834,-5.303381443023682
1761399203137872600,6.35887255859375,5.555670261383057,-3.9514801502227783,-4.660912036895752
1761399203147947500,6.368947509765625,5.547664642333984,-1.545756459236145,-4.013131141662598
1761399203158028300,6.3790283203125,5.71436071395874,-0.6017676591873169,-3.0942811965942383
1761399203168109000,6.389109130859375,4.103437423706055,-4.499752521514893,-2.3938276767730713
1761399203178183000,6.399182861328125,2.9887118339538574,-11.494338035583496,-2.588057279586792
1761399203188248000,6.409248046875,2.1109375953674316,-17.301698684692383,-2.0358943939208984
1761399203198351600,6.4193515625,0.8063222169876099,-20.266992568969727,-2.2055087089538574
1761399203208435500,6.429435546875,-0.7521534562110901,-18.37407684326172,-2.9398553371429443
1761399203218513000,6.439512939453125,0.10018237680196762,-13.521702766418457,-3.250128746032715
1761399203228593400,6.449593505859375,1.4226046800613403,-8.898573875427246,-3.393332004547119
1761399203238674200,6.459674072265625,0.7867197394371033,-6.719027996063232,-1.7905635833740234
1761399203248750800,6.469750732421875,-0.9198223948478699,-4.762142181396484,-1.0826281309127808
1761399203258835700,6.479835693359375,-1.9081039428710938,-4.205340385437012,-0.889296293258667
1761399203268916500,6.48991650390625,-1.9825485944747925,-5.548861503601074,0.643815815448761
1761399203278972000,6.499971923828125,-2.1075708866119385,-6.7520976066589355,1.9328689575195312
1761399203289077800,6.510077880859375,-2.5165305137634277,-8.239570617675781,2.041954755783081
1761399203299158300,6.520158203125,-3.139396905899048,-10.901773452758789,0.2065747082233429
1761399203309205500,6.53020556640625,-3.8425440788269043,-13.891831398010254,-2.2475569248199463
1761399203319294500,6.54029443359375,-3.306617021560669,-14.671294212341309,-3.4647839069366455
1761399203329376300,6.550376220703125,-2.244788646697998,-12.279934883117676,-3.9005286693573
1761399203339481000,6.560481201171875,-1.1301380395889282,-10.055048942565918,-4.372934818267822
1761399203349532200,6.5705322265625,-0.2762310206890106,-8.980201721191406,-4.754809856414795
1761399203359643100,6.58064306640625,0.31461307406425476,-8.80579948425293,-4.750919342041016
1761399203369723100,6.59072314453125,0.6351368427276611,-9.086369514465332,-3.7433342933654785
1761399203379800600,6.600800537109375,0.6260837316513062,-9.496750831604004,-2.28788423538208
1761399203389859800,6.61085986328125,0.5290437340736389,-9.677063941955566,-1.074921727180481
1761399203399940900,6.62094091796875,0.5502174496650696,-9.769165992736816,-0.6777835488319397
1761399203410021000,6.631021240234375,0.03366846218705177,-9.505804061889648,-0.6581062078475952
1761399203420102000,6.641101806640625,-0.3886836767196655,-9.144503593444824,-0.8488941192626953
1761399203430182400,6.651182373046875,-0.6818985939025879,-8.763077735900879,-1.224933385848999
1761399203440253000,6.6612529296875,-0.9770587682723999,-8.42968463897705,-1.8329110145568848
1761399203450332200,6.671332275390625,-1.0832266807556152,-8.264859199523926,-2.570474863052368
1761399203460440300,6.6814404296875,-1.1380687952041626,-8.237625122070312,-3.248782157897949
1761399203470514400,6.691514404296875,-1.28000009059906,-8.297330856323242,-3.741314172744751
1761399203480595200,6.70159521484375,-1.2518682479858398,-8.353519439697266,-4.211026668548584
1761399203490691800,6.71169189453125,-1.044320821762085,-8.30593490600586,-4.608838081359863
1761399203500773600,6.721773681640625,-0.6382791996002197,-8.154500961303711,-4.928314685821533
1761399203510849500,6.731849609375,-0.17724575102329254,-7.905429363250732,-4.900182723999023
1761399203520934700,6.7419345703125,0.2763058543205261,-7.659200668334961,-4.924648284912109
1761399203531015200,6.75201513671875,0.6341641545295715,-7.6263556480407715,-4.927491664886475
1761399203541096200,6.76209619140625,0.8966285586357117,-7.847220420837402,-4.876165866851807
1761399203551176000,6.772176025390625,0.9673323035240173,-8.215852737426758,-4.767678737640381
1761399203561257200,6.78225732421875,0.8584709763526917,-8.566977500915527,-4.6746039390563965
1761399203571295000,6.792294921875,0.6177040338516235,-8.758363723754883,-4.485162734985352
1761399203581418500,6.80241845703125,0.3885340392589569,-8.930072784423828,-4.209530353546143
1761399203591499300,6.812499267578125,0.24533085525035858,-9.021651268005371,-3.8230912685394287
1761399203601579800,6.822579833984375,0.12419921159744263,-9.09489917755127,-3.537956714630127
1761399203611615500,6.832615478515625,0.09494505822658539,-8.659528732299805,-3.0002338886260986
1761399203621741000,6.842740966796875,0.21847090125083923,-8.720355987548828,-2.836979389190674
1761399203631822000,6.852822021484375,0.2793734073638916,-8.9935941696167,-3.305494785308838
1761399203651983000,6.872983154296875,-0.365115761756897,-9.050980567932129,-5.267617702484131
1761399203662064000,6.883064208984375,-0.42938512563705444,-8.859219551086426,-5.820678234100342
1761399203682200000,6.903199951171875,-0.21877017617225647,-8.993144989013672,-5.065008640289307
1761399203692306400,6.913306396484375,-0.39788639545440674,-9.36476993560791,-4.311583042144775
1761399203702383400,6.92338330078125,-0.7224503755569458,-9.953818321228027,-4.141594886779785
1761399203712467700,6.9334677734375,-0.9381529688835144,-10.355670928955078,-4.518008232116699
1761399203722548500,6.943548583984375,-0.820537805557251,-10.35140609741211,-4.8406267166137695
1761399203732604000,6.95360400390625,-0.16991350054740906,-10.19039535522461,-4.733935356140137
1761399203742710000,6.9637099609375,0.23126491904258728,-10.15253734588623,-4.449624061584473
1761399203752790500,6.97379052734375,-0.04519055783748627,-10.452635765075684,-4.455010890960693
1761399203762867000,6.983866943359375,-0.2902969419956207,-9.816975593566895,-3.965770721435547
1761399203772951800,6.993951904296875,-0.1776198446750641,-10.978686332702637,-6.222081184387207
1761399203783032600,7.004032470703125,-0.06636428087949753,-10.863615036010742,-6.730400085449219
1761399203793113300,7.01411328125,-0.5120598673820496,-10.53478717803955,-7.181707382202148
1761399203803194400,7.0241943359375,0.10998363792896271,-10.82747745513916,-7.661520481109619
1761399203813261800,7.03426171875,0.9577555060386658,-11.66694450378418,-6.895450592041016
1761399203823355600,7.044355712890625,1.5122376680374146,-11.937115669250488,-4.828057289123535
1761399203833412600,7.05441259765625,1.7082629203796387,-11.350835800170898,-2.7568483352661133
1761399203843517400,7.064517333984375,1.9535189867019653,-10.89646053314209,-1.2545616626739502
1761399203853597000,7.074596923828125,1.871816873550415,-11.41555404663086,-0.2620154619216919
1761399203863678500,7.084678466796875,1.5376012325286865,-12.422016143798828,0.5085434317588806
1761399203873746700,7.09474658203125,0.7329998016357422,-13.157934188842773,1.2330138683319092
1761399203883839700,7.10483984375,0.07594108581542969,-13.436783790588379,1.6473604440689087
1761399203893920800,7.114920654296875,-0.19452889263629913,-13.106608390808105,1.31007719039917
1761399203903999200,7.124999267578125,-0.2725648880004883,-12.040290832519531,0.37888240814208984
1761399203914082000,7.13508203125,-0.15360300242900848,-11.041160583496094,-0.8331073522567749
1761399203924162600,7.14516259765625,0.4175637364387512,-10.718766212463379,-1.8721160888671875
1761399203934243800,7.155243896484375,1.0039935111999512,-11.032855987548828,-2.833986520767212
1761399203944327400,7.165327392578125,1.1064952611923218,-11.427075386047363,-3.384578227996826
1761399203954387500,7.175387451171875,0.899471640586853,-11.349563598632812,-3.4958338737487793
1761399203964486000,7.18548583984375,0.5676502585411072,-10.721609115600586,-3.58561635017395
1761399203974566000,7.19556591796875,0.5912181735038757,-9.865682601928711,-3.590329885482788
1761399203984647000,7.20564697265625,1.217376708984375,-9.02703857421875,-3.4635868072509766
1761399203994727400,7.2157275390625,1.6088286638259888,-8.363470077514648,-3.299060344696045
1761399204004808700,7.22580859375,1.2576292753219604,-7.95944881439209,-2.955267906188965
1761399204014888700,7.235888671875,0.28790274262428284,-7.643938064575195,-2.5422680377960205
1761399204024970000,7.245969970703125,-0.32433950901031494,-7.443647861480713,-1.9368343353271484
1761399204035025400,7.256025390625,-0.3158849775791168,-7.296928405761719,-1.4576199054718018
1761399204045120800,7.266120849609375,-0.051026422530412674,-7.393219947814941,-1.0221744775772095
1761399204055211800,7.276211669921875,0.3189525604248047,-7.389254570007324,-0.8178443312644958
1761399204065292300,7.286292236328125,0.9355342984199524,-7.370849132537842,-0.7423521876335144
1761399204075373000,7.296373046875,1.5890017747879028,-7.41753625869751,-0.5805190801620483
1761399204085429200,7.30642919921875,1.9473837614059448,-7.302539825439453,-0.7674912810325623
1761399204095535000,7.31653515625,1.741557240486145,-7.556250095367432,0.2700210511684418
1761399204105615600,7.32661572265625,1.4127286672592163,-7.22405481338501,0.6189759373664856
1761399204115687700,7.336687744140625,1.011699914932251,-6.699649810791016,1.1480945348739624
1761399204125751600,7.34675146484375,0.9507225155830383,-5.880458831787109,0.5781248807907104
1761399204135858000,7.35685791015625,0.7560440301895142,-5.394286155700684,0.6739677786827087
1761399204145938000,7.36693798828125,0.8412626385688782,-4.869357109069824,0.651522159576416
1761399204156018700,7.377018798828125,1.0937761068344116,-4.4642133712768555,0.5305401086807251
1761399204166099500,7.387099365234375,1.3403788805007935,-4.385055065155029,0.37327101826667786
1761399204176180200,7.39718017578125,1.5628151893615723,-4.524966239929199,0.05686229094862938
1761399204186260700,7.4072607421875,1.7971476316452026,-4.7824177742004395,-0.38471829891204834
1761399204196341500,7.417341552734375,2.1149778366088867,-5.169006824493408,-0.8825625777244568
1761399204206422000,7.427422119140625,2.435875654220581,-5.72012186050415,-1.5631892681121826
1761399204216523800,7.437523681640625,2.9698574542999268,-6.508712291717529,-2.6007015705108643
1761399204226583800,7.447583740234375,3.909881114959717,-7.680898189544678,-4.000636100769043
1761399204236665000,7.4576650390625,5.364208698272705,-9.21019458770752,-5.556044101715088
1761399204246744800,7.467744873046875,6.515595436096191,-11.372608184814453,-7.502081394195557
1761399204256825600,7.47782568359375,6.785017967224121,-14.17756462097168,-10.015543937683105
1761399204266906600,7.48790673828125,6.5650506019592285,-17.007736206054688,-12.631732940673828
1761399204276992800,7.49799267578125,7.007304668426514,-17.092205047607422,-13.322310447692871
1761399204287064000,7.50806396484375,6.751499176025391,-13.779454231262207,-11.758822441101074
1761399204297145000,7.51814501953125,5.359196186065674,-11.00696849822998,-8.760383605957031
1761399204307230000,7.52822998046875,4.75772762298584,-9.076642990112305,-6.288744926452637
1761399204317310200,7.538310302734375,4.932878494262695,-7.282563209533691,-4.868010520935059
1761399204327391700,7.548391845703125,5.373636245727539,-5.60370397567749,-3.8809261322021484
1761399204337481500,7.5584814453125,5.537938117980957,-4.259434223175049,-2.7509377002716064
1761399204347552500,7.568552490234375,5.0406174659729,-4.345625877380371,-1.7815853357315063
1761399204357632800,7.5786328125,4.132317543029785,-7.32431173324585,-1.9944448471069336
1761399204367688700,7.588688720703125,3.9028480052948,-10.933570861816406,-2.1936872005462646
1761399204387876900,7.608876953125,2.62591552734375,-14.741997718811035,-1.275062084197998
1761399204397951700,7.61895166015625,1.3230209350585938,-15.463101387023926,-1.903540015220642
1761399204408036400,7.629036376953125,-1.0051906108856201,-13.086108207702637,-3.1884782314300537
1761399204418117000,7.6391171875,-1.6359131336212158,-9.566631317138672,-4.053832530975342
1761399204428198000,7.649197998046875,-0.8703671097755432,-7.541660308837891,-2.8826937675476074
1761399204438278700,7.659278564453125,-0.5989993214607239,-6.2794671058654785,-1.18595290184021
1761399204448334000,7.669333984375,-1.3005752563476562,-6.060098648071289,-0.10788871347904205
1761399204458440000,7.67943994140625,-1.5845125913619995,-7.007678508758545,1.0607061386108398
1761399204468495600,7.68949560546875,-1.1622352600097656,-7.836521625518799,2.314744234085083
1761399204478602000,7.69960205078125,-0.928650975227356,-8.475624084472656,2.8300960063934326
1761399204488682800,7.709682861328125,-1.4205098152160645,-9.56969928741455,1.3293805122375488
1761399204498731500,7.7197314453125,-3.173140287399292,-12.078747749328613,-1.7155951261520386
1761399204508843800,7.72984375,-3.8446390628814697,-14.760178565979004,-4.484264850616455
1761399204518924800,7.7399248046875,-2.94696307182312,-14.62341022491455,-5.3559041023254395
1761399204529000700,7.750000732421875,-1.7027263641357422,-11.885116577148438,-5.1541924476623535
1761399204539085800,7.7600859375,-0.9683797955513,-9.626187324523926,-4.642581462860107
1761399204549166300,7.770166259765625,-0.21046529710292816,-8.62630844116211,-4.158204555511475
1761399204559247000,7.7802470703125,0.3577086925506592,-8.592490196228027,-3.4882023334503174
1761399204569327900,7.790327880859375,0.5053262114524841,-8.891242027282715,-2.3885903358459473
1761399204579408600,7.80040869140625,-0.027159225195646286,-9.234136581420898,-1.4606126546859741
1761399204589489400,7.810489501953125,-0.7153425812721252,-9.376441955566406,-0.9124153256416321
1761399204599544800,7.820544921875,-1.14742112159729,-9.393725395202637,-0.9920225143432617
1761399204609628400,7.83062841796875,-1.4609867334365845,-9.2033109664917,-1.5362545251846313
1761399204619731200,7.840731201171875,-1.8504934310913086,-8.560617446899414,-2.2239890098571777
1761399204629812700,7.850812744140625,-2.170792818069458,-8.068309783935547,-3.143960952758789
1761399204639892700,7.860892822265625,-2.443432569503784,-7.852008819580078,-4.094683647155762
1761399204649973800,7.870973876953125,-2.843862771987915,-7.72047758102417,-5.087154865264893
1761399204660050400,7.881050537109375,-2.758195161819458,-7.916876792907715,-5.769278049468994
1761399204670135000,7.891135009765625,-1.5776293277740479,-8.268824577331543,-5.999046325683594
1761399204680215800,7.9012158203125,-0.22034136950969696,-8.495375633239746,-6.114192485809326
1761399204690296600,7.911296630859375,1.0428245067596436,-8.382848739624023,-5.5038957595825195
1761399204700377000,7.921377197265625,1.76834237575531,-8.075267791748047,-4.462193489074707
1761399204710459000,7.931458984375,1.3834744691848755,-8.89909839630127,-4.670938014984131
1761399204720515300,7.941515380859375,1.1486930847167969,-9.377340316772461,-5.010765075683594
1761399204730619600,7.95161962890625,1.254636526107788,-8.768913269042969,-4.447080135345459
1761399204740700200,7.9617001953125,1.442581295967102,-8.292766571044922,-4.36380672454834
1761399204750781200,7.97178125,1.248276948928833,-7.97560977935791,-4.588786602020264
1761399204760852200,7.981852294921875,0.7389104962348938,-7.8006086349487305,-4.737825870513916
1761399204770916900,7.991916748046875,0.35913026332855225,-7.647155284881592,-4.692635536193848
1761399204781023000,8.00202294921875,0.25490766763687134,-7.608099460601807,-4.490325450897217
1761399204791099400,8.012099365234375,0.3471592366695404,-7.847445011138916,-4.149600505828857
1761399204801156000,8.022156005859374,0.5389198660850525,-8.12053394317627,-3.7997477054595947
1761399204811264800,8.0322646484375,0.8389432430267334,-8.46043586730957,-3.334674119949341
1761399204821327600,8.04232763671875,0.8153753280639648,-9.078887939453125,-3.494935989379883
1761399204831426000,8.052426025390625,0.34506431221961975,-9.242890357971191,-3.6798880100250244
1761399204841507600,8.062507568359376,-0.23350948095321655,-8.935909271240234,-3.7497687339782715
1761399204851584300,8.072584228515625,-0.6987327933311462,-8.700079917907715,-3.4683003425598145
1761399204861669000,8.082669189453124,-1.0045920610427856,-8.663044929504395,-2.954519748687744
1761399204871749600,8.09274951171875,-0.8668506741523743,-8.810811996459961,-2.2323687076568604
1761399204881829600,8.10282958984375,-0.1951274424791336,-9.199047088623047,-1.6210989952087402
1761399204891910700,8.11291064453125,0.590470016002655,-9.629329681396484,-1.194706678390503
1761399204902010000,8.123010009765625,1.168146014213562,-9.923441886901855,-1.118316650390625
1761399204912027000,8.13302685546875,1.4118307828903198,-10.061931610107422,-1.6367361545562744
1761399204922149400,8.1431494140625,1.1491420269012451,-9.99564266204834,-2.696394920349121
1761399204932233200,8.153233154296874,0.31947627663612366,-9.670330047607422,-3.897461175918579
1761399204942293800,8.163293701171876,-0.5936871767044067,-9.09729290008545,-4.8878374099731445
1761399204952394800,8.173394775390625,-1.194931149482727,-8.498967170715332,-5.474042892456055
1761399204962475800,8.183475830078125,-1.4252982139587402,-8.352846145629883,-6.003011703491211
1761399204972556000,8.19355615234375,-1.5105916261672974,-8.485574722290039,-6.265775680541992
1761399204982612000,8.203612060546876,-1.3538461923599243,-8.693720817565918,-6.325331211090088
1761399204992692500,8.2136923828125,-0.9521440863609314,-8.863184928894043,-6.2294135093688965
1761399205002773000,8.22377294921875,-0.577526330947876,-9.055244445800781,-6.178985595703125
1761399205022983200,8.243983154296876,-1.166724443435669,-9.7012300491333,-6.510507583618164
1761399205033015300,8.254015380859375,-1.483432412147522,-10.35058307647705,-7.037306785583496
1761399205043117300,8.264117431640624,-1.6620248556137085,-11.040112495422363,-7.52467679977417
1761399205053202400,8.274202392578125,-2.3306806087493896,-10.990283966064453,-7.686809062957764
1761399205063282400,8.284282470703126,-2.761636734008789,-11.229928016662598,-7.443274021148682
1761399205073363200,8.29436328125,-1.2981061935424805,-12.677597045898438,-5.942782878875732
1761399205083444000,8.30444384765625,0.6967126727104187,-14.567296028137207,-2.591049909591675
1761399205093524700,8.314524658203124,2.131288528442383,-15.39853286743164,0.6085013151168823
1761399205103605500,8.32460546875,2.5212440490722656,-14.492327690124512,2.0783915519714355
1761399205113686500,8.3346865234375,1.9476830959320068,-13.457657814025879,2.2801778316497803
1761399205123767000,8.34476708984375,1.5143325328826904,-13.383662223815918,2.2397007942199707
1761399205133822700,8.35482275390625,1.068711757659912,-13.255871772766113,2.0376901626586914
1761399205143891700,8.3648916015625,0.27974751591682434,-12.341136932373047,1.8681507110595703
1761399205153993000,8.374992919921874,-0.7063643336296082,-11.028815269470215,1.7083377838134766
1761399205164073500,8.385073486328125,-1.021650791168213,-9.900547981262207,1.40180504322052
1761399205174170000,8.395170166015625,-0.6791302561759949,-9.459566116333008,1.0652700662612915
1761399205184251000,8.4052509765625,0.24577976763248444,-9.896432876586914,0.5371242165565491
1761399205194331600,8.41533154296875,1.166425108909607,-10.767922401428223,-0.09397241473197937
1761399205204412400,8.425412353515625,1.6047136783599854,-11.144559860229492,-0.6199486255645752
1761399205214493400,8.435493408203126,1.4074913263320923,-10.852018356323242,-1.2713210582733154
1761399205224566800,8.44556689453125,0.806696355342865,-10.215011596679688,-1.6141408681869507
1761399205234655000,8.455655029296874,-0.09307458996772766,-9.438167572021484,-1.6927753686904907
1761399205254816500,8.47581640625,0.07451952993869781,-9.041104316711426,-2.0435259342193604
1761399205264896300,8.485896240234375,0.4866963028907776,-9.12160873413086,-2.256385564804077
1761399205274977500,8.4959775390625,0.4628291130065918,-9.289427757263184,-1.9752912521362305
1761399205285058000,8.50605810546875,0.26755204796791077,-9.689409255981445,-1.2809727191925049
1761399205295138800,8.516138916015626,0.2711433470249176,-9.45679759979248,-1.3351415395736694
1761399205305219600,8.526219482421874,0.6414964199066162,-9.512911796569824,-0.9655366539955139
1761399205315300600,8.536300537109375,1.213935136795044,-9.177573204040527,-1.1051485538482666
1761399205325381400,8.54638134765625,1.7055693864822388,-8.680103302001953,-1.2780548334121704
1761399205335462700,8.556462646484375,1.8946365118026733,-8.229320526123047,-1.1584943532943726
1761399205345533000,8.566532958984375,2.0066401958465576,-7.6618194580078125,-0.6539163589477539
1761399205355623000,8.576622802734375,1.909974455833435,-7.0290021896362305,-0.25827449560165405
1761399205365704000,8.586703857421876,1.8349311351776123,-6.479757308959961,0.48789340257644653
1761399205375784700,8.59678466796875,2.001103639602661,-5.900584697723389,0.27727848291397095
1761399205385841200,8.606841064453125,1.9124433994293213,-5.733290195465088,0.641197144985199
1761399205395946000,8.616946044921875,1.738938570022583,-5.581183433532715,0.6115688681602478
1761399205406026200,8.627026123046875,1.4368202686309814,-5.44187068939209,0.1875707358121872
1761399205416107800,8.637107666015625,1.1611130237579346,-5.402216911315918,-0.356885701417923
1761399205426188300,8.647188232421875,0.970848798751831,-5.483395099639893,-0.8882488012313843
1761399205436243700,8.65724365234375,0.894533634185791,-5.562553405761719,-1.4304606914520264
1761399205446332400,8.66733251953125,0.9511714577674866,-5.355230808258057,-1.7155951261520386
1761399205456430300,8.677430419921874,1.0755951404571533,-5.207687854766846,-2.0783166885375977
1761399205466511600,8.68751171875,1.1977741718292236,-5.269862174987793,-2.6356420516967773
1761399205476591600,8.697591552734375,1.2978817224502563,-5.58290433883667,-3.2781858444213867
1761399205486672400,8.70767236328125,1.59798002243042,-6.1169610023498535,-3.853168249130249
1761399205496752600,8.717752685546875,2.114229679107666,-6.832303524017334,-4.562450408935547
1761399205506833700,8.727833740234376,2.9211504459381104,-7.681347370147705,-5.41141939163208
1761399205516915000,8.7379150390625,3.9059154987335205,-8.464699745178223,-6.420725345611572
1761399205526993200,8.7479931640625,4.8722004890441895,-9.241843223571777,-7.533729553222656
1761399205537072400,8.758072265625,5.754089832305908,-10.275389671325684,-8.679205894470215
1761399205547153700,8.768153564453126,5.985130310058594,-11.976469993591309,-10.04188060760498
1761399205557233200,8.778233154296874,6.002936840057373,-12.884546279907227,-10.599953651428223
1761399205567318300,8.788318359375,5.656301498413086,-12.08615493774414,-9.944466590881348
1761399205577399000,8.79839892578125,5.184793472290039,-11.011008262634277,-8.527997016906738
1761399205587479300,8.808479248046876,5.413813591003418,-10.605265617370605,-7.356184959411621
1761399205597560300,8.818560302734374,6.404339790344238,-10.141987800598145,-6.996605396270752
1761399205607641000,8.82864111328125,7.065588474273682,-9.136946678161621,-6.517615795135498
1761399205617717500,8.838717529296876,6.71685791015625,-7.299023151397705,-5.165116310119629
1761399205627803100,8.84880322265625,5.674482345581055,-5.116109848022461,-3.6850504875183105
1761399205637858000,8.858858154296875,4.947692394256592,-4.077849388122559,-2.5416696071624756
1761399205647964200,8.868964111328125,4.560505390167236,-5.692139625549316,-1.644816517829895
1761399205658044700,8.879044677734376,3.763535499572754,-9.784130096435547,-1.3339444398880005
1761399205668125200,8.889125244140626,3.5027918815612793,-14.55105972290039,-1.209820032119751
1761399205678201900,8.899201904296875,3.8469583988189697,-18.375797271728516,-0.47652095556259155
1761399205688286500,8.909286376953125,3.381809949874878,-19.26823616027832,-0.2165256142616272
1761399205698367200,8.9193671875,0.9992799162864685,-16.195053100585938,-1.1205612421035767
1761399205708448300,8.9294482421875,-1.3723264932632446,-10.437671661376953,-2.3266403675079346
1761399205718528800,8.93952880859375,-1.9500024318695068,-6.179210186004639,-2.3201310634613037
1761399205728609300,8.949609375,-1.4235025644302368,-4.63397741317749,-1.3710545301437378
1761399205738690000,8.95968994140625,-1.6982371807098389,-4.0633344650268555,-0.8648305535316467
1761399205748767200,8.969767333984375,-2.4229321479797363,-5.37558126449585,-0.431255578994751
1761399205758851600,8.9798515625,-2.4087913036346436,-7.768361568450928,0.34656068682670593
1761399205768910000,8.98991015625,-1.8253543376922607,-9.43599796295166,1.3355904817581177
1761399205779012900,9.000012939453125,-1.8621652126312256,-10.38499927520752,1.2603975534439087
1761399205789093600,9.01009375,-2.8984804153442383,-11.58629035949707,-0.38546648621559143
1761399205799149300,9.0201494140625,-3.800196647644043,-12.556540489196777,-2.2432920932769775
1761399205809251300,9.030251220703125,-3.315295934677124,-12.0538330078125,-3.265915632247925
1761399205819335400,9.04033544921875,-2.4880244731903076,-10.690709114074707,-3.977292776107788
1761399205829391400,9.050391357421875,-1.7179893255233765,-9.790863037109375,-4.3109846115112305
1761399205839497000,9.0604970703125,-0.8759785294532776,-9.467421531677246,-4.504615783691406
1761399205849578000,9.070577880859375,-0.15195699036121368,-9.393500328063965,-4.163890838623047
1761399205859659300,9.0806591796875,0.3163338899612427,-9.477447509765625,-3.1164276599884033
1761399205869714000,9.0907138671875,0.7121253609657288,-9.55825138092041,-1.770736575126648
1761399205879816200,9.100816162109375,0.2982277572154999,-9.542465209960938,-0.931119978427887
1761399205889876200,9.110876220703124,-0.4727800190448761,-9.526154518127441,-0.5300912261009216
1761399205899982000,9.120982177734374,-1.2198457717895508,-9.3427734375,-0.4199579358100891
1761399205910050800,9.13105078125,-1.6852186918258667,-9.277381896972656,-0.7525275349617004
1761399205920161800,9.141161865234375,-1.8408418893814087,-8.985363960266113,-1.4041244983673096
1761399205930223600,9.1512236328125,-1.9737948179244995,-8.554632186889648,-2.2282536029815674
1761399205940278800,9.16127880859375,-2.2480058670043945,-8.217199325561523,-3.1945383548736572
1761399205950385400,9.171385498046876,-2.573916435241699,-8.085817337036133,-4.0207624435424805
1761399205960465400,9.18146533203125,-3.0573208332061768,-8.151134490966797,-4.5924530029296875
1761399205970546400,9.19154638671875,-2.7568483352661133,-8.189142227172852,-4.914173603057861
1761399205980627000,9.201626953125,-1.910797357559204,-8.139986038208008,-5.258415222167969
1761399205990707500,9.21170751953125,-1.1498901844024658,-8.04736042022705,-5.555520534515381
1761399206000784400,9.221784423828124,-0.6548141837120056,-8.187346458435059,-5.752368927001953
1761399206010869000,9.231868896484375,-0.48983868956565857,-8.601319313049316,-5.853299617767334
1761399206020949800,9.24194970703125,-0.00396539643406868,-8.791508674621582,-5.592630863189697
1761399206031030500,9.252030517578126,0.6595277786254883,-9.397167205810547,-5.281683921813965
1761399206041111300,9.262111328125,0.7231985330581665,-9.57628345489502,-4.623502731323242
1761399206051192000,9.272192138671874,0.44846391677856445,-9.377115249633789,-4.072836399078369
1761399206061247700,9.282247802734375,0.11215338855981827,-9.22755241394043,-3.9891889095306396
1761399206071349500,9.292349609375,-0.27346271276474,-9.024194717407227,-4.008267879486084
1761399206081410800,9.302410888671876,-0.3477577865123749,-8.835127830505371,-4.196586608886719
1761399206091515100,9.31251513671875,-0.17387889325618744,-8.654141426086426,-4.288090229034424
1761399206101595400,9.322595458984376,0.12060791254043579,-8.421380043029785,-4.104858875274658
1761399206111676700,9.3326767578125,0.24757541716098785,-8.056339263916016,-3.9345712661743164
1761399206121757000,9.3427568359375,0.279223769903183,-8.237998962402344,-4.230404853820801
1761399206131833600,9.35283349609375,0.2329857498407364,-8.634164810180664,-4.796334266662598
1761399206141894000,9.362893798828125,0.19684827327728271,-8.475772857666016,-4.63397741317749
1761399206151974000,9.372973876953125,-0.09187749028205872,-8.485051155090332,-4.556614875793457
1761399206162080300,9.383080322265625,-0.5593453645706177,-8.365265846252441,-4.280383586883545
1761399206172161000,9.3931611328125,-0.5235819816589355,-8.78185749053955,-4.112340927124023
1761399206182219500,9.403219482421875,-0.04758475720882416,-9.49817180633545,-3.708543539047241
1761399206202399200,9.423399169921876,0.11297639459371567,-10.415375709533691,-3.0156466960906982
1761399206212483600,9.433483642578125,-0.09225158393383026,-10.175881385803223,-2.9833250045776367
1761399206222564400,9.443564453125,-0.19310733675956726,-9.774553298950195,-3.166032552719116
1761399206232619300,9.453619384765625,-0.11783961206674576,-9.558550834655762,-3.430068016052246
1761399206242725400,9.463725341796875,0.018555063754320145,-9.625438690185547,-3.564592123031616
1761399206252806000,9.473805908203126,-0.09120412170886993,-9.429787635803223,-3.350236415863037
1761399206262882800,9.4838828125,0.2439092993736267,-10.186655044555664,-4.340912342071533
1761399206272967400,9.493967529296874,-0.3208978474140167,-11.124658584594727,-5.252579212188721
1761399206283048400,9.50404833984375,-0.9521440863609314,-11.0794677734375,-5.862277507781982
1761399206293129000,9.51412890625,-0.4247463345527649,-10.625617027282715,-6.77386999130249
1761399206303209500,9.52420947265625,0.006359598133713007,-10.462286949157715,-7.721973896026611
1761399206313264400,9.534264404296875,-0.727687656879425,-10.632051467895508,-8.465971946716309
1761399206323371500,9.54437158203125,-1.4681693315505981,-10.860847473144531,-8.65279483795166
1761399206333452300,9.554452392578124,-0.6813748478889465,-11.294422149658203,-7.942614555358887
1761399206343532500,9.564532470703124,0.22221185266971588,-11.816882133483887,-6.2609124183654785
1761399206353613000,9.574613037109375,0.6017676591873169,-11.627739906311035,-3.8942439556121826
1761399206363693600,9.584693603515625,1.2336124181747437,-10.9121732711792,-1.949329137802124
1761399206373749500,9.59474951171875,1.8771289587020874,-10.934843063354492,-0.858845055103302
1761399206383855000,9.604855224609375,2.1315877437591553,-11.743558883666992,0.037484221160411835
1761399206393936400,9.614936279296876,1.4968249797821045,-12.588113784790039,0.9789292216300964
1761399206404016600,9.6250166015625,0.49230772256851196,-12.647295951843262,1.5254806280136108
1761399206414097400,9.635097412109374,-0.3684077858924866,-11.77520751953125,1.118017315864563
1761399206424178200,9.64517822265625,-1.193434715270996,-10.285639762878418,0.01660977490246296
1761399206434259700,9.655259765625,-1.6047885417938232,-9.095946311950684,-1.496001958847046
1761399206444340500,9.665340576171875,-0.9317185282707214,-8.863484382629395,-3.285144090652466
1761399206454397400,9.6753974609375,0.3216460347175598,-9.377264976501465,-4.816385746002197
1761399206464501200,9.685501220703125,0.8586205840110779,-9.960777282714844,-5.625850200653076
1761399206474581500,9.69558154296875,0.7718307971954346,-10.178125381469727,-5.605648994445801
1761399206484662800,9.705662841796874,0.824578046798706,-9.936610221862793,-5.666776180267334
1761399206494717700,9.7157177734375,1.0987141132354736,-9.882665634155273,-5.074061393737793
1761399206504823600,9.725823486328125,1.5161281824111938,-9.933318138122559,-4.270956516265869
1761399206514904600,9.735904541015625,1.5952117443084717,-9.643245697021484,-3.640982151031494
1761399206524976000,9.74597607421875,1.2606220245361328,-9.098265647888184,-3.025073766708374
1761399206535041000,9.756041015625,0.716090738773346,-8.499566078186035,-2.6238205432891846
1761399206545147100,9.766147216796876,0.519092857837677,-7.939696788787842,-2.431760787963867
1761399206555227600,9.7762275390625,0.7178863883018494,-7.533505439758301,-2.314818859100342
1761399206565307600,9.7863076171875,1.0809072256088257,-7.2049760818481445,-2.2729203701019287
1761399206575388700,9.796388671875,1.4482675790786743,-7.082722187042236,-2.4222588539123535
1761399206585470200,9.80647021484375,1.7167174816131592,-7.2229323387146,-2.7510125637054443
1761399206595507200,9.816507080078125,1.972298502922058,-7.387533664703369,-3.01519775390625
1761399206605631200,9.82663134765625,2.1291935443878174,-7.328127861022949,-3.1126866340637207
1761399206615711200,9.836711181640625,2.089165449142456,-6.962787628173828,-3.113584518432617
1761399206625792500,9.84679248046875,1.88550865650177,-6.539986610412598,-2.9168858528137207
1761399206635873500,9.85687353515625,1.819368839263916,-5.735609531402588,-2.8196961879730225
1761399206645954600,9.86695458984375,1.8787750005722046,-4.852747440338135,-2.5796775817871094
1761399206656009200,9.87700927734375,1.9840450286865234,-4.041262626647949,-2.2328176498413086
1761399206666073300,9.8870732421875,2.0976948738098145,-3.478550672531128,-1.9742437601089478
1761399206676171000,9.8971708984375,2.2578818798065186,-3.364302396774292,-2.1629366874694824
1761399206686251500,9.90725146484375,2.4326586723327637,-3.591676712036133,-2.5107693672180176
1761399206696332300,9.917332275390624,2.6569652557373047,-4.092738151550293,-3.0818612575531006
1761399206706401300,9.9274013671875,3.081562042236328,-4.556465148925781,-3.5271828174591064
1761399206716482000,9.93748193359375,3.6477160453796387,-4.838606834411621,-3.9483377933502197
1761399206726583300,9.947583251953125,4.205265522003174,-5.053411483764648,-4.46518611907959
1761399206736664000,9.9576640625,4.713958740234375,-5.354183197021484,-5.063587188720703
1761399206746760400,9.967760498046875,5.147159576416016,-5.7102460861206055,-5.640888690948486
1761399206756841700,9.977841796875,5.29732084274292,-6.193949222564697,-6.258817195892334
1761399206766897200,9.987897216796876,5.125985622406006,-6.863876819610596,-6.807987213134766
1761399206776977400,9.997977294921874,5.4351372718811035,-7.937227725982666,-7.34511137008667
1761399206787080000,10.008079833984375,5.242478847503662,-9.238326072692871,-7.5296149253845215
1761399206797162200,10.018162353515624,5.4554877281188965,-10.323872566223145,-7.057657718658447
1761399206807239200,10.0282392578125,6.076259613037109,-10.992902755737305,-6.28822135925293
1761399206817326000,10.038326171875,6.054786682128906,-10.955866813659668,-5.589413642883301
1761399206827406600,10.048406494140625,5.46843147277832,-10.473509788513184,-4.935422420501709
1761399206837483000,10.05848291015625,4.894421577453613,-10.231471061706543,-3.9356935024261475
1761399206847568400,10.068568359375,4.173093795776367,-10.03267765045166,-2.8021137714385986
1761399206857648400,10.0786484375,3.0340521335601807,-8.950947761535645,-1.9818004369735718
1761399206867729700,10.088729736328125,2.369436740875244,-6.650119781494141,-1.3868412971496582
1761399206877810000,10.098809814453125,2.758344888687134,-4.128576278686523,-1.037886381149292
1761399206887891200,10.10889111328125,4.642431735992432,-2.7846810817718506,-0.6115688681602478
1761399206897967400,10.11896728515625,4.975674629211426,-4.255319595336914,0.27136778831481934
1761399206908052000,10.129052001953125,4.694655418395996,-9.577554702758789,-1.388188123703003
1761399206918133500,10.139133544921876,6.275651454925537,-17.140613555908203,-4.2485857009887695
1761399206928213500,10.149213623046874,4.397849082946777,-24.58261489868164,-6.313809394836426
1761399206938294300,10.159294189453124,1.778891921043396,-27.50107192993164,-8.15644645690918
1761399206948375800,10.169375732421875,1.614290475845337,-20.0723876953125,-8.557475090026855
1761399206958457000,10.17945703125,1.1382932662963867,-9.233687400817871,-7.066860198974609
1761399206968536600,10.18953662109375,-0.6629694104194641,-3.3761985301971436,-4.68178653717041
1761399206978617000,10.1996171875,-2.638709545135498,-1.7824832201004028,-3.2601544857025146
1761399206988697900,10.20969775390625,-3.61030650138855,-2.2352118492126465,-2.3786394596099854
1761399206998778000,10.219778076171876,-3.65617036819458,-3.13468337059021,-2.037316083908081
1761399207008860000,10.22985986328125,-3.1465795040130615,-4.34839391708374,-1.9835213422775269
1761399207018940000,10.23993994140625,-2.328211545944214,-6.271910667419434,-2.3032968044281006
1761399207029005800,10.250005859375,-1.1528080701828003,-8.963068008422852,-3.5841946601867676
1761399207039101200,10.26010107421875,0.07234977930784225,-11.4995756149292,-5.3692216873168945
1761399207049148000,10.27014794921875,0.43350014090538025,-12.700118064880371,-6.7935471534729
1761399207059263000,10.280262939453126,0.4118026793003082,-12.037821769714355,-6.565649032592773
1761399207069344000,10.290343994140626,0.39377135038375854,-10.356792449951172,-5.097330093383789
1761399207079398700,10.300398681640624,0.4563947021961212,-8.791434288024902,-3.661332845687866
1761399207089500700,10.310500732421875,0.7529764175415039,-7.879617214202881,-2.169670581817627
1761399207099585500,10.32058544921875,1.0641478300094604,-7.855151176452637,-0.9647136330604553
1761399207109666300,10.330666259765625,1.601945400238037,-8.39489459991455,-0.6242132782936096
1761399207119746800,10.340746826171875,1.6753426790237427,-9.182661056518555,-0.9023895859718323
1761399207129804000,10.350803955078124,1.3687351942062378,-9.7088623046875,-1.2081739902496338
1761399207149951700,10.37095166015625,1.1625345945358276,-9.857452392578125,-2.2993314266204834
1761399207160066000,10.381066162109375,1.2314426898956299,-9.511713981628418,-2.866532802581787
1761399207170150400,10.391150390625,1.3379846811294556,-8.80280590057373,-3.185485363006592
1761399207180231200,10.401231201171875,1.3142670392990112,-8.08050537109375,-3.3137247562408447
1761399207190276900,10.41127685546875,1.0847229957580566,-7.6245598793029785,-3.240177869796753
1761399207200370200,10.4213701171875,0.6466588973999023,-7.5243024826049805,-3.247659683227539
1761399207210472700,10.43147265625,0.12509703636169434,-7.688080787658691,-3.4605941772460938
1761399207220529000,10.44152880859375,-0.24196401238441467,-7.9363298416137695,-3.6244473457336426
1761399207230635000,10.451635009765624,-0.43192896246910095,-8.043170928955078,-4.078298091888428
1761399207240715300,10.46171533203125,-0.2727145254611969,-8.02072525024414,-4.553621768951416
1761399207250797000,10.471797119140625,0.06830956786870956,-8.025513648986816,-4.873621940612793
1761399207260876500,10.48187646484375,0.4660463333129883,-8.140884399414062,-4.956446647644043
1761399207270957300,10.491957275390625,0.7551462054252625,-8.479364395141602,-4.714931488037109
1761399207281034500,10.502034423828125,0.8277952671051025,-8.899322509765625,-4.221127033233643
1761399207291118800,10.512118896484376,0.7190834879875183,-9.266982078552246,-3.9275381565093994
1761399207301200100,10.5222001953125,0.5919663906097412,-9.213486671447754,-3.4110641479492188
1761399207311279900,10.53227978515625,0.2795978784561157,-9.01895809173584,-3.282226085662842
1761399207321362000,10.54236181640625,-0.09292495250701904,-8.765621185302734,-3.5727474689483643
1761399207331417300,10.552417236328125,-0.18495208024978638,-8.644414901733398,-3.820472478866577
1761399207341500200,10.562500244140624,-0.046088382601737976,-8.855329513549805,-4.173617362976074
1761399207351600000,10.57260009765625,0.012868833728134632,-9.289353370666504,-3.7772271633148193
1761399207361684000,10.58268408203125,-0.08230068534612656,-9.830666542053223,-3.436427593231201
1761399207371765000,10.592764892578124,-0.28206688165664673,-10.23887825012207,-2.9459903240203857
1761399207381845200,10.60284521484375,-0.2974795699119568,-10.26319408416748,-2.5912744998931885
1761399207391926800,10.6129267578125,-0.2866308391094208,-10.095300674438477,-3.0551509857177734
1761399207402006500,10.623006591796875,-0.39624038338661194,-9.814506530761719,-4.130671501159668
1761399207412083500,10.63308349609375,-0.632293701171875,-9.451635360717773,-5.025803565979004
1761399207422167800,10.643167724609375,-0.48228201270103455,-9.222539901733398,-5.489455699920654
1761399207432248800,10.653248779296876,0.18787001073360443,-9.400833129882812,-5.456310749053955
1761399207442330600,10.66333056640625,0.9744400978088379,-9.684844970703125,-5.09224271774292
1761399207452409900,10.673409912109374,1.3031190633773804,-9.611822128295898,-4.547786235809326
1761399207462491100,10.6834912109375,0.8849567770957947,-9.370830535888672,-4.164863586425781
1761399207472572000,10.693572021484375,0.28895020484924316,-9.363348960876465,-4.161272048950195
1761399207482645200,10.703645263671875,0.024690205231308937,-9.294964790344238,-4.208183765411377
1761399207492733200,10.713733154296875,-0.04189852997660637,-9.116521835327148,-4.414234638214111
1761399207502814200,10.723814208984376,-0.39549219608306885,-9.050980567932129,-4.981435775756836
1761399207512873000,10.733873046875,-0.8250269293785095,-9.115848541259766,-5.683685302734375
1761399207522975000,10.74397509765625,-1.1082161664962769,-9.500640869140625,-6.291139125823975
1761399207533030700,10.75403076171875,-0.9291747212409973,-9.76864242553711,-6.693439960479736
1761399207543132400,10.76413232421875,-0.6200982332229614,-10.098294258117676,-6.892682075500488
1761399207553177000,10.774177001953126,-0.21181203424930573,-10.308011054992676,-6.815618991851807
1761399207563298300,10.78429833984375,0.37476739287376404,-10.769718170166016,-6.444667339324951
1761399207573378600,10.794378662109375,0.969427227973938,-11.281253814697266,-5.691316604614258
1761399207583460400,10.80446044921875,1.622370958328247,-11.82107162475586,-4.404433250427246
1761399207593540600,10.81454052734375,2.0102314949035645,-12.047847747802734,-2.9351415634155273
1761399207603621000,10.82462109375,2.2719478607177734,-12.2141695022583,-2.0744261741638184
1761399207613702000,10.834701904296875,2.0655975341796875,-12.07351016998291,-1.6769886016845703
1761399207623785000,10.844784912109375,1.5863831043243408,-11.875614166259766,-1.657610535621643
1761399207633863400,10.854863525390625,0.7191583514213562,-11.498527526855469,-1.862539291381836
1761399207643944000,10.86494384765625,-0.5158756375312805,-11.039888381958008,-2.155529737472534
1761399207654003500,10.87500341796875,-1.6534206867218018,-10.367117881774902,-2.655094861984253
1761399207664082000,10.88508203125,-2.053027868270874,-9.680879592895508,-3.6360442638397217
1761399207674185700,10.895185791015624,-1.395744800567627,-9.316661834716797,-5.066579818725586
1761399207684267300,10.905267333984375,-0.11095628142356873,-9.203909873962402,-5.937246322631836
1761399207694347000,10.915346923828125,0.6147112846374512,-9.1022310256958,-6.316802024841309
1761399207704427000,10.925427001953125,0.4886415898799896,-9.062577247619629,-6.6879777908325195
1761399207714483500,10.9354833984375,0.5261258482933044,-9.119738578796387,-7.174300193786621
1761399207724589300,10.94558935546875,0.34671032428741455,-8.914361000061035,-7.836297035217285
1761399207734670800,10.9556708984375,-0.4279635548591614,-8.679729461669922,-8.734795570373535
1761399207744750800,10.965750732421874,-0.4287865459918976,-9.051877975463867,-8.096142768859863
1761399207754831400,10.975831298828124,-0.35097500681877136,-8.942044258117676,-6.863203525543213
1761399207764911900,10.985911865234375,-0.5651063919067383,-8.895806312561035,-5.314454555511475
1761399207774993200,10.9959931640625,-0.6786065697669983,-8.308403968811035,-4.641234874725342
1761399207785073400,11.006073486328125,-0.5612158179283142,-8.114323616027832,-4.047921657562256
1761399207795119000,11.016119140625,-0.2770540416240692,-8.261343002319336,-3.3785927295684814
1761399207805235200,11.026235107421876,0.12180501222610474,-8.38449478149414,-3.077596664428711
1761399207815289900,11.036289794921874,0.33997663855552673,-8.598176956176758,-3.1199440956115723
1761399207825396700,11.046396728515624,0.0545429065823555,-9.088165283203125,-3.0878467559814453
1761399207835477800,11.056477783203125,-0.5333084464073181,-9.69277572631836,-3.174861192703247
1761399207845535000,11.066534912109375,-0.9329904913902283,-9.703699111938477,-3.7666778564453125
1761399207855638800,11.076638671875,-0.6997054219245911,-9.330727577209473,-4.627917289733887
1761399207865719000,11.086718994140625,-0.08798690885305405,-9.029881477355957,-4.60741662979126
1761399207875800600,11.096800537109376,0.6766612529754639,-8.219893455505371,-5.125162601470947
1761399207885880300,11.10688037109375,1.2848633527755737,-7.385438919067383,-5.070545196533203
1761399207895961300,11.11696142578125,1.4188637733459473,-6.920664310455322,-4.520776748657227
1761399207906042400,11.12704248046875,1.3781623840332031,-6.557942867279053,-4.483366966247559
1761399207916122400,11.137122314453125,1.0522516965866089,-6.64937162399292,-3.662006378173828
1761399207926204000,11.147203857421875,0.7735515832901001,-6.821828842163086,-3.309535026550293
1761399207936285200,11.15728515625,0.6988824605941772,-7.191807746887207,-3.3114054203033447
1761399207946365200,11.167365234375,0.8188918232917786,-7.689651966094971,-3.7213375568389893
1761399207956445400,11.177445556640626,0.8031050562858582,-8.251466751098633,-4.311957359313965
1761399207966526700,11.187526611328124,0.7567173838615417,-8.683545112609863,-4.643030643463135
1761399207976607000,11.19760693359375,0.8265233039855957,-8.832584381103516,-4.793715476989746
1761399207986688500,11.2076884765625,0.9830442667007446,-8.690503120422363,-4.229282379150391
1761399207996768000,11.21776806640625,1.1263971328735352,-8.278027534484863,-3.4467525482177734
1761399208006849000,11.22784912109375,1.5202432870864868,-7.2696943283081055,-3.058817148208618
1761399208016929800,11.2379296875,1.8925416469573975,-6.403142929077148,-2.1389198303222656
1761399208027007700,11.2480078125,2.307037830352783,-5.85808801651001,-1.591770052909851
1761399208037087700,11.258087646484375,2.5581297874450684,-5.7667341232299805,-1.4308347702026367
1761399208047169300,11.268169189453126,2.721534013748169,-6.126986503601074,-1.8026841878890991
1761399208057237000,11.278237060546875,2.832789421081543,-6.629469871520996,-2.4998457431793213
1761399208067334000,11.288333984375,2.9296798706054688,-6.9625630378723145,-3.4078469276428223
1761399208077415000,11.298414794921875,2.9524996280670166,-7.23797082901001,-4.506485939025879
1761399208087470800,11.308470947265626,2.7997944355010986,-7.418059825897217,-5.765237808227539
1761399208097576000,11.318575927734376,2.5424177646636963,-7.404367923736572,-6.912135124206543
1761399208107656200,11.32865625,1.9809026718139648,-7.255852699279785,-7.82185697555542
1761399208117733600,11.338733642578125,1.2889783382415771,-7.121777534484863,-8.500313758850098
1761399208127817500,11.3488173828125,0.7436240911483765,-6.923208236694336,-8.751405715942383
1761399208137899000,11.35889892578125,-0.010474632494151592,-6.595876216888428,-8.70681381225586
1761399208147953700,11.36895361328125,-0.7658452391624451,-6.2165446281433105,-8.258724212646484
1761399208158059800,11.379059814453125,-1.0232967138290405,-5.934328079223633,-7.4875664710998535
1761399208168115200,11.389115234375,-0.9877578616142273,-5.881655693054199,-6.708403587341309
1761399208178196200,11.3991962890625,-0.7698854804039001,-6.261810302734375,-5.982736110687256
1761399208188302300,11.40930224609375,-0.30885201692581177,-6.898069381713867,-5.374907970428467
1761399208198382000,11.419382080078124,0.48392802476882935,-7.480758190155029,-4.736554145812988
1761399208208463400,11.42946337890625,1.4969745874404907,-8.39384651184082,-4.227262496948242
1761399208218543600,11.439543701171875,1.3712042570114136,-12.282928466796875,-3.683703660964966
1761399208228624400,11.449624267578125,0.015487492084503174,-20.202423095703125,-5.309142112731934
1761399208238701800,11.459701904296875,-0.5983259677886963,-26.534936904907227,-6.832901954650879
1761399208248786000,11.469785888671876,2.587533473968506,-26.91568946838379,-7.685536861419678
1761399208258867000,11.479866943359376,4.230329990386963,-17.523759841918945,-4.570157051086426
1761399208268947000,11.489947021484374,3.661332845687866,-9.928679466247559,-2.7024552822113037
1761399208279028700,11.50002880859375,2.204087018966675,-5.873276233673096,-2.1792473793029785
1761399208289108700,11.510108642578125,0.13841478526592255,-3.388244390487671,-1.5441852807998657
1761399208299167200,11.520167236328126,-2.173187017440796,-1.2336872816085815,-0.4679167866706848
1761399208309266400,11.530266357421874,-3.3831565380096436,0.18562544882297516,0.5274725556373596
1761399208319351600,11.5403515625,-4.311957359313965,-0.7624036073684692,0.942791759967804
1761399208329431300,11.550431396484376,-4.903998374938965,-4.443563461303711,0.5897217988967896
1761399208339512000,11.560511962890626,-4.720093727111816,-8.6943941116333,0.013691840693354607
1761399208349567700,11.570567626953125,-3.7520134449005127,-12.987871170043945,-0.8183680772781372
1761399208359674000,11.580674072265625,-3.1099183559417725,-15.537620544433594,-2.782735824584961
1761399208369750300,11.590750244140626,-1.6382324695587158,-16.048782348632812,-5.6093902587890625
1761399208379835100,11.600835205078125,0.2908954918384552,-14.388703346252441,-7.054515361785889
1761399208389895700,11.610895751953125,1.4077905416488647,-10.48046875,-5.576544761657715
1761399208399997200,11.6209970703125,0.9760860800743103,-8.198345184326172,-3.9520039558410645
1761399208410077000,11.631076904296876,0.2264017015695572,-7.6280012130737305,-2.263942241668701
1761399208420158000,11.641157958984374,0.021472996100783348,-7.910741806030273,-1.0235211849212646
1761399208430239200,11.6512392578125,-0.0037409402430057526,-8.328380584716797,-0.3965396583080292
1761399208440303000,11.66130322265625,-0.04870704188942909,-8.747440338134766,-0.17971476912498474
1761399208450400300,11.671400146484375,-0.2015618532896042,-9.032275199890137,-0.45684361457824707
1761399208460481000,11.68148095703125,-0.5675754547119141,-9.087342262268066,-1.2487257719039917
1761399208470556000,11.691555908203124,-0.6978349685668945,-9.137919425964355,-1.9315969944000244
1761399208480642800,11.701642822265624,-0.45587095618247986,-9.402853012084961,-2.3959972858428955
1761399208490722800,11.711722900390624,-0.10482114553451538,-9.646687507629395,-2.6139445304870605
1761399208500800000,11.721800048828126,0.22049100697040558,-9.716269493103027,-2.57810640335083
1761399208510880300,11.73188037109375,0.5119850635528564,-9.649530410766602,-2.265887498855591
1761399208520964900,11.74196484375,0.5487959384918213,-9.47265911102295,-1.9267338514328003
1761399208531045600,11.752045654296875,0.6711246371269226,-9.038859367370605,-1.3747206926345825
1761399208541126400,11.76212646484375,0.43350014090538025,-8.834080696105957,-1.620949387550354
1761399208551207200,11.772207275390626,0.2596212327480316,-8.83250904083252,-2.1472997665405273
1761399208561283600,11.78228369140625,0.12831424176692963,-8.75993537902832,-2.504634141921997
1761399208571368400,11.792368408203124,-0.024989480152726173,-8.714221000671387,-2.637512445449829
1761399208581449700,11.80244970703125,-0.16347908973693848,-8.754847526550293,-2.9101521968841553
1761399208591530200,11.8125302734375,-0.4290858507156372,-8.806023597717285,-3.058443069458008
1761399208601610200,11.8226103515625,-0.6168810129165649,-8.842460632324219,-3.128772735595703
1761399208611691300,11.832691162109375,-0.653991162776947,-8.91294002532959,-3.053654670715332
1761399208621771800,11.842771728515626,-0.5136311054229736,-8.964564323425293,-2.866083860397339
1761399208631848700,11.8528486328125,-0.2587982416152954,-8.987908363342285,-2.833462953567505
1761399208641933800,11.862933837890624,-0.10886135697364807,-9.113977432250977,-2.932298421859741
1761399208652013800,11.873013916015625,-0.1470937728881836,-9.17128849029541,-3.2001497745513916
1761399208662095400,11.883095458984375,-0.2182464450597763,-8.984466552734375,-3.3395373821258545
1761399208672176400,11.89317626953125,-0.1595885008573532,-8.812532424926758,-3.464409828186035
1761399208682231000,11.90323095703125,-0.1007809266448021,-8.89954662322998,-3.701136589050293
1761399208692333600,11.91333349609375,-0.20477905869483948,-9.105073928833008,-3.9210290908813477
1761399208702417700,11.923417724609376,-0.4654477834701538,-9.170316696166992,-4.1052327156066895
1761399208712498700,11.933498779296874,-0.9267057180404663,-9.235259056091309,-4.508431434631348
1761399208722579200,11.9435791015625,-1.037063479423523,-9.26443862915039,-4.254720687866211
1761399208732634600,11.953634521484375,-1.130886197090149,-9.713874816894531,-4.358270168304443
1761399208742740500,11.963740478515625,-0.7526771426200867,-9.733701705932617,-4.522347927093506
1761399208752821000,11.973821044921875,-0.535702645778656,-10.491691589355469,-5.453916549682617
1761399208762898000,11.98389794921875,0.061949968338012695,-10.320281028747559,-4.8273091316223145
1761399208772982500,11.993982421875,0.812981128692627,-10.233266830444336,-4.640636444091797
1761399208783063600,12.0040634765625,0.7027730345726013,-10.42083740234375,-5.1675848960876465
1761399208793136000,12.01413623046875,-0.10302548855543137,-11.011457443237305,-6.633734226226807
1761399208803224600,12.024224609375,-1.2118401527404785,-11.933897972106934,-7.73783540725708
1761399208813305600,12.0343056640625,-1.890745997428894,-12.266692161560059,-7.891288757324219
1761399208823386600,12.04438671875,-2.0837037563323975,-12.225542068481445,-7.484349250793457
1761399208833467100,12.054467041015625,-1.31007719039917,-12.016722679138184,-6.156091213226318
1761399208843547400,12.06454736328125,0.36908116936683655,-11.862371444702148,-4.450222492218018
1761399208853628400,12.07462841796875,1.5342344045639038,-11.554118156433105,-2.896759510040283
1761399208863709400,12.08470947265625,1.6776620149612427,-10.803461074829102,-1.495104193687439
1761399208873790200,12.094790283203125,1.5055787563323975,-10.17528247833252,-0.8310124278068542
1761399208883871500,12.10487158203125,1.4433295726776123,-9.98404598236084,-0.5903951525688171
1761399208893951000,12.114950927734375,1.095272421836853,-10.424504280090332,-0.5594201683998108
1761399208904032000,12.125031982421875,0.4198082983493805,-10.683900833129883,-0.47644615173339844
1761399208914113000,12.135113037109376,0.08836100995540619,-10.943222999572754,-0.6483049392700195
1761399208924188700,12.145188720703125,0.11956045031547546,-11.498453140258789,-1.0300304889678955
1761399208934241500,12.155241455078125,0.36728549003601074,-12.029815673828125,-1.4952538013458252
1761399208944329500,12.16532958984375,0.3916764259338379,-12.131719589233398,-1.9477579593658447
1761399208954435300,12.175435302734375,0.30024784803390503,-11.989713668823242,-2.262894630432129
1761399208964515800,12.185515869140625,0.1818845123052597,-11.733308792114258,-2.6308536529541016
1761399208974596400,12.195596435546875,-0.0454898327589035,-11.157652854919434,-2.83750319480896
1761399208984672800,12.2056728515625,-0.4507084786891937,-10.384475708007812,-2.9046905040740967
1761399208994757600,12.215757568359376,-1.0549451112747192,-9.720159530639648,-3.0395138263702393
1761399209004838400,12.22583837890625,-0.9602993130683899,-9.312247276306152,-2.8843395709991455
1761399209014920000,12.235919921875,-0.9730933308601379,-9.206079483032227,-3.148076057434082
1761399209025000400,12.24600048828125,-0.9200468063354492,-9.182661056518555,-3.3249475955963135
1761399209035055900,12.256055908203125,-0.41352352499961853,-9.16664981842041,-3.6403088569641113
1761399209045162000,12.266161865234375,-0.013991116546094418,-9.339930534362793,-3.5924997329711914
1761399209055243000,12.276242919921875,0.3471592366695404,-9.433304786682129,-3.2282817363739014
1761399209065297700,12.286297607421876,0.502632737159729,-9.549273490905762,-2.8026375770568848
1761399209085484300,12.306484375,0.03778349608182907,-9.425373077392578,-2.0171897411346436
1761399209095531800,12.31653173828125,0.24323593080043793,-9.100809097290039,-1.9975872039794922
1761399209105645800,12.326645751953125,0.6675333380699158,-8.783727645874023,-1.4310592412948608
1761399209115726300,12.336726318359375,1.1012579202651978,-8.403273582458496,-0.9394248723983765
1761399209135888100,12.35688818359375,1.3966425657272339,-8.084171295166016,-0.38711249828338623
1761399209145968400,12.366968505859376,1.2044330835342407,-7.903484344482422,0.0008978256373666227
1761399209156049200,12.377049072265624,1.11195707321167,-7.3023152351379395,-1.0557681322097778
1761399209166130000,12.3871298828125,1.182137131690979,-6.985233306884766,-1.6585084199905396
1761399209176185600,12.397185546875,1.2413935661315918,-6.95807409286499,-1.6585832834243774
1761399209186291500,12.40729150390625,1.130811333656311,-6.685509204864502,-2.1838860511779785
1761399209196372700,12.417372802734375,1.2309190034866333,-6.442198276519775,-2.287959098815918
1761399209206428700,12.4274287109375,1.6443676948547363,-6.246547222137451,-1.8865561485290527
1761399209216533800,12.43753369140625,2.0208559036254883,-5.977872848510742,-1.4847043752670288
1761399209226614800,12.44761474609375,2.3632266521453857,-5.8005523681640625,-1.2413935661315918
1761399209236669700,12.457669677734375,2.603320360183716,-5.496713161468506,-1.152957797050476
1761399209246775600,12.467775634765625,2.699312686920166,-5.221155166625977,-1.1929857730865479
1761399209256856300,12.477856201171875,2.714426279067993,-5.261632442474365,-1.4571709632873535
1761399209266937600,12.4879375,2.7544541358947754,-5.617844581604004,-1.9486557245254517
1761399209277014500,12.4980146484375,2.7242274284362793,-6.142474174499512,-2.6384851932525635
1761399209287094300,12.50809423828125,2.9607295989990234,-6.800654888153076,-3.5610008239746094
1761399209297176600,12.518176513671875,4.0487446784973145,-7.6158061027526855,-4.562301158905029
1761399209307234600,12.528234619140624,5.022586345672607,-8.55949592590332,-5.4392523765563965
1761399209317340400,12.53834033203125,5.603329658508301,-9.464428901672363,-6.296152114868164
1761399209327417300,12.548417236328126,5.666326999664307,-10.233342170715332,-7.353116989135742
1761399209337502200,12.558502197265625,5.470451831817627,-10.979808807373047,-8.344840049743652
1761399209347582700,12.568582763671875,4.722787380218506,-11.413832664489746,-8.532485961914062
1761399209357663500,12.57866357421875,4.479102611541748,-10.891373634338379,-7.501931667327881
1761399209367699000,12.588698974609375,4.551976203918457,-9.548674583435059,-5.968969345092773
1761399209387905800,12.60890576171875,4.461819171905518,-7.019200801849365,-4.1926960945129395
1761399209397982200,12.618982177734376,4.2485857009887695,-5.763741493225098,-3.7434840202331543
1761399209408046600,12.629046630859374,4.37532901763916,-4.75271463394165,-3.5249383449554443
1761399209418104000,12.63910400390625,4.859181880950928,-5.1321210861206055,-3.3721582889556885
1761399209428228600,12.649228515625,3.974374771118164,-8.895581245422363,-3.9531261920928955
1761399209438284000,12.659283935546876,2.6268134117126465,-14.235249519348145,-5.845518112182617
1761399209448391000,12.669390869140624,1.7247231006622314,-18.525585174560547,-6.536619663238525
1761399209458466800,12.679466796875,0.6631938815116882,-20.635549545288086,-6.893430233001709
1761399209468551200,12.68955126953125,-0.28318917751312256,-18.72295570373535,-6.636427879333496
1761399209478632200,12.699632080078125,-0.23171383142471313,-13.487286567687988,-6.220809459686279
1761399209488712700,12.709712646484375,0.47315409779548645,-8.160037994384766,-4.651111125946045
1761399209498793700,12.719793701171875,0.7939023375511169,-4.440047264099121,-2.258330821990967
1761399209508874000,12.7298740234375,-0.33114802837371826,-2.370035171508789,-0.2762310206890106
1761399209518950700,12.73995068359375,-1.3821277618408203,-2.0085108280181885,1.0145429372787476
1761399209529035500,12.750035400390624,-1.8652327060699463,-3.3005566596984863,1.1612626314163208
1761399209539116000,12.760115966796874,-2.013897657394409,-5.209259033203125,0.721477746963501
1761399209549171700,12.770171630859375,-2.5768344402313232,-7.967229843139648,-0.15075989067554474
1761399209559277600,12.780277587890625,-3.308861494064331,-11.296965599060059,-1.8498948812484741
1761399209569333000,12.7903330078125,-4.051662445068359,-14.712967872619629,-4.282179355621338
1761399209579438800,12.80043896484375,-2.780416250228882,-15.696386337280273,-5.342361927032471
1761399209589515800,12.810515869140625,-1.0202292203903198,-13.695133209228516,-5.695207118988037
1761399209599600400,12.820600341796874,-0.05035305395722389,-9.929203033447266,-4.587664604187012
1761399209609680600,12.8306806640625,0.4595370888710022,-8.15180778503418,-3.3913867473602295
1761399209619761700,12.84076171875,0.7318027019500732,-8.073323249816895,-2.690708637237549
1761399209629842400,12.850842529296875,0.7953238487243652,-8.40417194366455,-1.9405752420425415
1761399209639923000,12.8609228515625,0.726415753364563,-8.851662635803223,-0.9983072876930237
1761399209649978600,12.870978515625,0.5920411944389343,-9.254861831665039,-0.5415384769439697
1761399209660084500,12.88108447265625,0.5280711054801941,-9.3096284866333,-0.48602294921875
1761399209670165200,12.891165283203126,0.3750666677951813,-9.399934768676758,-1.0259153842926025
1761399209680246500,12.90124658203125,0.36167410016059875,-9.008857727050781,-1.5248072147369385
1761399209690327000,12.9113271484375,0.3924994468688965,-8.514978408813477,-1.9513492584228516
1761399209700407300,12.9214072265625,0.42512044310569763,-8.089109420776367,-2.235436201095581
1761399209710488000,12.931488037109375,0.40708911418914795,-7.877148151397705,-2.570474863052368
1761399209720547000,12.941547119140624,0.251241534948349,-7.964237213134766,-2.9526493549346924
1761399209730649600,12.951649658203126,0.04870704188942909,-8.246079444885254,-3.4211645126342773
1761399209740730000,12.961730224609376,-0.1811363250017166,-8.569296836853027,-3.9864206314086914
1761399209750811400,12.971811279296874,-0.36982935667037964,-8.66431713104248,-4.411391258239746
1761399209760891400,12.981891357421874,-0.3074304759502411,-8.493131637573242,-4.5673136711120605
