time,seconds_elapsed,z,y,x
1761399196902920000,0.123919921875,0.18532617390155792,-9.576581954956055,-1.7726819515228271
1761399196912984300,0.133984375,0.19699791073799133,-9.591695785522461,-1.7470190525054932
1761399196923082000,0.14408203125,0.19041384756565094,-9.602020263671875,-1.7309329509735107
1761399196933162500,0.15416259765625,0.18457798659801483,-9.594239234924316,-1.7303344011306763
1761399196943268900,0.164268798828125,0.185101717710495,-9.59132194519043,-1.7677438259124756
1761399196953349400,0.174349365234375,0.20216040313243866,-9.594314575195312,-1.7624317407608032
1761399196963403800,0.18440380859375,0.20358195900917053,-9.619603157043457,-1.730484127998352
1761399196973510400,0.194510498046875,0.1958756297826767,-9.640178680419922,-1.6835726499557495
1761399196983566800,0.20456689453125,0.1817348748445511,-9.630227088928223,-1.6086790561676025
1761399196993671700,0.214671630859375,0.16849194467067719,-9.588777542114258,-1.552415370941162
1761399197003752700,0.224752685546875,0.14844051003456116,-9.56356430053711,-1.5276503562927246
1761399197013834000,0.234833984375,0.1629553586244583,-9.602245330810547,-1.5334113836288452
1761399197023914000,0.2449140625,0.16519992053508759,-9.642348289489746,-1.5587000846862793
1761399197033984300,0.254984375,0.18989011645317078,-9.673697471618652,-1.5826421976089478
1761399197044075800,0.26507568359375,0.18397943675518036,-9.683198928833008,-1.6013468503952026
1761399197054156300,0.27515625,0.1933317929506302,-9.66030502319336,-1.6185551881790161
1761399197064257500,0.285257568359375,0.2240075021982193,-9.614665031433105,-1.664044976234436
1761399197074317300,0.2953173828125,0.22213701903820038,-9.568501472473145,-1.7207576036453247
1761399197084373200,0.305373291015625,0.16018705070018768,-9.538125038146973,-1.7547253370285034
1761399197094454000,0.3154541015625,0.08312369138002396,-9.496301651000977,-1.8271499872207642
1761399197104559900,0.325559814453125,0.06965630501508713,-9.424251556396484,-1.8994249105453491
1761399197114615600,0.335615478515625,0.07668927311897278,-9.403152465820312,-2.0043208599090576
1761399197124702000,0.345701904296875,0.06569091230630875,-9.43719482421875,-2.058863878250122
1761399197134781000,0.355781005859375,0.04317044839262962,-9.450812339782715,-2.0504093170166016
1761399197144883500,0.365883544921875,0.07706336677074432,-9.452009201049805,-2.0504841804504395
1761399197154963000,0.375962890625,0.10848726332187653,-9.530793190002441,-2.1047277450561523
1761399197165028000,0.386028076171875,0.15390227735042572,-9.616984367370605,-2.1738603115081787
1761399197175102000,0.39610205078125,0.17702129483222961,-9.601572036743164,-2.177077531814575
1761399197185192700,0.406192626953125,0.15637129545211792,-9.52114200592041,-2.089763879776001
1761399197195286800,0.416286865234375,0.13991115987300873,-9.52473258972168,-2.0195839405059814
1761399197205367300,0.4263671875,0.1445499211549759,-9.591919898986816,-1.9571102857589722
1761399197215448300,0.4364482421875,0.15554828941822052,-9.638532638549805,-1.9573347568511963
1761399197225528600,0.446528564453125,0.1720084249973297,-9.655516624450684,-1.9827730655670166
1761399197235609600,0.456609619140625,0.16430209577083588,-9.654468536376953,-2.018686056137085
1761399197245689900,0.46668994140625,0.19812019169330597,-9.641525268554688,-2.0696377754211426
1761399197255770400,0.476770263671875,0.21921908855438232,-9.61788272857666,-2.189946413040161
1761399197265839600,0.486839599609375,0.2139817774295807,-9.597381591796875,-2.2976105213165283
1761399197275932400,0.496932373046875,0.18779519200325012,-9.579350471496582,-2.35843825340271
1761399197286013200,0.50701318359375,0.1621323525905609,-9.545008659362793,-2.3524527549743652
1761399197296093200,0.51709326171875,0.148889422416687,-9.482535362243652,-2.3303065299987793
1761399197306173700,0.527173583984375,0.16347908973693848,-9.49271011352539,-2.336815595626831
1761399197316254500,0.53725439453125,0.18143559992313385,-9.539322853088379,-2.437746286392212
1761399197326336000,0.5473359375,0.17155951261520386,-9.506402015686035,-2.5299229621887207
1761399197336417000,0.5574169921875,0.17387889325618744,-9.403226852416992,-2.6117746829986572
1761399197346497300,0.567497314453125,0.2397194504737854,-9.303643226623535,-2.675295829772949
1761399197356577300,0.577577392578125,0.3125181496143341,-9.268104553222656,-2.7456257343292236
1761399197366658300,0.587658203125,0.3225438594818115,-9.309554100036621,-2.7818379402160645
1761399197376739600,0.597739501953125,0.3374328017234802,-9.349283218383789,-2.8336873054504395
1761399197386820400,0.6078203125,0.30279168486595154,-9.37629222869873,-2.8393735885620117
1761399197396900400,0.617900390625,0.2695721387863159,-9.373823165893555,-2.8440871238708496
1761399197406985000,0.62798486328125,0.24346038699150085,-9.348684310913086,-2.818199872970581
1761399197417036500,0.63803662109375,0.24772505462169647,-9.32997989654541,-2.7781717777252197
1761399197427138300,0.64813818359375,0.31857845187187195,-9.312097549438477,-2.751311779022217
1761399197437222100,0.65822216796875,0.39878422021865845,-9.298181533813477,-2.7364230155944824
1761399197447304200,0.66830419921875,0.4420294761657715,-9.291447639465332,-2.7713632583618164
1761399197457384400,0.678384521484375,0.4463689923286438,-9.280823707580566,-2.815356731414795
1761399197467465700,0.6884658203125,0.42272624373435974,-9.26802921295166,-2.855010747909546
1761399197477546500,0.69854638671875,0.34177228808403015,-9.219696998596191,-2.8883798122406006
1761399197487623200,0.708623046875,0.27638065814971924,-9.18700122833252,-2.8871827125549316
1761399197497707500,0.71870751953125,0.18794482946395874,-9.217377662658691,-2.9170355796813965
1761399197507788300,0.728788330078125,0.08619125932455063,-9.23451042175293,-2.9285576343536377
1761399197517843700,0.73884375,0.033518824726343155,-9.253066062927246,-2.913818359375
1761399197527950000,0.7489501953125,-0.008155249990522861,-9.258302688598633,-2.840420961380005
1761399197538030600,0.759030517578125,0.028880057856440544,-9.257405281066895,-2.7875242233276367
1761399197548111000,0.769111083984375,0.025513211265206337,-9.243863105773926,-2.7554268836975098
1761399197558187800,0.779187744140625,0.02611176297068596,-9.246631622314453,-2.804807186126709
1761399197568273400,0.7892734375,0.023942016065120697,-9.22411060333252,-2.8720693588256836
1761399197578353400,0.799353515625,-0.010175357572734356,-9.205106735229492,-2.9059622287750244
1761399197588434700,0.8094345703125,-0.030451253056526184,-9.217676162719727,-2.9293806552886963
1761399197598489600,0.819489501953125,-0.06711246818304062,-9.279925346374512,-2.892868995666504
1761399197608595200,0.82959521484375,-0.11103110015392303,-9.36125373840332,-2.834585189819336
1761399197618671600,0.839671630859375,-0.1107318252325058,-9.397990226745605,-2.8067526817321777
1761399197628756700,0.8497568359375,-0.09112930297851562,-9.415572166442871,-2.783184766769409
1761399197638837800,0.859837646484375,-0.08387187868356705,-9.407042503356934,-2.780266761779785
1761399197648919000,0.8699189453125,-0.09083002805709839,-9.438691139221191,-2.8288989067077637
1761399197658999800,0.879999755859375,-0.10317512601613998,-9.513435363769531,-2.8621933460235596
1761399197669080000,0.890080078125,-0.11978490650653839,-9.559673309326172,-2.8768577575683594
1761399197679156500,0.900156494140625,-0.10429741442203522,-9.559523582458496,-2.880598783493042
1761399197689241600,0.91024169921875,-0.024166474118828773,-9.530868530273438,-2.921449899673462
1761399197699321900,0.92032177734375,0.07885901629924774,-9.549423217773438,-2.9718775749206543
1761399197709403400,0.9304033203125,0.12771569192409515,-9.57052230834961,-3.0475943088531494
1761399197719484400,0.940484375,0.11103110015392303,-9.492785453796387,-3.146205425262451
1761399197729564400,0.950564453125,0.10055647045373917,-9.39896297454834,-3.317016839981079
1761399197739645000,0.96064501953125,-0.00613514194265008,-9.261744499206543,-3.587486743927002
1761399197749721900,0.970721923828125,-0.17215806245803833,-9.219023704528809,-3.9157168865203857
1761399197759806700,0.980806640625,-0.32172083854675293,-9.438766479492188,-4.389544486999512
1761399197769886700,0.99088671875,-0.4513070285320282,-9.898826599121094,-4.995427131652832
1761399197779968300,1.00096826171875,-0.5537339448928833,-10.550573348999023,-5.461024284362793
1761399197790029600,1.011029541015625,-0.4721066355705261,-11.148076057434082,-5.635950565338135
1761399197810184400,1.031184326171875,0.7189338803291321,-11.569755554199219,-5.109899997711182
1761399197820290600,1.04129052734375,1.7514333724975586,-11.357943534851074,-4.698920249938965
1761399197830371600,1.05137158203125,2.3832781314849854,-11.014899253845215,-4.4264302253723145
1761399197840451800,1.061451904296875,2.6310031414031982,-10.919804573059082,-3.956343412399292
1761399197850532600,1.07153271484375,2.493037223815918,-10.833463668823242,-3.6565444469451904
1761399197860613000,1.081613037109375,2.036792278289795,-10.356493949890137,-3.339836597442627
1761399197870694700,1.091694580078125,1.7343746423721313,-9.743802070617676,-3.2029929161071777
1761399197880771300,1.101771240234375,1.5300445556640625,-9.452607154846191,-3.2089035511016846
1761399197890856400,1.1118564453125,1.4474445581436157,-9.512911796569824,-3.061809778213501
1761399197900936200,1.121936279296875,1.3815292119979858,-9.841216087341309,-2.638185739517212
1761399197911017200,1.132017333984375,1.30042564868927,-10.117597579956055,-2.1289689540863037
1761399197921097700,1.14209765625,1.393126130104065,-10.198101997375488,-1.6316484212875366
1761399197931178200,1.15217822265625,1.5988777875900269,-10.096123695373535,-1.2525415420532227
1761399197941256700,1.162256591796875,1.6561142206192017,-9.962797164916992,-1.1165210008621216
1761399197951340500,1.172340576171875,1.6319477558135986,-10.194809913635254,-1.09153151512146
1761399197961420800,1.1824208984375,1.4238766431808472,-10.893543243408203,-1.0096049308776855
1761399197971476200,1.192476318359375,1.0045171976089478,-11.88691234588623,-0.7228992581367493
1761399197981581800,1.202581787109375,0.6619219779968262,-12.587739944458008,-0.8666262030601501
1761399197991645400,1.2126455078125,0.6569091081619263,-11.949984550476074,-0.8203881978988647
1761399198001739500,1.222739501953125,0.39384618401527405,-10.51174259185791,-0.9941174387931824
1761399198011824400,1.232824462890625,0.1999906599521637,-9.263540267944336,-1.4710873365402222
1761399198021880300,1.24288037109375,0.3312976658344269,-8.384718894958496,-1.9054852724075317
1761399198031960300,1.252960205078125,0.5837363004684448,-8.144176483154297,-2.0276644229888916
1761399198042066400,1.26306640625,1.218573808670044,-8.084096908569336,-2.357839822769165
1761399198052121900,1.273121826171875,1.9031659364700317,-8.67598819732666,-2.2647652626037598
1761399198062227700,1.283227783203125,2.0823569297790527,-9.031377792358398,-2.2717981338500977
1761399198072283400,1.293283447265625,1.8825907707214355,-9.22747802734375,-1.8000656366348267
1761399198082381300,1.30338134765625,1.5156793594360352,-9.132607460021973,-1.4820857048034668
1761399198092445000,1.31344482421875,1.3085808753967285,-8.841787338256836,-1.66928231716156
1761399198102544600,1.323544677734375,1.1862521171569824,-8.527921676635742,-1.4590414762496948
1761399198112631600,1.333631591796875,1.2021137475967407,-8.065990447998047,-1.0563666820526123
1761399198122687500,1.3436875,1.2297966480255127,-7.438634872436523,-0.7776666283607483
1761399198132788500,1.35378857421875,1.3183072805404663,-6.8296098709106445,-0.5289689302444458
1761399198142848500,1.3638486328125,1.3789105415344238,-6.29712438583374,-0.3680337071418762
1761399198152909800,1.373909912109375,1.5726912021636963,-5.966799736022949,-0.9684545993804932
1761399198163035000,1.384034912109375,1.646312952041626,-5.810577869415283,-0.8467243909835815
1761399198173093600,1.39409375,1.642572045326233,-5.666252613067627,-0.9856629371643066
1761399198183196200,1.404196044921875,1.967136025428772,-5.841852188110352,-1.2764087915420532
1761399198193252000,1.414252197265625,2.4421606063842773,-6.5819597244262695,-0.6149357557296753
1761399198203334700,1.424334716796875,2.873116970062256,-6.650269508361816,-0.7583633661270142
1761399198213400800,1.43440087890625,3.2735471725463867,-6.5452985763549805,-0.6636427640914917
1761399198223519700,1.444519775390625,3.6629042625427246,-6.312163352966309,-0.6212205290794373
1761399198233575000,1.454574951171875,3.7624878883361816,-6.074613571166992,-0.91480952501297
1761399198243681800,1.464681884765625,3.6508584022521973,-6.081721305847168,-1.3813796043395996
1761399198253762000,1.474761962890625,3.601926803588867,-6.313210487365723,-2.0317046642303467
1761399198263847700,1.48484765625,3.9695115089416504,-6.777910232543945,-2.9333460330963135
1761399198273922800,1.4949228515625,5.339593410491943,-7.4398322105407715,-3.945420026779175
1761399198283979500,1.5049794921875,6.191929340362549,-8.322693824768066,-4.678195476531982
1761399198294085000,1.515085205078125,6.0813469886779785,-9.342175483703613,-5.609165668487549
1761399198304166000,1.525165771484375,5.7415947914123535,-10.837129592895508,-6.91610050201416
1761399198314236000,1.53523583984375,5.230507850646973,-12.485313415527344,-7.624335289001465
1761399198324332300,1.545332275390625,4.860678195953369,-13.216292381286621,-7.237821578979492
1761399198334365700,1.55536572265625,4.629637718200684,-13.136161804199219,-5.771297931671143
1761399198344488700,1.56548876953125,4.907963752746582,-12.16561222076416,-4.550180435180664
1761399198354569200,1.5755693359375,5.711517810821533,-10.795156478881836,-3.541473150253296
1761399198364649500,1.5856494140625,6.169783115386963,-9.134926795959473,-3.0171430110931396
1761399198374730000,1.59572998046875,5.918391704559326,-7.41289758682251,-2.9626002311706543
1761399198384785200,1.60578515625,5.604676723480225,-5.959990978240967,-3.2760908603668213
1761399198394891800,1.615891845703125,5.621286392211914,-4.799626350402832,-3.585167407989502
1761399198404972000,1.625971923828125,5.944204330444336,-4.38580322265625,-3.5975124835968018
1761399198415032600,1.636032470703125,4.803741455078125,-6.856095790863037,-2.967912197113037
1761399198425133300,1.64613330078125,3.8541409969329834,-12.4192476272583,-2.642300844192505
1761399198435191800,1.65619189453125,4.293402194976807,-17.222240447998047,-3.0353240966796875
1761399198445295900,1.6662958984375,4.038644313812256,-19.33774185180664,-3.1239094734191895
1761399198455376400,1.67637646484375,2.4305636882781982,-17.997512817382812,-3.137077569961548
1761399198465456400,1.686456298828125,0.010848726145923138,-13.398550987243652,-2.5246856212615967
1761399198475537200,1.696537109375,0.20477905869483948,-8.374468803405762,-1.1959037780761719
1761399198485574700,1.70657470703125,1.6837971210479736,-5.194145679473877,0.16392800211906433
1761399198515863600,1.736863525390625,-1.3582605123519897,-4.336422920227051,2.6280105113983154
1761399198536022000,1.75702197265625,-3.2408511638641357,-8.387785911560059,0.8429834842681885
1761399198546103000,1.76710302734375,-3.488950490951538,-13.478832244873047,-1.902118444442749
1761399198556182800,1.777182861328125,-2.4530839920043945,-15.2221097946167,-4.080467700958252
1761399198566263600,1.787263671875,-1.281272053718567,-14.326977729797363,-6.3880295753479
1761399198576332000,1.79733203125,-0.4008791446685791,-11.68310546875,-7.021744728088379
1761399198586399700,1.807399658203125,0.13519757986068726,-9.147047996520996,-6.256198883056641
1761399198596493600,1.81749365234375,0.5928642153739929,-7.861435890197754,-5.064933776855469
1761399198606587400,1.82758740234375,0.7600094079971313,-7.741950511932373,-3.4594717025756836
1761399198616642000,1.83764208984375,1.0115501880645752,-8.056937217712402,-1.7699884176254272
1761399198626748400,1.84774853515625,1.2175264358520508,-8.561290740966797,-0.6725462079048157
1761399198636829200,1.8578291015625,1.250671148300171,-8.964489936828613,-0.4721814692020416
1761399198646904600,1.867904541015625,0.9601497054100037,-9.13313102722168,-0.8599673509597778
1761399198656964900,1.87796484375,0.5892729163169861,-9.147421836853027,-1.652672529220581
1761399198667045400,1.88804541015625,0.3529951274394989,-9.031302452087402,-2.3226749897003174
1761399198677148200,1.898148193359375,0.3090016543865204,-8.989404678344727,-2.8224644660949707
1761399198687232800,1.908232666015625,0.37491703033447266,-8.810063362121582,-2.9094040393829346
1761399198697317400,1.9183173828125,0.37731122970581055,-8.556652069091797,-2.6710312366485596
1761399198707370200,1.928370361328125,0.2694973349571228,-8.502708435058594,-2.313472270965576
1761399198717467600,1.938467529296875,0.16475100815296173,-8.36601448059082,-1.921047568321228
1761399198727554800,1.948554931640625,0.06958148628473282,-8.41195297241211,-2.0184617042541504
1761399198737636600,1.95863671875,-0.012345102615654469,-8.57573127746582,-2.421435832977295
1761399198747716600,1.968716552734375,0.06090250611305237,-8.844106674194336,-3.0342764854431152
1761399198757797000,1.978797119140625,0.3051110804080963,-8.976086616516113,-3.559953451156616
1761399198767868400,1.988868408203125,0.661697506904602,-9.023820877075195,-3.8364837169647217
1761399198777954000,1.9989541015625,0.889296293258667,-9.002423286437988,-3.77565598487854
1761399198788040000,2.0090400390625,0.8865280151367188,-8.95573616027832,-3.570128917694092
1761399198798120400,2.019120361328125,0.815599799156189,-8.790162086486816,-3.314098834991455
1761399198808201200,2.029201171875,0.628477931022644,-8.692298889160156,-3.275641918182373
1761399198818300000,2.0392998046875,0.33107319474220276,-8.435894966125488,-3.2297780513763428
1761399198828354000,2.04935400390625,0.01967734470963478,-8.277204513549805,-3.2382326126098633
1761399198838421800,2.059421875,-0.20268413424491882,-8.146795272827148,-3.2713024616241455
1761399198858596000,2.07959619140625,-0.18068741261959076,-8.617480278015137,-3.0080151557922363
1761399198868685600,2.089685546875,-0.04257189854979515,-9.18513011932373,-2.5969605445861816
1761399198878766000,2.09976611328125,0.11641805619001389,-9.616011619567871,-2.0684406757354736
1761399198888821500,2.109821533203125,0.4216039478778839,-9.634865760803223,-1.576132893562317
1761399198898923300,2.11992333984375,0.8097639083862305,-9.559224128723145,-1.434126853942871
1761399198908982800,2.129982666015625,0.8890718221664429,-9.86418628692627,-2.1377227306365967
1761399198919063600,2.1400634765625,0.5296422839164734,-9.834781646728516,-2.9921536445617676
1761399198929170000,2.150169921875,-0.21832126379013062,-9.641824722290039,-3.6903626918792725
1761399198939226400,2.160226318359375,-0.7539491057395935,-9.682899475097656,-4.144063949584961
1761399198949330700,2.17033056640625,-0.6096236109733582,-9.997512817382812,-4.094234466552734
1761399198959371800,2.180371826171875,-0.003217208432033658,-10.147974014282227,-3.2187798023223877
1761399198969492000,2.190491943359375,0.31783026456832886,-10.168922424316406,-2.947636365890503
1761399198979547000,2.200546875,-0.21667525172233582,-10.184783935546875,-3.3663225173950195
1761399198989648000,2.21064794921875,-0.6230909824371338,-10.316540718078613,-4.055253982543945
1761399198999734300,2.220734375,-0.552312433719635,-10.452112197875977,-4.426055908203125
1761399199009792300,2.230792236328125,-0.44599488377571106,-10.769343376159668,-4.6489410400390625
1761399199019894000,2.24089404296875,-0.5153518915176392,-10.866982460021973,-4.809502124786377
1761399199029933000,2.25093310546875,-0.45811551809310913,-11.209427833557129,-6.129230976104736
1761399199040025000,2.261025146484375,-0.5193173289299011,-12.061240196228027,-7.865625858306885
1761399199050112500,2.271112548828125,-0.8138789534568787,-11.721412658691406,-8.266654968261719
1761399199060219400,2.281219482421875,-1.1957541704177856,-11.111340522766113,-8.452055931091309
1761399199070299100,2.291299072265625,-0.6850409507751465,-10.733954429626465,-7.873257637023926
1761399199080380400,2.30138037109375,-0.05985504388809204,-10.840047836303711,-6.279691696166992
1761399199090460400,2.31146044921875,0.5163993835449219,-10.797775268554688,-4.133364677429199
1761399199100529200,2.321529052734375,0.8468740582466125,-10.975170135498047,-2.7020809650421143
1761399199110623200,2.331623291015625,1.3664906024932861,-11.217582702636719,-1.3081319332122803
1761399199120703700,2.341703857421875,1.8278234004974365,-11.507057189941406,0.014514847658574581
1761399199130763000,2.351762939453125,1.9418472051620483,-11.943999290466309,1.0117746591567993
1761399199140841700,2.361841796875,1.2719944715499878,-12.285845756530762,1.453130841255188
1761399199150920200,2.371920166015625,0.13370120525360107,-12.207435607910156,1.4202853441238403
1761399199161022200,2.382022216796875,-0.6847416758537292,-11.923723220825195,1.0455927848815918
1761399199171106300,2.392106201171875,-1.1492916345596313,-11.190723419189453,0.2638859152793884
1761399199181187000,2.40218701171875,-1.3180828094482422,-10.238654136657715,-1.1025298833847046
1761399199191267800,2.412267822265625,-1.0527005195617676,-9.898752212524414,-2.694823741912842
1761399199201323500,2.422323486328125,-0.2718915343284607,-10.224886894226074,-3.804236888885498
1761399199211403800,2.43240380859375,0.42429742217063904,-10.81588077545166,-4.335226058959961
1761399199221515500,2.442515625,0.7965958118438721,-11.163639068603516,-4.650961399078369
1761399199231591400,2.45259130859375,0.7926303744316101,-10.801889419555664,-4.4782795906066895
1761399199241646300,2.462646240234375,0.6642413139343262,-10.239327430725098,-4.2801594734191895
1761399199251753000,2.4727529296875,0.43776482343673706,-9.374945640563965,-4.286369323730469
1761399199261833200,2.482833251953125,0.367584764957428,-9.036090850830078,-3.2169840335845947
1761399199271897300,2.4928974609375,0.21024084091186523,-8.778190612792969,-2.8010663986206055
1761399199281970000,2.502969970703125,0.13579612970352173,-8.820987701416016,-2.140491247177124
1761399199292049700,2.513049560546875,-0.019228432327508926,-8.727463722229004,-1.904737114906311
1761399199302156300,2.52315625,0.015562310814857483,-8.872014045715332,-1.1445780992507935
1761399199312236300,2.533236328125,-0.12382511794567108,-8.883834838867188,-0.9093477129936218
1761399199322277400,2.54327734375,-0.3240402340888977,-8.655562400817871,-0.9346364736557007
1761399199332372700,2.553372802734375,0.19370588660240173,-8.41584300994873,-0.918700098991394
1761399199342456300,2.563456298828125,0.6982839107513428,-8.139761924743652,-0.7357681393623352
1761399199352555500,2.573555419921875,0.9638158082962036,-7.905579090118408,-0.5663783550262451
1761399199362640400,2.583640380859375,1.1185411214828491,-7.657779216766357,-1.1566987037658691
1761399199372696000,2.593696044921875,1.220070242881775,-7.541884899139404,-1.4741548299789429
1761399199382801400,2.603801513671875,1.1468974351882935,-7.072995662689209,-1.6091279983520508
1761399199392866800,2.61386669921875,1.1229554414749146,-7.146617412567139,-0.5714660286903381
1761399199402963000,2.623962890625,1.3543699979782104,-6.958897113800049,-0.1545756459236145
1761399199413039600,2.63403955078125,1.516876459121704,-6.760103225708008,-0.13587094843387604
1761399199423121000,2.644120849609375,1.7256208658218384,-6.501828670501709,-0.38808512687683105
1761399199433205500,2.65420556640625,2.012251615524292,-6.1146416664123535,-0.18076223134994507
1761399199443286000,2.6642861328125,2.335618495941162,-5.615450382232666,0.114023856818676
1761399199453366300,2.6743662109375,2.7696423530578613,-5.1460371017456055,0.09127894043922424
1761399199463447300,2.684447265625,3.3168671131134033,-4.855665683746338,-0.17178396880626678
1761399199473527800,2.69452783203125,3.6583402156829834,-4.894721031188965,-0.8437316417694092
1761399199483605000,2.70460498046875,3.9827544689178467,-5.344306945800781,-1.775076150894165
1761399199493689300,2.714689453125,4.284648418426514,-6.0697503089904785,-2.711657762527466
1761399199503770400,2.724770263671875,4.38572883605957,-7.05369234085083,-3.7464020252227783
1761399199513850600,2.7348505859375,4.341211318969727,-8.49709701538086,-4.965873718261719
1761399199523931600,2.744931640625,3.942277669906616,-10.2770357131958,-6.339846134185791
1761399199534013000,2.755012939453125,4.168903827667236,-12.135235786437988,-7.619771480560303
1761399199544093200,2.76509326171875,4.912003993988037,-13.444639205932617,-8.490138053894043
1761399199554173700,2.775173583984375,5.581183433532715,-13.347599983215332,-8.341174125671387
1761399199564254000,2.78525390625,5.645976543426514,-11.880851745605469,-7.2224836349487305
1761399199574312700,2.795312744140625,5.483994007110596,-10.179471969604492,-5.990965843200684
1761399199584416000,2.805416015625,5.34512996673584,-8.614935874938965,-5.059920787811279
1761399199594496500,2.81549658203125,5.006575107574463,-7.083395481109619,-4.231901168823242
1761399199604577800,2.825577880859375,4.499303340911865,-5.606098175048828,-3.622950792312622
1761399199614658800,2.835658935546875,4.034529209136963,-4.274173736572266,-3.480196714401245
1761399199624738600,2.845738525390625,3.586364507675171,-3.335571765899658,-3.6146459579467773
1761399199634820900,2.85582080078125,4.020612716674805,-3.3702878952026367,-3.7188684940338135
1761399199644900000,2.865900146484375,2.989534854888916,-5.858611583709717,-2.812513589859009
1761399199654980600,2.875980712890625,1.4323312044143677,-11.38592529296875,-2.725499391555786
1761399199665061600,2.8860615234375,1.2270283699035645,-17.257854461669922,-3.918335437774658
1761399199675129300,2.89612939453125,1.0440963506698608,-21.867366790771484,-4.308590412139893
1761399199685223000,2.906222900390625,1.3563152551651,-23.396663665771484,-4.719270706176758
1761399199695303700,2.9163037109375,3.21331787109375,-19.52336883544922,-4.352434158325195
1761399199705384400,2.926384521484375,2.506579637527466,-12.044480323791504,-2.6378865242004395
1761399199715465000,2.93646484375,0.9578303098678589,-6.617124557495117,-0.9605985879898071
1761399199725546000,2.9465458984375,-0.8129063248634338,-3.539677619934082,-0.31221887469291687
1761399199735627300,2.956627197265625,-2.73305606842041,-2.4548797607421875,-0.6652888059616089
1761399199745707300,2.966707275390625,-3.5255367755889893,-2.935441017150879,-1.068711757659912
1761399199755787800,2.976787841796875,-3.664999008178711,-4.477306842803955,-1.660304069519043
1761399199765868500,2.98686865234375,-3.7538838386535645,-6.973785877227783,-2.3743746280670166
1761399199775949800,2.99694970703125,-3.3757495880126953,-10.489670753479004,-3.254243850708008
1761399199786005200,3.007005126953125,-2.327014446258545,-13.366230010986328,-3.9600844383239746
1761399199796110600,3.017110595703125,-0.9938929677009583,-14.124518394470215,-4.050615310668945
1761399199806192000,3.027192138671875,-0.07309797406196594,-12.609736442565918,-3.9116766452789307
1761399199816272100,3.037272216796875,0.6910264492034912,-10.211793899536133,-3.745279550552368
1761399199826353000,3.047352783203125,1.2178256511688232,-8.678606986999512,-3.0540287494659424
1761399199836412200,3.057412109375,1.1103110313415527,-8.358906745910645,-2.151414632797241
1761399199846507500,3.067507568359375,0.8920645713806152,-8.639552116394043,-1.1461492776870728
1761399199856572400,3.077572509765625,0.643815815448761,-9.147346496582031,-0.38209962844848633
1761399199866652400,3.08765234375,0.6166566014289856,-9.533711433410645,0.1505354344844818
1761399199876757000,3.097757080078125,0.6863877177238464,-9.707664489746094,0.19116203486919403
1761399199886837000,3.1078369140625,0.7690624594688416,-9.71230411529541,-0.2844610810279846
1761399199896905200,3.1179052734375,0.8301146030426025,-9.561393737792969,-0.9954641461372375
1761399199906975200,3.127975341796875,0.8769512176513672,-9.213486671447754,-1.5755343437194824
1761399199917055500,3.138055419921875,0.921318769454956,-8.69559097290039,-1.8705449104309082
1761399199927156200,3.14815625,0.7667431235313416,-8.245331764221191,-2.0697126388549805
1761399199937241300,3.158241455078125,0.4727051854133606,-7.937676429748535,-2.269852876663208
1761399199947321300,3.1683212890625,0.15749357640743256,-7.93707799911499,-2.5714473724365234
1761399199957402400,3.17840234375,-0.03000234067440033,-8.202534675598145,-2.835108995437622
1761399199967473000,3.188472900390625,-0.12135609984397888,-8.57924747467041,-3.1260793209075928
1761399199977538800,3.198538818359375,-0.05738602206110954,-8.837372779846191,-3.4204163551330566
1761399199987641000,3.20864111328125,0.11207856982946396,-8.804901123046875,-3.7723641395568848
1761399199997725200,3.21872509765625,0.2651578485965729,-8.564957618713379,-4.1128644943237305
1761399200007806200,3.22880615234375,0.4296844005584717,-8.340201377868652,-4.406378746032715
1761399200017887000,3.238886962890625,0.5874024033546448,-8.316858291625977,-4.6075663566589355
1761399200027968000,3.248968017578125,0.6316951513290405,-8.454225540161133,-4.632481098175049
1761399200038048500,3.259048583984375,0.5145289301872253,-8.667757987976074,-4.457928657531738
1761399200048125200,3.269125244140625,0.4190601110458374,-8.754473686218262,-4.038344860076904
1761399200058209800,3.279209716796875,0.37162500619888306,-8.806846618652344,-3.4519898891448975
1761399200068290300,3.289290283203125,0.39713820815086365,-8.808342933654785,-2.891148090362549
1761399200078370800,3.299370849609375,0.39713820815086365,-8.903886795043945,-2.243142604827881
1761399200088451600,3.30945166015625,0.41112932562828064,-9.178545951843262,-1.9087773561477661
1761399200098507500,3.319507568359375,0.22468087077140808,-9.548524856567383,-1.603142499923706
1761399200108613400,3.32961328125,-0.04900631681084633,-9.836952209472656,-1.5373767614364624
1761399200118668000,3.33966796875,-0.43851301074028015,-10.000804901123047,-2.046069860458374
1761399200128749300,3.349749267578125,-0.8328080773353577,-9.629329681396484,-2.6868181228637695
1761399200138829800,3.359829833984375,-1.2092963457107544,-9.629928588867188,-4.09670352935791
1761399200148910800,3.369910888671875,-1.488370418548584,-9.474454879760742,-4.490549564361572
1761399200158991000,3.3799912109375,-1.2195464372634888,-9.595586776733398,-4.576815605163574
1761399200169071000,3.390071044921875,-0.7778910994529724,-10.06933879852295,-4.572102069854736
1761399200179141000,3.40014111328125,-0.5053262114524841,-10.424653053283691,-4.322132587432861
1761399200189222100,3.41022216796875,-0.4271405339241028,-10.594865798950195,-3.8454620838165283
1761399200209404000,3.43040380859375,-0.21128830313682556,-10.815133094787598,-2.9753942489624023
1761399200219500500,3.44050048828125,0.018480245023965836,-10.881497383117676,-2.8424410820007324
1761399200229581600,3.45058154296875,0.09846154600381851,-10.7534818649292,-3.0667479038238525
1761399200239658500,3.460658447265625,-0.1462707668542862,-10.45862102508545,-3.6076130867004395
1761399200249742800,3.470742919921875,-0.596605122089386,-10.323573112487793,-4.7089457511901855
1761399200259823600,3.48082373046875,-1.067589521408081,-10.45899486541748,-6.156914234161377
1761399200269904600,3.490904541015625,-1.3819032907485962,-10.55334186553955,-7.192555904388428
1761399200279985000,3.50098486328125,-1.2272528409957886,-10.345569610595703,-7.799411296844482
1761399200290065700,3.511065673828125,-0.9540894031524658,-9.854384422302246,-7.8425068855285645
1761399200300146200,3.521146240234375,-0.6761375069618225,-9.321375846862793,-7.412747859954834
1761399200310223600,3.5312236328125,-0.08297405391931534,-9.254636764526367,-6.876521587371826
1761399200320307700,3.5413076171875,0.3323451280593872,-9.62259578704834,-6.039074420928955
1761399200330388700,3.551388671875,0.54460608959198,-10.27434253692627,-5.05722713470459
1761399200340446200,3.5614462890625,0.5545569658279419,-10.499472618103027,-3.903296947479248
1761399200350550800,3.57155078125,0.5658546090126038,-10.071209907531738,-2.4963293075561523
1761399200360631000,3.581631103515625,1.0680384635925293,-9.763778686523438,-1.329604983329773
1761399200370707500,3.59170751953125,1.3822773694992065,-10.035370826721191,-0.6004208922386169
1761399200380792300,3.601792236328125,1.2993032932281494,-10.561796188354492,-0.08207622915506363
1761399200390872800,3.611872802734375,0.6488286852836609,-11.397821426391602,-0.05903203412890434
1761399200400954400,3.621954345703125,-0.045340195298194885,-12.323180198669434,-0.3126677870750427
1761399200411034400,3.632034423828125,-0.6408230662345886,-12.484415054321289,-0.5534346699714661
1761399200421089500,3.642089599609375,-1.0989385843276978,-11.72545337677002,-1.0169371366500854
1761399200431188700,3.652188720703125,-1.3134441375732422,-10.880898475646973,-1.6442928314208984
1761399200441272600,3.6622724609375,-1.229946255683899,-10.62195110321045,-2.5219922065734863
1761399200451357200,3.672357177734375,-0.7159411311149597,-10.745551109313965,-3.3389387130737305
1761399200461437700,3.682437744140625,0.18959084153175354,-11.369091033935547,-4.199429988861084
1761399200471543000,3.69254296875,0.9047837853431702,-12.020463943481445,-4.751742362976074
1761399200481574100,3.70257421875,0.7911339998245239,-11.956193923950195,-4.875193119049072
1761399200491680300,3.71268017578125,0.5807435512542725,-11.104681968688965,-5.045032024383545
1761399200501741000,3.722740966796875,-0.3824737071990967,-10.160841941833496,-4.2544965744018555
1761399200511841500,3.732841552734375,-0.7553706169128418,-9.371953010559082,-3.5101990699768066
1761399200521922300,3.74292236328125,-0.3031657934188843,-8.830414772033691,-2.72841739654541
1761399200532003300,3.75300341796875,0.03149871528148651,-8.41696548461914,-2.200944662094116
1761399200542072800,3.76307275390625,-0.5695955753326416,-8.4131498336792,-2.0854244232177734
1761399200552132000,3.773132080078125,-0.4229506850242615,-8.924013137817383,-1.189170002937317
1761399200562207500,3.78320751953125,0.22296003997325897,-9.045967102050781,-0.35411739349365234
1761399200572325600,3.79332568359375,0.6344634294509888,-8.944961547851562,-0.157119482755661
1761399200582406700,3.80340673828125,0.6200982332229614,-8.89722728729248,0.18809446692466736
1761399200592488000,3.813488037109375,0.7719056010246277,-8.688109397888184,-0.15569792687892914
1761399200602567400,3.8235673828125,1.04604172706604,-8.479514122009277,-0.6722469329833984
1761399200612648700,3.833648681640625,1.3366379737854004,-8.333992004394531,-0.6786813735961914
1761399200622729200,3.843729248046875,1.6974890232086182,-8.245855331420898,-0.09524433314800262
1761399200632800300,3.85380029296875,1.7359458208084106,-7.629647254943848,-0.25004443526268005
1761399200642890500,3.863890380859375,1.743053674697876,-7.127164363861084,-0.14200608432292938
1761399200652971500,3.873971435546875,1.5971570014953613,-6.824073314666748,-0.050951603800058365
1761399200663052000,3.884052001953125,1.3453917503356934,-6.641889572143555,-0.09487023949623108
1761399200673087000,3.8940869140625,1.3325228691101074,-6.4351654052734375,-0.015412673354148865
1761399200683213600,3.904213623046875,1.4780454635620117,-6.0377278327941895,0.12322656810283661
1761399200693295000,3.914295166015625,1.862464427947998,-5.510778903961182,0.1315314620733261
1761399200703374800,3.924374755859375,2.170194149017334,-4.963254928588867,0.22460605204105377
1761399200713431600,3.934431640625,2.3086090087890625,-4.551153182983398,0.019003976136446
1761399200723536400,3.944536376953125,2.4309377670288086,-4.40697717666626,-0.6011691093444824
1761399200733618000,3.954617919921875,2.554762840270996,-4.564395904541016,-1.4927847385406494
1761399200743672800,3.9646728515625,2.830544948577881,-4.996474266052246,-2.361281394958496
1761399200753779200,3.974779296875,3.3202340602874756,-5.686154365539551,-3.141042947769165
1761399200763855000,3.984855224609375,3.9171383380889893,-6.712069511413574,-4.070067882537842
1761399200773914600,3.99491455078125,4.711564540863037,-8.042048454284668,-5.150301933288574
1761399200783995600,4.00499560546875,5.5411553382873535,-9.472135543823242,-6.260612964630127
1761399200794079500,4.01507958984375,6.166341304779053,-10.97352409362793,-7.449184417724609
1761399200804182800,4.025182861328125,6.312387466430664,-12.60427474975586,-8.952893257141113
1761399200814250200,4.035250244140625,6.228141784667969,-14.072818756103516,-10.371606826782227
1761399200824343600,4.045343505859375,5.434389114379883,-14.395137786865234,-10.614693641662598
1761399200834386400,4.055386474609375,4.757278919219971,-13.01203727722168,-9.316437721252441
1761399200844506000,4.065506103515625,4.459275722503662,-11.266589164733887,-7.5254998207092285
1761399200854585600,4.075585693359375,4.421940803527832,-9.821688652038574,-6.0010666847229
1761399200864667100,4.085667236328125,4.465111255645752,-8.378883361816406,-4.878335475921631
1761399200874747100,4.0957470703125,4.6547770500183105,-6.969371318817139,-3.8505496978759766
1761399200884828400,4.105828369140625,4.208258628845215,-7.028179168701172,-2.625391721725464
1761399200894909000,4.115908935546875,3.2019455432891846,-9.989657402038574,-2.0773441791534424
1761399200904989200,4.1259892578125,3.2997336387634277,-13.389273643493652,-1.2025625705718994
1761399200915070500,4.136070556640625,3.675398826599121,-15.112200736999512,-0.06180033087730408
1761399200925151000,4.14615087890625,2.9379847049713135,-14.956578254699707,-0.14335282146930695
1761399200935206400,4.156206298828125,0.6607248783111572,-12.58497142791748,-1.0954968929290771
1761399200945312000,4.16631201171875,1.5857096910476685,-8.98124885559082,-1.6657658815383911
1761399200955393800,4.176393798828125,2.0287866592407227,-6.290989398956299,-1.4668974876403809
1761399200965455400,4.186455322265625,0.8622118830680847,-5.346850872039795,-1.195828914642334
1761399200975554800,4.196554931640625,-0.8351274728775024,-6.030470371246338,-1.1912649869918823
1761399200985634800,4.206634765625,-2.2455368041992188,-7.496245384216309,-0.9997288584709167
1761399200995716000,4.216716064453125,-3.4053778648376465,-8.815899848937988,-0.8406640887260437
1761399201005796000,4.226796142578125,-3.659761667251587,-10.049811363220215,-1.1589432954788208
1761399201015878400,4.23687841796875,-3.036820411682129,-11.273846626281738,-1.8142063617706299
1761399201025958000,4.2469580078125,-1.9461866617202759,-12.02151107788086,-2.684274196624756
1761399201036039400,4.257039306640625,-0.7733271718025208,-11.690438270568848,-3.1447091102600098
1761399201046119000,4.267118896484375,-0.06239888072013855,-10.3310546875,-3.567734718322754
1761399201056188000,4.27718798828125,-0.2314893752336502,-9.499817848205566,-4.425906181335449
1761399201066281000,4.287281005859375,-0.010773907415568829,-9.269675254821777,-4.741491794586182
1761399201076361500,4.297361572265625,0.7864952683448792,-9.048885345458984,-4.631732940673828
1761399201086442800,4.30744287109375,1.0173112154006958,-8.858546257019043,-4.2229228019714355
1761399201096480000,4.31747998046875,0.8501660823822021,-8.704718589782715,-3.3022027015686035
1761399201106603500,4.327603515625,1.006163239479065,-8.640225410461426,-2.2671594619750977
1761399201116659500,4.337659423828125,1.2751368284225464,-8.791658401489258,-1.5150059461593628
1761399201126740200,4.347740234375,1.20600426197052,-9.060931205749512,-1.3563152551651
1761399201136846300,4.357846435546875,0.7953238487243652,-9.152284622192383,-1.2833669185638428
1761399201146926300,4.36792626953125,0.3630208373069763,-9.006612777709961,-1.4195371866226196
1761399201157006800,4.3780068359375,0.16018705070018768,-8.614412307739258,-1.6481834650039673
1761399201167063600,4.3880634765625,0.18315643072128296,-8.219294548034668,-1.947608232498169
1761399201177143300,4.398143310546875,0.10758943855762482,-8.028581619262695,-2.4159739017486572
1761399201187249700,4.408249755859375,-0.08035539090633392,-8.097564697265625,-3.021108388900757
1761399201197305000,4.41830517578125,-0.1843535304069519,-8.2289457321167,-3.5389294624328613
1761399201207411000,4.428410888671875,-0.3620481789112091,-8.542736053466797,-4.269759654998779
1761399201217466400,4.43846630859375,-0.19946692883968353,-8.629600524902344,-4.652382850646973
1761399201227572500,4.448572509765625,0.08776245266199112,-8.457367897033691,-4.828730583190918
1761399201237653000,4.458653076171875,0.40222588181495667,-8.358232498168945,-4.832845687866211
1761399201247734300,4.468734375,0.6130653023719788,-8.461557388305664,-4.503942489624023
1761399201257814300,4.478814208984375,0.8181436061859131,-8.649652481079102,-4.1064300537109375
1761399201267890700,4.488890625,1.0605565309524536,-8.795024871826172,-3.803638219833374
1761399201277976000,4.49897607421875,1.1367220878601074,-8.608501434326172,-3.723806619644165
1761399201288056000,4.50905615234375,0.8526350855827332,-8.173505783081055,-3.850848913192749
1761399201298137600,4.5191376953125,0.3785831332206726,-7.76364803314209,-3.9356935024261475
1761399201308218400,4.52921826171875,0.2795230448246002,-7.8203606605529785,-3.99188232421875
1761399201318309000,4.53930908203125,0.3976619243621826,-8.318204879760742,-4.020313739776611
1761399201328375300,4.549375244140625,0.45153146982192993,-8.725817680358887,-3.7050271034240723
1761399201338460200,4.559460205078125,0.3638438284397125,-9.245808601379395,-3.5678093433380127
1761399201348540700,4.569540771484375,0.18046295642852783,-9.329306602478027,-2.7804911136627197
1761399201358622000,4.5796220703125,0.030526071786880493,-9.311873435974121,-2.5888803005218506
1761399201368702200,4.5897021484375,-0.01182137057185173,-9.29773235321045,-3.2654666900634766
1761399201378782700,4.59978271484375,0.03868132084608078,-9.578153610229492,-4.443264484405518
1761399201388838100,4.609838134765625,0.18397943675518036,-9.475875854492188,-4.713809013366699
1761399201398941000,4.61994091796875,0.286930114030838,-9.619976997375488,-4.640860557556152
1761399201409000400,4.63000048828125,0.19550153613090515,-9.903764724731445,-4.1495256423950195
1761399201419106600,4.6401064453125,-0.01069908868521452,-10.101137161254883,-3.6762218475341797
1761399201429166600,4.65016650390625,-0.027832595631480217,-10.228777885437012,-3.4649336338043213
1761399201439270000,4.660269775390625,0.05424363166093826,-10.287285804748535,-3.853168249130249
1761399201449347600,4.67034765625,0.3241150677204132,-10.312575340270996,-4.613925933837891
1761399201459424800,4.6804248046875,0.6316951513290405,-10.380435943603516,-5.457881927490234
1761399201469510100,4.69051025390625,0.6650643348693848,-10.43692398071289,-6.245349884033203
1761399201479590400,4.70059033203125,0.5054010152816772,-10.580202102661133,-7.092523097991943
1761399201489671400,4.71067138671875,-0.02454056777060032,-10.51054573059082,-7.788113594055176
1761399201499751400,4.72075146484375,-0.30615854263305664,-9.996615409851074,-8.46859073638916
1761399201509832000,4.73083203125,-0.5591208934783936,-9.87458610534668,-9.015740394592285
1761399201519909400,4.740909423828125,-1.279700756072998,-10.06275463104248,-8.66214656829834
1761399201529993500,4.750993408203125,-1.0922049283981323,-10.598233222961426,-7.537769794464111
1761399201540075300,4.7610751953125,0.23612813651561737,-11.661558151245117,-5.919514179229736
1761399201550155300,4.7711552734375,2.0476410388946533,-12.877213478088379,-3.9833531379699707
1761399201560241700,4.78124169921875,3.341632127761841,-13.409849166870117,-2.119616746902466
1761399201570317300,4.7913173828125,3.177255392074585,-13.163994789123535,-0.7745990753173828
1761399201580390100,4.80139013671875,1.912069320678711,-12.359317779541016,-0.013916297815740108
1761399201590474200,4.81147412109375,0.22355858981609344,-11.70046329498291,0.236277773976326
1761399201600558600,4.82155859375,-1.2640637159347534,-11.564667701721191,0.12786532938480377
1761399201610640000,4.831639892578125,-2.019883155822754,-11.346197128295898,-0.2769044041633606
1761399201620695000,4.841695068359375,-2.171840190887451,-10.859201431274414,-1.5553332567214966
1761399201630802200,4.85180224609375,-1.5147066116333008,-10.597933769226074,-3.6908116340637207
1761399201640882000,4.8618818359375,-0.4346224367618561,-11.010185241699219,-5.733439922332764
1761399201650958600,4.87195849609375,-0.3373579978942871,-10.741211891174316,-6.3651347160339355
1761399201661043500,4.88204345703125,-0.539518415927887,-9.781286239624023,-6.815169811248779
1761399201671123200,4.892123291015625,-0.12913724780082703,-9.459864616394043,-7.139584064483643
1761399201681204200,4.902204345703125,0.02296937257051468,-9.670405387878418,-7.199065208435059
1761399201691285800,4.91228564453125,0.50644850730896,-9.877054214477539,-6.609792232513428
1761399201701388800,4.922388916015625,0.9084498882293701,-9.788020133972168,-4.853570461273193
1761399201711446000,4.932446044921875,0.6967126727104187,-9.104400634765625,-3.6822822093963623
1761399201721501700,4.942501708984375,-0.16475100815296173,-8.244359016418457,-3.2345664501190186
1761399201731607800,4.95260791015625,-0.9238625764846802,-7.759981632232666,-2.685845375061035
1761399201741663500,4.96266357421875,-1.3174095153808594,-7.345560550689697,-2.1787984371185303
1761399201751750400,4.97275048828125,-1.4281413555145264,-6.906448841094971,-1.8989012241363525
1761399201761849900,4.982849853515625,-0.7662941813468933,-6.537292957305908,-1.4420576095581055
1761399201771930600,4.9929306640625,0.15098434686660767,-6.2370452880859375,-1.1341034173965454
1761399201782007000,5.003007080078125,0.8672995567321777,-6.030245780944824,-1.3036428689956665
1761399201792091600,5.013091552734375,1.4769232273101807,-5.7970356941223145,-2.0263924598693848
1761399201802173400,5.02317333984375,1.6228197813034058,-6.005555629730225,-1.98726224899292
1761399201812243500,5.033243408203125,1.467121958732605,-6.52105712890625,-1.5295207500457764
1761399201822347800,5.04334765625,1.3597569465637207,-6.875174522399902,-1.4195371866226196
1761399201832414700,5.053414794921875,1.4030770063400269,-6.783970355987549,-1.4261212348937988
1761399201842477300,5.063477294921875,1.57486093044281,-6.47668981552124,-1.0092308521270752
1761399201852576800,5.07357666015625,1.8864065408706665,-6.068777561187744,-0.37409400939941406
1761399201862657000,5.083656982421875,2.249427318572998,-5.705532073974609,0.05297171324491501
1761399201872713000,5.093712890625,2.524461269378662,-5.50000524520874,0.1164928749203682
1761399201882818300,5.103818359375,2.680159091949463,-5.570783615112305,-0.0520738884806633
1761399201892898800,5.11389892578125,2.9011738300323486,-5.8611555099487305,-0.522908627986908
1761399201902980900,5.12398095703125,3.2539446353912354,-6.260463237762451,-1.0372878313064575
1761399201913056500,5.134056396484375,3.714977979660034,-6.784643650054932,-1.6479589939117432
1761399201923141600,5.1441416015625,3.9065141677856445,-7.420229434967041,-2.318260669708252
1761399201933222700,5.15422265625,3.8435914516448975,-8.11058235168457,-3.2106244564056396
1761399201943303200,5.16430322265625,3.634697437286377,-9.049782752990723,-4.388123035430908
1761399201953358300,5.1743583984375,3.6576669216156006,-10.342802047729492,-5.8447699546813965
1761399201963464700,5.184464599609375,3.8073792457580566,-11.837382316589355,-7.382969856262207
1761399201973545200,5.194545166015625,3.8686559200286865,-12.927416801452637,-8.630797386169434
1761399201983625500,5.20462548828125,3.779771089553833,-12.987421989440918,-9.192687034606934
1761399201993706000,5.2147060546875,3.5440919399261475,-11.671209335327148,-8.982820510864258
1761399202003787000,5.224787109375,2.9793596267700195,-9.684770584106445,-8.1348237991333
1761399202013884000,5.2348837890625,2.2317700386047363,-7.7736735343933105,-6.899266242980957
1761399202023949000,5.244948974609375,1.482010841369629,-6.549862384796143,-5.579312801361084
1761399202034029600,5.255029541015625,1.1204863786697388,-6.422296524047852,-4.319065093994141
1761399202044110300,5.2651103515625,1.2450597286224365,-8.039055824279785,-3.4695723056793213
1761399202054168000,5.27516796875,0.33780691027641296,-11.392135620117188,-3.698667526245117
1761399202064273700,5.285273681640625,-1.3441946506500244,-14.734366416931152,-4.674978256225586
1761399202074352600,5.2953525390625,-1.752106785774231,-15.101277351379395,-4.559757232666016
1761399202084415000,5.3054150390625,1.8222119808197021,-12.14129638671875,-2.986168146133423
1761399202094514000,5.315513916015625,4.869956016540527,-8.676587104797363,-1.2125135660171509
1761399202104594200,5.32559423828125,3.1595232486724854,-6.539836883544922,-0.6477063894271851
1761399202114675200,5.33567529296875,0.5923404693603516,-5.470302104949951,-0.7095066905021667
1761399202124731000,5.34573095703125,-0.5327098965644836,-6.050895690917969,-0.737937867641449
1761399202134820900,5.35582080078125,-0.4265419840812683,-8.189067840576172,-1.2680290937423706
1761399202144891600,5.3658916015625,-1.2413188219070435,-10.504410743713379,-2.4961798191070557
1761399202154998000,5.375998046875,-2.339658737182617,-12.04694938659668,-3.7222354412078857
1761399202165079300,5.386079345703125,-2.6263644695281982,-12.169278144836426,-4.702137470245361
1761399202175137300,5.39613720703125,-1.311798095703125,-11.305794715881348,-5.034931182861328
1761399202185240300,5.406240234375,-0.23403321206569672,-9.684770584106445,-4.894795894622803
1761399202195320600,5.416320556640625,0.3667617738246918,-8.650176048278809,-4.793715476989746
1761399202205401300,5.4264013671875,0.6527940630912781,-8.329876899719238,-4.395230770111084
1761399202215457000,5.43645703125,0.5629366636276245,-8.41771411895752,-3.5820250511169434
1761399202225563400,5.4465634765625,0.6077531576156616,-8.718859672546387,-2.5097968578338623
1761399202235644400,5.45664453125,0.5727379322052002,-9.040056228637695,-1.934814214706421
1761399202245724000,5.466723876953125,0.3291279077529907,-9.368511199951172,-1.783829927444458
1761399202255805200,5.47680517578125,0.29718029499053955,-9.214609146118164,-1.6586580276489258
1761399202265886000,5.486885986328125,0.5552303194999695,-8.741230010986328,-1.6268600225448608
1761399202275940900,5.49694091796875,0.5499181747436523,-8.5811185836792,-1.6852935552597046
1761399202286047700,5.5070478515625,0.5198410153388977,-8.257377624511719,-1.6926257610321045
1761399202296128500,5.51712841796875,0.054842181503772736,-8.138864517211914,-1.8962076902389526
1761399202306169900,5.527169921875,-0.2643348276615143,-8.167669296264648,-2.432359218597412
1761399202316290000,5.5372900390625,-0.339752197265625,-8.240917205810547,-3.31118106842041
1761399202336426500,5.557426513671875,0.0917278528213501,-8.6205472946167,-4.376825332641602
1761399202346530800,5.56753076171875,0.6099228858947754,-8.597503662109375,-4.298938751220703
1761399202356612000,5.577612060546875,0.9994295835494995,-8.293290138244629,-4.000262260437012
1761399202366692600,5.587692626953125,1.0135703086853027,-7.936105251312256,-3.632228374481201
1761399202386854700,5.607854736328125,-0.00396539643406868,-7.905728816986084,-3.4700961112976074
1761399202396909600,5.61790966796875,-0.23672668635845184,-8.132055282592773,-3.730914354324341
1761399202407012400,5.628012451171875,-0.20477905869483948,-8.286182403564453,-4.253000259399414
1761399202417093000,5.638093017578125,-0.07414543628692627,-8.212261199951172,-4.723685264587402
1761399202427175400,5.648175537109375,0.034267012029886246,-8.1918363571167,-4.891129493713379
1761399202437259300,5.65825927734375,-0.22468087077140808,-8.037485122680664,-4.79857873916626
1761399202447313400,5.6683134765625,-0.6238391995429993,-8.585232734680176,-5.385532379150391
1761399202457419300,5.678419189453125,-0.6501753926277161,-8.346261978149414,-4.3633575439453125
1761399202467471000,5.68847119140625,-0.4909609854221344,-9.03055477142334,-2.846705913543701
1761399202477576700,5.69857666015625,-0.3189525604248047,-9.506327629089355,-1.4748282432556152
1761399202487661800,5.708661865234375,-1.0514286756515503,-12.039243698120117,-3.4932150840759277
1761399202497742600,5.71874267578125,-0.8780734539031982,-11.89963150024414,-3.3207578659057617
1761399202507822600,5.728822509765625,-0.33675941824913025,-10.899752616882324,-3.6098575592041016
1761399202517903000,5.738903076171875,-0.5987000465393066,-10.602498054504395,-4.7713446617126465
1761399202527984600,5.748984619140625,-1.0528502464294434,-10.61656379699707,-5.998373031616211
1761399202538064400,5.759064453125,-1.0452934503555298,-10.385298728942871,-6.6956095695495605
1761399202548141800,5.769141845703125,-0.7511059641838074,-10.13173770904541,-6.78928279876709
1761399202558226200,5.77922607421875,-0.5315127968788147,-10.297311782836914,-6.5901899337768555
1761399202568308000,5.789307861328125,-0.5625625848770142,-10.801365852355957,-6.4462385177612305
1761399202578388500,5.799388427734375,-0.5165489912033081,-11.295394897460938,-6.860809326171875
1761399202588446200,5.8094462890625,-0.25258827209472656,-11.526434898376465,-7.106813430786133
1761399202598549200,5.81954931640625,-0.6800280809402466,-10.925116539001465,-7.187019348144531
1761399202608626000,5.8296259765625,-1.531840205192566,-10.31474494934082,-7.4834513664245605
1761399202618710800,5.839710693359375,-0.9244611263275146,-10.349834442138672,-7.031022071838379
1761399202628791300,5.849791259765625,0.5148282051086426,-11.323526382446289,-6.045583724975586
1761399202638872000,5.8598720703125,0.30376434326171875,-11.561899185180664,-4.192546367645264
1761399202648927700,5.869927734375,0.4017769694328308,-11.245715141296387,-2.48600435256958
1761399202659007700,5.8800078125,0.9417442679405212,-11.614272117614746,-1.0489596128463745
1761399202669114600,5.890114501953125,1.9076550006866455,-12.76565933227539,0.14649522304534912
1761399202679190800,5.900190673828125,2.0045454502105713,-13.773693084716797,1.2111667394638062
1761399202689275600,5.910275634765625,1.3123966455459595,-13.719449043273926,2.1581482887268066
1761399202699356700,5.920356689453125,-0.029628245159983635,-12.960561752319336,2.630030632019043
1761399202709412000,5.930412109375,-1.163806438446045,-11.966519355773926,2.6821043491363525
1761399202719495700,5.94049560546875,-1.2300959825515747,-11.170597076416016,2.1945102214813232
1761399202729598200,5.95059814453125,-0.18151041865348816,-10.808025360107422,1.1757774353027344
1761399202739676000,5.960676025390625,0.87897127866745,-10.808998107910156,-0.13355156779289246
1761399202749760000,5.970760009765625,1.4495395421981812,-10.947636604309082,-1.350853443145752
1761399202759840500,5.980840576171875,1.5392472743988037,-10.783708572387695,-2.252345323562622
1761399202769921000,5.990921142578125,1.1765257120132446,-10.370859146118164,-2.7813141345977783
1761399202780002600,6.00100244140625,0.7028478384017944,-9.81600284576416,-2.8982560634613037
1761399202790083300,6.011083251953125,0.6863877177238464,-9.444751739501953,-2.833986520767212
1761399202800159700,6.02115966796875,1.3364135026931763,-9.14585018157959,-2.591573715209961
1761399202810244000,6.031244140625,1.0503063201904297,-8.941071510314941,-2.3294835090637207
1761399202820325400,6.041325439453125,0.6881833672523499,-8.703970909118652,-2.0599112510681152
1761399202830380800,6.051380859375,0.8318354487419128,-8.56069278717041,-1.4672715663909912
1761399202840486400,6.061486328125,0.8857797980308533,-8.435445785522461,-1.0613046884536743
1761399202850557200,6.07155712890625,0.8343044519424438,-8.286182403564453,-0.826972246170044
1761399202860647400,6.0816474609375,0.7707833051681519,-7.9814453125,-0.7807341814041138
1761399202870704400,6.091704345703125,0.7827543020248413,-7.542857646942139,-0.6981342434883118
1761399202880809000,6.10180908203125,0.8717138767242432,-7.053467750549316,-0.49477675557136536
1761399202890890500,6.111890380859375,0.9320178031921387,-6.556596279144287,-0.2106897532939911
1761399202900945000,6.12194482421875,0.9926958680152893,-6.076483726501465,-0.0014963760040700436
1761399202911051000,6.132051025390625,1.2867337465286255,-5.735459804534912,0.2530371844768524
1761399202921132000,6.142132080078125,1.5587749481201172,-5.588291168212891,0.42863690853118896
1761399202931209200,6.152209228515625,1.7795652151107788,-5.554996967315674,0.5532850623130798
1761399202941293000,6.16229296875,1.9447650909423828,-5.460949420928955,0.5055506229400635
1761399202951374800,6.172374755859375,2.0108301639556885,-5.450026035308838,0.4106804132461548
1761399202961455000,6.182455078125,2.024522066116333,-5.469179630279541,0.27488428354263306
1761399202971516200,6.19251611328125,2.052429437637329,-5.54317569732666,0.1586906760931015
1761399202981616600,6.20261669921875,2.1522376537323,-5.54325008392334,-0.08918401598930359
1761399202991696600,6.212696533203125,2.3487865924835205,-5.4392523765563965,-0.3503016233444214
1761399203001773600,6.222773681640625,2.502314805984497,-5.4374566078186035,-0.9271546006202698
1761399203011858200,6.232858154296875,2.7171945571899414,-5.699172496795654,-1.6441432237625122
1761399203021938400,6.2429384765625,3.223268747329712,-6.32525634765625,-2.4885482788085938
1761399203032019700,6.253019775390625,4.162544250488281,-7.377133846282959,-3.6594624519348145
1761399203042100200,6.263100341796875,5.551630020141602,-8.720206260681152,-4.938938617706299
1761399203052181000,6.273180908203125,6.908843040466309,-10.189273834228516,-6.170755386352539
1761399203062258000,6.2832578125,7.223979949951172,-11.800047874450684,-7.652691841125488
1761399203072342500,6.293342529296875,7.099406719207764,-14.271686553955078,-9.808520317077637
1761399203082423600,6.303423583984375,6.872481346130371,-16.415470123291016,-11.280580520629883
1761399203092495400,6.313495361328125,6.7008466720581055,-15.357457160949707,-10.843488693237305
1761399203102585900,6.3235859375,5.681814670562744,-13.071667671203613,-9.61099910736084
1761399203112665000,6.3336650390625,5.43027400970459,-10.959234237670898,-7.589395046234131
1761399203122720800,6.343720703125,5.784914970397949,-8.377161979675293,-5.972411155700684
1761399203132809000,6.35380908203125,5.736881256103516,-5.395707607269287,-4.985476016998291
1761399203142889500,6.363889404296875,5.416656970977783,-2.664372444152832,-4.388347148895264
1761399203152989000,6.373989013671875,5.730297088623047,-0.7723544836044312,-3.5963902473449707
1761399203163068700,6.384068603515625,5.0178728103637695,-1.840916633605957,-2.6821792125701904
1761399203173150200,6.394150146484375,3.3988685607910156,-7.964012622833252,-2.5121161937713623
1761399203183230500,6.40423046875,2.579901933670044,-14.693964004516602,-2.417919158935547
1761399203193307400,6.414307373046875,1.4529063701629639,-19.24242401123047,-1.9078046083450317
1761399203203392000,6.42439208984375,-0.1289876103401184,-19.939659118652344,-2.678363561630249
1761399203213472800,6.43447265625,-0.6392518281936646,-16.161161422729492,-3.111340045928955
1761399203223553500,6.444553466796875,0.937629222869873,-10.932673454284668,-3.544840097427368
1761399203233634800,6.454634765625,1.2826935052871704,-7.689726829528809,-2.5813982486724854
1761399203243685400,6.464685302734375,-0.03628711774945259,-5.753490924835205,-1.3929765224456787
1761399203253796000,6.474796142578125,-1.5834650993347168,-4.150947093963623,-1.1875988245010376
1761399203263876400,6.48487646484375,-2.0185365676879883,-4.84982967376709,-0.21540333330631256
1761399203273984000,6.49498388671875,-2.0341737270355225,-6.228815078735352,1.3562403917312622
1761399203284036900,6.505036865234375,-2.3056161403656006,-7.367931365966797,2.162712335586548
1761399203294118700,6.51511865234375,-2.7404630184173584,-9.405546188354492,1.2804490327835083
1761399203304198400,6.525198486328125,-3.5660886764526367,-12.62387752532959,-1.1310358047485352
1761399203314280000,6.535280029296875,-3.7001638412475586,-14.733243942260742,-3.0900914669036865
1761399203324360200,6.545360107421875,-2.8090720176696777,-13.663933753967285,-3.63342547416687
1761399203334419200,6.555419189453125,-1.7269675731658936,-11.043255805969238,-4.172794342041016
1761399203344522200,6.565522216796875,-0.6841431260108948,-9.381305694580078,-4.559906959533691
1761399203354602800,6.575602783203125,0.01646013744175434,-8.840365409851074,-4.908412933349609
1761399203364683500,6.58568359375,0.48811787366867065,-8.918551445007324,-4.39964485168457
1761399203374764300,6.595764404296875,0.6679074764251709,-9.345915794372559,-3.044975757598877
1761399203384835300,6.60583544921875,0.5330091714859009,-9.572466850280762,-1.5990275144577026
1761399203394900200,6.615900146484375,0.49066171050071716,-9.70078182220459,-0.7891887426376343
1761399203404981000,6.62598095703125,0.2983773946762085,-9.725846290588379,-0.7217021584510803
1761399203415066000,6.636066162109375,-0.22857144474983215,-9.350180625915527,-0.7668179273605347
1761399203425142300,6.646142333984375,-0.5823147296905518,-8.957232475280762,-1.0353425741195679
1761399203435222500,6.656222412109375,-0.8821136951446533,-8.593313217163086,-1.5337105989456177
1761399203445292000,6.6662919921875,-1.0857704877853394,-8.337732315063477,-2.2146365642547607
1761399203455363600,6.676363525390625,-1.1222820281982422,-8.260294914245605,-2.9521255493164062
1761399203465474000,6.68647412109375,-1.1990461349487305,-8.27623176574707,-3.5393035411834717
1761399203475555000,6.69655517578125,-1.3264625072479248,-8.344615936279297,-4.0015339851379395
1761399203485651500,6.7066513671875,-1.2015899419784546,-8.36960506439209,-4.456881046295166
1761399203495732200,6.716732177734375,-0.8809913992881775,-8.267552375793457,-4.80665922164917
1761399203505787600,6.72678759765625,-0.4439747631549835,-8.041450500488281,-4.94776725769043
1761399203515894300,6.736894287109375,0.030376434326171875,-7.774122714996338,-4.955473899841309
1761399203525974300,6.746974365234375,0.44173020124435425,-7.622689247131348,-4.949189186096191
1761399203536055300,6.75705517578125,0.7579144835472107,-7.726163864135742,-4.950311183929443
1761399203546113500,6.767113525390625,0.9305214285850525,-8.051475524902344,-4.857835292816162
1761399203556216600,6.777216552734375,0.8999205827713013,-8.411279678344727,-4.7264533042907715
1761399203566298000,6.787298095703125,0.7093570828437805,-8.69095230102539,-4.619088649749756
1761399203576377900,6.7973779296875,0.46260467171669006,-8.89565658569336,-4.41505765914917
1761399203586458600,6.807458740234375,0.2843862771987915,-8.995389938354492,-4.05390739440918
1761399203596539100,6.8175390625,0.1636287271976471,-9.09265422821045,-3.7310640811920166
1761399203606598100,6.82759814453125,0.20343232154846191,-8.75065803527832,-3.147627115249634
1761399203616701000,6.837700927734375,-0.004040215164422989,-8.770259857177734,-2.947711229324341
1761399203626758100,6.847758056640625,0.31685763597488403,-8.830265045166016,-2.991405487060547
1761399203636862500,6.857862548828125,0.06015431880950928,-9.122133255004883,-3.810596466064453
1761399203646943000,6.86794287109375,-0.32216978073120117,-9.088838577270508,-4.782118797302246
1761399203657000200,6.878000244140625,-0.44846391677856445,-8.97189712524414,-5.65495491027832
1761399203667101000,6.888100830078125,-0.4097825884819031,-8.822408676147461,-5.884872913360596
1761399203677184000,6.89818408203125,-0.2785504162311554,-8.88682746887207,-5.460425853729248
1761399203687265800,6.908265869140625,-0.2849099934101105,-9.187150001525879,-4.766631126403809
1761399203697343000,6.918343017578125,-0.609399139881134,-9.646313667297363,-4.107776641845703
1761399203707427800,6.928427734375,-0.8762030005455017,-10.216133117675781,-4.317419052124023
1761399203717503700,6.938503662109375,-0.9991303086280823,-10.420687675476074,-4.829104900360107
1761399203727589400,6.94858935546875,-0.5286696553230286,-10.29738712310791,-4.843320369720459
1761399203737670700,6.958670654296875,0.0909048467874527,-10.171167373657227,-4.706925868988037
1761399203747724500,6.968724609375,0.1288379728794098,-10.289979934692383,-4.454038143157959
1761399203757827300,6.978827392578125,-0.33092355728149414,-10.269180297851562,-4.260033130645752
1761399203767911200,6.9889111328125,-0.3382558226585388,-10.315268516540527,-5.1331682205200195
1761399203777993000,6.998992919921875,-0.10534487664699554,-11.065999984741211,-6.6379241943359375
1761399203788048100,7.009048095703125,-0.3189525604248047,-10.6971435546875,-6.978424549102783
1761399203798153500,7.019153564453125,-0.42452189326286316,-10.541669845581055,-7.437138557434082
1761399203808235300,7.0292353515625,0.5630863308906555,-11.283573150634766,-7.563432693481445
1761399203818314800,7.039314697265625,1.1989712715148926,-11.91586685180664,-5.90589714050293
1761399203828392200,7.04939208984375,1.6646435260772705,-11.778499603271484,-3.829899787902832
1761399203848558000,7.06955810546875,1.968033790588379,-11.0701904296875,-0.7330746054649353
1761399203858638300,7.079638427734375,1.6930747032165527,-11.948488235473633,0.07392098009586334
1761399203868718800,7.08971875,1.1819874048233032,-12.889558792114258,0.8482207655906677
1761399203878799000,7.099799072265625,0.31027358770370483,-13.3634614944458,1.5126866102218628
1761399203888876000,7.1098759765625,-0.11611878126859665,-13.403115272521973,1.5071499347686768
1761399203898961200,7.119961181640625,-0.28969839215278625,-12.628665924072266,0.8898948431015015
1761399203909041200,7.130041259765625,-0.3000234067440033,-11.488576889038086,-0.2712929844856262
1761399203919122700,7.140122802734375,0.010848726145923138,-10.798896789550781,-1.4098855257034302
1761399203929202700,7.15020263671875,0.6994061470031738,-10.821118354797363,-2.4054245948791504
1761399203939283700,7.16028369140625,1.0951976776123047,-11.299210548400879,-3.230825662612915
1761399203949340400,7.17034033203125,1.016637921333313,-11.489175796508789,-3.505859375
1761399203959441000,7.18044091796875,0.6732195615768433,-11.097798347473145,-3.6186113357543945
1761399203969526500,7.190526611328125,0.46238020062446594,-10.313323020935059,-3.641730308532715
1761399203979607300,7.200607177734375,0.8127566576004028,-9.440262794494629,-3.554192304611206
1761399203989665800,7.210665771484375,1.4903157949447632,-8.691999435424805,-3.4444332122802734
1761399203999768600,7.2207685546875,1.4952538013458252,-8.159289360046387,-3.1698482036590576
1761399204009823200,7.2308232421875,0.801459014415741,-7.81377649307251,-2.7795934677124023
1761399204019925800,7.24092578125,-0.13452421128749847,-7.551985740661621,-2.282197952270508
1761399204030010600,7.2510107421875,-0.4049193561077118,-7.369427680969238,-1.7069909572601318
1761399204040046800,7.261046875,-0.24443303048610687,-7.352144718170166,-1.2433388233184814
1761399204050171100,7.271171142578125,0.10975918173789978,-7.4333977699279785,-0.9394997358322144
1761399204060252700,7.281252685546875,0.5493944883346558,-7.39748477935791,-0.7813327312469482
1761399204070332400,7.29133251953125,1.2727426290512085,-7.421651363372803,-0.6982090473175049
1761399204080410000,7.30141015625,1.8288707733154297,-7.259369373321533,-0.8901193141937256
1761399204090494200,7.311494140625,1.8425626754760742,-7.528866291046143,-0.17672201991081238
1761399204100574500,7.321574462890625,1.5501707792282104,-7.460556983947754,0.4787655174732208
1761399204110656000,7.331656005859375,1.21101713180542,-6.964433670043945,0.6727706789970398
1761399204120735700,7.34173583984375,0.9646388292312622,-6.285078525543213,0.8575730919837952
1761399204130817500,7.351817626953125,0.7971943616867065,-5.639392375946045,0.5760299563407898
1761399204140897500,7.3618974609375,0.7287351489067078,-5.155240058898926,0.6530185341835022
1761399204150960400,7.37196044921875,0.9314192533493042,-4.637269496917725,0.564807116985321
1761399204161059800,7.382059814453125,1.202487826347351,-4.415506362915039,0.4397101104259491
1761399204171140600,7.392140625,1.412354588508606,-4.4462571144104,0.2131587713956833
1761399204181195500,7.402195556640625,1.6609774827957153,-4.665775299072266,-0.19228433072566986
1761399204191301400,7.41230126953125,1.9307740926742554,-4.973355293273926,-0.6306477189064026
1761399204201358000,7.422358154296875,2.2455368041992188,-5.444115161895752,-1.22141695022583
1761399204211459000,7.432458984375,2.6464908123016357,-6.08628511428833,-2.060659408569336
1761399204221543400,7.44254345703125,3.3387889862060547,-7.051597595214844,-3.295992851257324
1761399204231598800,7.452598876953125,4.556988716125488,-8.421305656433105,-4.773589134216309
1761399204241731300,7.4627314453125,6.024933815002441,-10.217031478881836,-6.507814407348633
1761399204251786000,7.472785888671875,6.709974765777588,-12.707823753356934,-8.68055248260498
1761399204261866800,7.48286669921875,6.592883110046387,-15.746066093444824,-11.48386287689209
1761399204271940400,7.4929404296875,6.6617913246154785,-17.606584548950195,-13.338546752929688
1761399204282023700,7.503023681640625,7.105766296386719,-15.603161811828613,-12.835614204406738
1761399204292115700,7.51311572265625,5.997325420379639,-12.244919776916504,-10.357391357421875
1761399204302189800,7.52318994140625,4.9053449630737305,-10.003647804260254,-7.408034324645996
1761399204312228600,7.533228515625,4.745382785797119,-8.199767112731934,-5.488183498382568
1761399204322350300,7.543350341796875,5.1495537757873535,-6.436437129974365,-4.41273832321167
1761399204332431600,7.553431640625,5.463867664337158,-4.8698811531066895,-3.374253273010254
1761399204342508000,7.563508056640625,5.402067184448242,-4.025102138519287,-2.169071912765503
1761399204352593200,7.57359326171875,4.479701042175293,-5.532701015472412,-1.8093430995941162
1761399204362673200,7.583673095703125,3.951704740524292,-9.272817611694336,-2.2160580158233643
1761399204372754400,7.59375439453125,3.726200819015503,-12.241253852844238,-1.9812767505645752
1761399204382835200,7.603835205078125,3.136329412460327,-13.999944686889648,-1.4093618392944336
1761399204392915700,7.613915771484375,2.087893486022949,-15.399805068969727,-1.4966753721237183
1761399204402992600,7.62399267578125,0.13190555572509766,-14.65670394897461,-2.522665500640869
1761399204413077500,7.634077392578125,-1.6837223768234253,-11.261202812194824,-3.845611572265625
1761399204423133200,7.64413330078125,-1.286135196685791,-8.378957748413086,-3.7001638412475586
1761399204433238800,7.65423876953125,-0.5894225239753723,-6.902857780456543,-2.1552305221557617
1761399204443319800,7.66431982421875,-0.9106196761131287,-5.964180946350098,-0.6195744872093201
1761399204453400600,7.674400634765625,-1.5774048566818237,-6.49060583114624,0.39474400877952576
1761399204463480800,7.684480712890625,-1.4511854648590088,-7.5266218185424805,1.7051953077316284
1761399204473561300,7.694561279296875,-1.0109516382217407,-8.164302825927734,2.7137527465820312
1761399204483641600,7.7046416015625,-1.045817255973816,-8.915633201599121,2.3504326343536377
1761399204493723100,7.71472314453125,-2.1927895545959473,-10.697667121887207,-0.10040683299303055
1761399204503803100,7.72480322265625,-3.8500258922576904,-13.580211639404297,-3.3108067512512207
1761399204513883600,7.734883544921875,-3.5749919414520264,-15.229591369628906,-5.094786167144775
1761399204523965000,7.74496484375,-2.2923734188079834,-13.335329055786133,-5.341389179229736
1761399204534020400,7.755020263671875,-1.342399001121521,-10.636764526367188,-4.924274444580078
1761399204544125200,7.765125244140625,-0.6733692288398743,-8.996886253356934,-4.411316394805908
1761399204554207200,7.775207275390625,0.10975918173789978,-8.550067901611328,-3.911377429962158
1761399204564259600,7.785259521484375,0.4596118927001953,-8.707412719726562,-2.962674856185913
1761399204574368800,7.79536865234375,0.317381352186203,-9.116222381591797,-1.9284546375274658
1761399204584448800,7.80544873046875,-0.42676645517349243,-9.29421615600586,-1.1211597919464111
1761399204594530300,7.8155302734375,-0.9748889803886414,-9.495628356933594,-0.9152584075927734
1761399204604610300,7.8256103515625,-1.342399001121521,-9.427842140197754,-1.2941408157348633
1761399204614666800,7.835666748046875,-1.6676362752914429,-8.912565231323242,-1.891943097114563
1761399204624746500,7.84574658203125,-2.0470423698425293,-8.297479629516602,-2.7007343769073486
1761399204634827300,7.8558271484375,-2.326341152191162,-7.949422836303711,-3.6502597332000732
1761399204644934000,7.865933837890625,-2.6904094219207764,-7.781230449676514,-4.613776206970215
1761399204654982000,7.87598193359375,-2.9349920749664307,-7.79604434967041,-5.532626152038574
1761399204665095400,7.886095458984375,-2.3157167434692383,-8.079981803894043,-5.936797142028809
1761399204675149800,7.89614990234375,-0.9353846907615662,-8.42811393737793,-6.171802997589111
1761399204685256400,7.90625634765625,0.4287865459918976,-8.543259620666504,-5.969268798828125
1761399204695311600,7.9163115234375,1.6131682395935059,-7.770157337188721,-4.568136692047119
1761399204705417500,7.92641748046875,1.5511434078216553,-8.576704025268555,-4.630760192871094
1761399204715498800,7.936498779296875,1.228973627090454,-9.181838035583496,-4.905045986175537
1761399204725578800,7.946578857421875,1.090409278869629,-9.127220153808594,-4.788403511047363
1761399204735660000,7.956659912109375,1.3988871574401855,-8.525827407836914,-4.378695487976074
1761399204745740000,7.966739990234375,1.3432220220565796,-8.128389358520508,-4.471395969390869
1761399204755821600,7.976821533203125,0.9908254146575928,-7.916353225708008,-4.732588768005371
1761399204765901800,7.98690185546875,0.49140989780426025,-7.7364888191223145,-4.766631126403809
1761399204775982600,7.996982666015625,0.2404676377773285,-7.610942840576172,-4.638317108154297
1761399204786064000,8.00706396484375,0.25670331716537476,-7.731326103210449,-4.365452766418457
1761399204796144400,8.017144287109375,0.4018518030643463,-7.994015216827393,-3.991433620452881
1761399204806224600,8.027224609375,0.6820482015609741,-8.238224029541016,-3.4899978637695312
1761399204816261600,8.03726171875,0.8596680760383606,-8.804377555847168,-3.4170496463775635
1761399204826361000,8.047361083984375,0.5981014966964722,-9.273566246032715,-3.6281135082244873
1761399204836467200,8.05746728515625,0.01346738450229168,-9.126397132873535,-3.7847840785980225
1761399204846547500,8.06754736328125,-0.5029320120811462,-8.81432819366455,-3.686546802520752
1761399204856627700,8.077627685546876,-0.9151836037635803,-8.670825958251953,-3.2508769035339355
1761399204866708500,8.08770849609375,-1.0335469245910645,-8.720505714416504,-2.6093804836273193
1761399204876786200,8.0977861328125,-0.6141875386238098,-8.983942985534668,-1.9438673257827759
1761399204886870500,8.10787060546875,0.16819266974925995,-9.445051193237305,-1.446397066116333
1761399204896952300,8.117952392578125,0.8949825167655945,-9.818172454833984,-1.2014403343200684
1761399204907028500,8.128028564453125,1.3005003929138184,-10.02796459197998,-1.3137433528900146
1761399204917086700,8.138086669921876,1.336039423942566,-10.067543029785156,-2.155080795288086
1761399204927191000,8.14819091796875,0.7653215527534485,-9.892916679382324,-3.327491521835327
1761399204937274400,8.1582744140625,-0.1761234551668167,-9.424625396728516,-4.45246696472168
1761399204947356000,8.16835595703125,-0.9525181651115417,-8.778789520263672,-5.233575344085693
1761399204957436000,8.178435791015625,-1.3504793643951416,-8.425495147705078,-5.837512493133545
1761399204967490000,8.188489990234375,-1.5274258852005005,-8.404022216796875,-6.182651996612549
1761399204977593000,8.198593017578125,-1.490989089012146,-8.611868858337402,-6.3512187004089355
1761399204987677400,8.208677490234376,-1.1828104257583618,-8.8047513961792,-6.31141471862793
1761399204997758200,8.21875830078125,-0.7751228213310242,-8.970549583435059,-6.219836711883545
1761399205017919200,8.238919189453124,-0.9665841460227966,-9.54658031463623,-6.468833923339844
1761399205028000000,8.249,-1.353696584701538,-9.946710586547852,-6.708253860473633
1761399205038077400,8.259077392578124,-1.5982792377471924,-10.830994606018066,-7.389329433441162
1761399205048162000,8.269162109375,-1.9277064800262451,-11.057022094726562,-7.629048824310303
1761399205058214100,8.279214111328125,-2.793734073638916,-11.02051067352295,-7.68082332611084
1761399205068323300,8.2893232421875,-2.276810884475708,-11.807379722595215,-7.001468658447266
1761399205078404400,8.299404296875,-0.35426703095436096,-13.601011276245117,-4.373533248901367
1761399205088442400,8.3094423828125,1.4348750114440918,-15.239991188049316,-0.8697685599327087
1761399205098565600,8.319565673828125,2.479794502258301,-15.129409790039062,1.4958523511886597
1761399205108641800,8.329641845703126,2.252943754196167,-13.867889404296875,2.2602760791778564
1761399205118726700,8.3397265625,1.8020108938217163,-13.410672187805176,2.2519712448120117
1761399205128761900,8.349761962890625,1.227552056312561,-13.40939998626709,2.111910343170166
1761399205138862800,8.35986279296875,0.6976853609085083,-12.883349418640137,1.9329438209533691
1761399205148953000,8.369953125,-0.2934393584728241,-11.711761474609375,1.7529296875
1761399205159033900,8.380033935546875,-0.9924713969230652,-10.413729667663574,1.5316904783248901
1761399205169110800,8.39011083984375,-0.9384522438049316,-9.607183456420898,1.196128249168396
1761399205179212000,8.4002119140625,-0.31206923723220825,-9.573065757751465,0.8239794969558716
1761399205189270500,8.4102705078125,0.7214028835296631,-10.386570930480957,0.17470189929008484
1761399205199373000,8.420373046875,1.4416835308074951,-11.034650802612305,-0.35015198588371277
1761399205209452800,8.430452880859375,1.5207669734954834,-11.08298397064209,-0.9935188889503479
1761399205219533300,8.440533203125,1.171587586402893,-10.587384223937988,-1.5196447372436523
1761399205229614300,8.4506142578125,0.2718167006969452,-9.817049980163574,-1.7192612886428833
1761399205249775400,8.470775390625,-0.22438159584999084,-8.993818283081055,-1.9367595911026
1761399205259860500,8.480860595703126,0.2899228632450104,-9.02599048614502,-2.268805503845215
1761399205269937000,8.49093701171875,0.4655225872993469,-9.232041358947754,-2.084077835083008
1761399205279992600,8.50099267578125,0.3457376956939697,-9.543736457824707,-1.6485575437545776
1761399205290098400,8.511098388671876,0.19318215548992157,-9.711854934692383,-1.1861025094985962
1761399205300175600,8.521175537109375,0.3711012601852417,-9.527800559997559,-1.204882025718689
1761399205310260700,8.5312607421875,0.9225906729698181,-9.404424667358398,-0.9983820915222168
1761399205320340500,8.541340576171875,1.4264953136444092,-8.941520690917969,-1.0726771354675293
1761399205330421500,8.55142138671875,1.8150293827056885,-8.474052429199219,-1.3709049224853516
1761399205340502300,8.561502197265625,1.9311481714248657,-7.982044219970703,-0.9511714577674866
1761399205350582500,8.57158251953125,1.9397523403167725,-7.3664350509643555,-0.4589385390281677
1761399205360660000,8.581659912109375,1.857825756072998,-6.759280204772949,-0.08484452217817307
1761399205370723300,8.591723388671875,1.8889503479003906,-6.169633388519287,0.4017769694328308
1761399205380825600,8.60182568359375,1.9343653917312622,-5.8051910400390625,0.42025721073150635
1761399205390905600,8.611905517578125,1.8211644887924194,-5.690119743347168,0.6531681418418884
1761399205400961000,8.6219609375,1.5738883018493652,-5.519981861114502,0.40559273958206177
1761399205411067400,8.6320673828125,1.2541875839233398,-5.426682472229004,-0.10669161379337311
1761399205421147600,8.642147705078125,1.020453691482544,-5.433715343475342,-0.6329670548439026
1761399205431203800,8.652203857421876,0.8762778043746948,-5.6187424659729,-1.2156559228897095
1761399205441309200,8.66230908203125,0.8863035440444946,-5.480627059936523,-1.599102258682251
1761399205451389400,8.672389404296876,0.9841665625572205,-5.278316974639893,-1.9078794717788696
1761399205461471000,8.682470947265625,1.1173440217971802,-5.226916313171387,-2.36883807182312
1761399205471526000,8.69252587890625,1.2120646238327026,-5.4054341316223145,-2.9816789627075195
1761399205481632800,8.7026328125,1.3861680030822754,-5.845219135284424,-3.5802292823791504
1761399205491708400,8.71270849609375,1.7987936735153198,-6.465691089630127,-4.261604309082031
1761399205501794000,8.7227939453125,2.4320600032806396,-7.263858318328857,-5.012485504150391
1761399205511874300,8.732874267578126,3.389216899871826,-8.101005554199219,-5.885396480560303
1761399205521954800,8.742954833984374,4.377124309539795,-8.85779857635498,-7.0272064208984375
1761399205532036000,8.7530361328125,5.317297458648682,-9.70549488067627,-8.144250869750977
1761399205542075100,8.7630751953125,5.920262336730957,-11.11074161529541,-9.415647506713867
1761399205552197400,8.773197265625,5.966724872589111,-12.659192085266113,-10.505233764648438
1761399205562274300,8.7832744140625,5.884124755859375,-12.668095588684082,-10.483161926269531
1761399205572366600,8.79336669921875,5.3751325607299805,-11.47922420501709,-9.264962196350098
1761399205582439700,8.803439697265626,5.13967752456665,-10.77196216583252,-7.876250267028809
1761399205592519700,8.813519775390626,5.839008808135986,-10.439766883850098,-7.104793548583984
1761399205602601200,8.823601318359374,6.828487873077393,-9.754351615905762,-6.901136875152588
1761399205612681000,8.833680908203124,6.998401165008545,-8.335188865661621,-5.934926509857178
1761399205632818700,8.853818603515625,5.20170259475708,-4.371139049530029,-3.1028854846954346
1761399205642897700,8.863897705078125,4.774337291717529,-4.522347927093506,-2.1221604347229004
1761399205653004300,8.87400439453125,4.148627758026123,-7.552883148193359,-1.385270118713379
1761399205663059500,8.8840595703125,3.4235587120056152,-12.157681465148926,-1.3641712665557861
1761399205673165600,8.89416552734375,3.60334849357605,-16.712799072265625,-0.9429413676261902
1761399205683246300,8.904246337890624,3.881075859069824,-19.39423179626465,-0.2635118365287781
1761399205693326800,8.914326904296875,2.2968623638153076,-18.18313980102539,-0.5795464515686035
1761399205703407400,8.924407470703125,-0.3832967281341553,-13.47411823272705,-1.7281646728515625
1761399205713488100,8.934488037109375,-1.9197008609771729,-7.920767307281494,-2.6431987285614014
1761399205723570000,8.94456982421875,-1.6684592962265015,-5.234173774719238,-1.8102409839630127
1761399205733650200,8.954650146484376,-1.4348750114440918,-4.260033130645752,-1.1376947164535522
1761399205743730200,8.964730224609376,-2.1266496181488037,-4.460996150970459,-0.7115268111228943
1761399205753811200,8.974811279296874,-2.549525499343872,-6.574552536010742,-0.1429787278175354
1761399205763865300,8.984865234375,-2.1522376537323,-8.812532424926758,0.8585457801818848
1761399205773972700,8.99497265625,-1.73287832736969,-9.88049602508545,1.4765490293502808
1761399205784054000,9.005053955078125,-2.3285107612609863,-10.968062400817871,0.5562030076980591
1761399205794134000,9.015134033203125,-3.512742757797241,-12.238784790039062,-1.4511854648590088
1761399205804214300,9.02521435546875,-3.7113118171691895,-12.493094444274902,-2.858527183532715
1761399205814296000,9.035296142578124,-2.9106760025024414,-11.414356231689453,-3.6617069244384766
1761399205824376600,9.04537646484375,-2.1472997665405273,-10.153060913085938,-4.235118389129639
1761399205834443300,9.055443359375,-1.2956372499465942,-9.610475540161133,-4.439972400665283
1761399205844537900,9.065537841796875,-0.5542576909065247,-9.424176216125488,-4.480897903442383
1761399205854618000,9.0756181640625,0.10137947648763657,-9.466897964477539,-3.763984441757202
1761399205864699600,9.08569970703125,0.5042787194252014,-9.570746421813965,-2.452709913253784
1761399205874779400,9.095779296875,0.5386205911636353,-9.54889965057373,-1.3189806938171387
1761399205884861200,9.105861083984376,-0.07324761152267456,-9.571195602416992,-0.7237222790718079
1761399205894941000,9.11594091796875,-0.9141361117362976,-9.429413795471191,-0.44030866026878357
1761399205905022500,9.1260224609375,-1.521889328956604,-9.358261108398438,-0.564956784248352
1761399205915102700,9.136102783203125,-1.8076223134994507,-9.179668426513672,-1.10926353931427
1761399205925183500,9.14618359375,-1.9267338514328003,-8.79345417022705,-1.805153250694275
1761399205935264800,9.1562646484375,-2.1232080459594727,-8.385168075561523,-2.766948938369751
1761399205945345000,9.166344970703125,-2.3947253227233887,-8.144250869750977,-3.6479403972625732
1761399205955426300,9.17642626953125,-2.93656325340271,-8.117615699768066,-4.390068054199219
1761399205965506600,9.186506591796874,-3.029039144515991,-8.179415702819824,-4.754360675811768
1761399205975561500,9.1965615234375,-2.3814077377319336,-8.182109832763672,-5.107056617736816
1761399205985668000,9.206668212890625,-1.5919196605682373,-8.084919929504395,-5.493046760559082
1761399205995703600,9.21670361328125,-0.8394669890403748,-8.081403732299805,-5.705906391143799
1761399206005823700,9.22682373046875,-0.582614004611969,-8.388160705566406,-5.863175392150879
1761399206015885600,9.236885498046876,-0.395043283700943,-8.83482837677002,-5.86003303527832
1761399206025990000,9.246989990234376,0.35905542969703674,-9.072378158569336,-5.543998718261719
1761399206036071700,9.25707177734375,0.6929717659950256,-9.616535186767578,-5.0189948081970215
1761399206046128000,9.267128173828125,0.5972784757614136,-9.489044189453125,-4.330886363983154
1761399206056233000,9.27723291015625,0.25909751653671265,-9.305289268493652,-4.016348361968994
1761399206066312700,9.287312744140625,-0.1164928749203682,-9.163357734680176,-4.042759418487549
1761399206076394500,9.29739453125,-0.4116530418395996,-8.927005767822266,-4.099247455596924
1761399206086474800,9.307474853515625,-0.26156654953956604,-8.785971641540527,-4.325499534606934
1761399206096555800,9.3175556640625,-0.03643675893545151,-8.568099975585938,-4.24933385848999
1761399206106636800,9.32763671875,0.13272856175899506,-8.231115341186523,-4.012607097625732
1761399206116698400,9.337698486328126,0.2646341025829315,-8.083573341369629,-4.0586957931518555
1761399206126798000,9.347798095703125,0.19901801645755768,-8.511162757873535,-4.580032825469971
1761399206136878600,9.357878662109375,0.1942296177148819,-8.599224090576172,-4.7317657470703125
1761399206146934500,9.3679345703125,0.08230068534612656,-8.458415031433105,-4.585644245147705
1761399206157037600,9.37803759765625,-0.40462008118629456,-8.478391647338867,-4.484564304351807
1761399206167115800,9.38811572265625,-0.7054665088653564,-8.545279502868652,-4.276194095611572
1761399206177198300,9.3981982421875,-0.3043628931045532,-9.123254776000977,-3.9322519302368164
1761399206187256300,9.40825634765625,0.06052841246128082,-9.922245025634766,-3.57057785987854
1761399206197358300,9.4183583984375,0.1363946795463562,-10.377817153930664,-3.16087007522583
1761399206207442700,9.428442626953125,-0.01107318326830864,-10.355895042419434,-3.0137763023376465
1761399206217524000,9.43852392578125,-0.19557635486125946,-9.985542297363281,-3.079990863800049
1761399206227579400,9.448579345703125,-0.195950448513031,-9.649530410766602,-3.349114179611206
1761399206237686000,9.45868603515625,-0.0776619166135788,-9.578527450561523,-3.538555383682251
1761399206247766500,9.4687666015625,0.04017769545316696,-9.737966537475586,-3.6170401573181152
1761399206257843000,9.478843017578125,0.20388123393058777,-9.390357971191406,-3.450568437576294
1761399206267927000,9.488927001953124,-0.0002992752124555409,-10.930503845214844,-5.0406174659729
1761399206278008600,9.499008544921875,-0.7136217355728149,-11.207931518554688,-5.586196422576904
1761399206288089300,9.50908935546875,-0.9056068062782288,-10.840047836303711,-6.277970790863037
1761399206298169900,9.519169921875,-0.05978022515773773,-10.507253646850586,-7.284134387969971
1761399206308250600,9.529250732421875,-0.33339259028434753,-10.528651237487793,-8.143427848815918
1761399206318326500,9.539326416015625,-1.2053309679031372,-10.800094604492188,-8.713098526000977
1761399206328412200,9.549412109375,-1.2755109071731567,-11.036072731018066,-8.43978500366211
1761399206338493400,9.559493408203124,-0.17836803197860718,-11.615619659423828,-7.255403995513916
1761399206348562400,9.5695625,0.4397101104259491,-11.872621536254883,-5.1367597579956055
1761399206358654000,9.579654052734375,0.8105120658874512,-11.248483657836914,-2.81475830078125
1761399206368734700,9.589734619140625,1.5713444948196411,-10.833088874816895,-1.3868412971496582
1761399206378790400,9.599790283203125,2.0260183811187744,-11.274295806884766,-0.43941083550453186
1761399206388891100,9.60989111328125,1.904437780380249,-12.263923645019531,0.45332711935043335
1761399206398953000,9.619952880859374,0.9481038451194763,-12.735282897949219,1.332223653793335
1761399206409057800,9.630057861328124,0.03696049004793167,-12.35108757019043,1.4011317491531372
1761399206419138600,9.640138671875,-0.8212111592292786,-11.087099075317383,0.5942109227180481
1761399206429218300,9.65021826171875,-1.525330901145935,-9.630152702331543,-0.7228244543075562
1761399206439299000,9.660299072265625,-1.4827589988708496,-8.82779598236084,-2.400486469268799
1761399206449375700,9.670375732421874,-0.3034650683403015,-9.09834098815918,-4.179677486419678
1761399206459461000,9.680461181640625,0.6506243348121643,-9.701005935668945,-5.358073711395264
1761399206469542000,9.6905419921875,0.7904606461524963,-10.116100311279297,-5.682188987731934
1761399206479622700,9.70062255859375,0.7387608885765076,-10.177302360534668,-5.5487871170043945
1761399206489678000,9.710677978515625,0.919747531414032,-9.857377052307129,-5.521328449249268
1761399206499758600,9.720758544921875,1.3215245008468628,-9.960328102111816,-4.659565448760986
1761399206509865000,9.730864990234375,1.5391724109649658,-9.856030464172363,-3.9821560382843018
1761399206519919600,9.740919677734375,1.4766238927841187,-9.412055969238281,-3.3489644527435303
1761399206530026000,9.75102587890625,0.9739911556243896,-8.818143844604492,-2.8342111110687256
1761399206540106200,9.761106201171875,0.5143792629241943,-8.206275939941406,-2.506579637527466
1761399206550187000,9.77118701171875,0.5551555156707764,-7.729979515075684,-2.4135797023773193
1761399206560226600,9.7812265625,0.8667758107185364,-7.362095355987549,-2.301800489425659
1761399206570331100,9.7913310546875,1.2311433553695679,-7.126416206359863,-2.3354690074920654
1761399206580425200,9.80142529296875,1.577255129814148,-7.134346961975098,-2.614842414855957
1761399206590509600,9.811509521484375,1.818171739578247,-7.340173721313477,-2.921973466873169
1761399206600590300,9.82159033203125,2.0540006160736084,-7.43377161026001,-3.130493640899658
1761399206610671400,9.83167138671875,2.037839651107788,-7.107412338256836,-3.060612678527832
1761399206620752000,9.841751953125,1.9664626121520996,-6.812850475311279,-3.0264954566955566
1761399206630834200,9.851834228515624,1.8007389307022095,-6.1968674659729,-2.8976573944091797
1761399206640909300,9.861909423828125,1.8258780241012573,-5.303455829620361,-2.7544541358947754
1761399206650968600,9.871968505859375,1.8956091403961182,-4.444161891937256,-2.4176948070526123
1761399206661049600,9.882049560546875,2.012850284576416,-3.754183053970337,-2.1314380168914795
1761399206671131000,9.892130859375,2.153285264968872,-3.380537986755371,-2.074650526046753
1761399206681211400,9.90221142578125,2.3061399459838867,-3.4513914585113525,-2.3227498531341553
1761399206691291600,9.912291748046876,2.5138368606567383,-3.838578701019287,-2.8209681510925293
1761399206701361000,9.92236083984375,2.7893946170806885,-4.354978084564209,-3.3442509174346924
1761399206711441700,9.932441650390626,3.340958833694458,-4.7387237548828125,-3.770568370819092
1761399206721543400,9.94254345703125,3.892822265625,-4.958616256713867,-4.231601715087891
1761399206731613700,9.95261376953125,4.453888416290283,-5.2183122634887695,-4.79124641418457
1761399206741704400,9.962704345703125,4.927491664886475,-5.546467304229736,-5.385232925415039
1761399206751801000,9.972801025390625,5.2471923828125,-5.9340291023254395,-5.997251033782959
1761399206761856300,9.982856201171876,5.154417037963867,-6.516119003295898,-6.570288181304932
1761399206771958000,9.9929580078125,5.210306644439697,-7.354538917541504,-7.136516571044922
1761399206782043400,10.00304345703125,5.3541083335876465,-8.624288558959961,-7.517119884490967
1761399206792123600,10.01312353515625,5.216516494750977,-9.821464538574219,-7.4007768630981445
1761399206802204700,10.02320458984375,5.771672248840332,-10.76537799835205,-6.723666667938232
1761399206812285200,10.03328515625,6.182053089141846,-11.076998710632324,-5.923704147338867
1761399206822366500,10.043366455078125,5.7154083251953125,-10.745551109313965,-5.3202900886535645
1761399206832446500,10.053446533203125,5.144615650177002,-10.321029663085938,-4.531250953674316
1761399206842523600,10.063523681640625,4.572999954223633,-10.198775291442871,-3.3609354496002197
1761399206852562000,10.07356201171875,3.58217453956604,-9.665841102600098,-2.394426107406616
1761399206862689000,10.08368896484375,2.561272144317627,-7.9176249504089355,-1.6905308961868286
1761399206872770300,10.093770263671875,2.3655459880828857,-5.348048210144043,-1.186775803565979
1761399206882850300,10.103850341796875,3.6221280097961426,-3.2178070545196533,-0.960673451423645
1761399206903023900,10.12402392578125,4.470423698425293,-6.507964134216309,-0.1553238332271576
1761399206913093000,10.134093017578126,5.576993465423584,-13.216217994689941,-3.0772974491119385
1761399206923165400,10.14416552734375,5.838560104370117,-21.093290328979492,-5.226991176605225
1761399206933254400,10.15425439453125,2.733205795288086,-26.909107208251953,-7.405864238739014
1761399206943309600,10.1643095703125,1.4448258876800537,-25.385644912719727,-8.431330680847168
1761399206953415000,10.174414794921875,1.568725824356079,-14.177938461303711,-8.1517333984375
1761399206963496000,10.184495849609375,0.2743605375289917,-5.679046630859375,-5.8482866287231445
1761399206973577200,10.1945771484375,-1.7195605039596558,-2.194734811782837,-3.8769607543945312
1761399206983657200,10.2046572265625,-3.2953193187713623,-1.9148375988006592,-2.793808937072754
1761399206993738800,10.21473876953125,-3.7375733852386475,-2.6902596950531006,-2.176628589630127
1761399207003819000,10.224819091796874,-3.4911201000213623,-3.697545289993286,-2.0272903442382812
1761399207013876000,10.2348759765625,-2.785504102706909,-5.221978187561035,-2.093205690383911
1761399207023980800,10.244980712890625,-1.8146553039550781,-7.571139335632324,-2.8464064598083496
1761399207034057200,10.25505712890625,-0.5163245797157288,-10.354473114013672,-4.512546539306641
1761399207044141800,10.265141845703125,0.35576340556144714,-12.366650581359863,-6.236745834350586
1761399207054222300,10.275222412109375,0.3346644937992096,-12.584373474121094,-6.999074459075928
1761399207064303600,10.2853037109375,0.38890814781188965,-11.278635025024414,-5.874697685241699
1761399207074384600,10.295384521484374,0.33189621567726135,-9.520543098449707,-4.452242374420166
1761399207084464000,10.305464111328124,0.5812672972679138,-8.24316120147705,-2.925938844680786
1761399207094546000,10.3155458984375,0.867748498916626,-7.796942234039307,-1.5228619575500488
1761399207104626200,10.325626220703125,1.3025953769683838,-8.078709602355957,-0.6966378688812256
1761399207114684000,10.335683837890626,1.6909797191619873,-8.82091236114502,-0.7674912810325623
1761399207124787700,10.34578759765625,1.4893430471420288,-9.50849723815918,-1.0982651710510254
1761399207144940500,10.3659404296875,1.100285291671753,-9.929801940917969,-2.031480073928833
1761399207155029500,10.376029541015624,1.1738321781158447,-9.750909805297852,-2.6198551654815674
1761399207165085000,10.3860849609375,1.2498481273651123,-9.200393676757812,-3.088744640350342
1761399207175190800,10.396190673828125,1.3337199687957764,-8.433052062988281,-3.306093215942383
1761399207185272300,10.406272216796875,1.194931149482727,-7.825897216796875,-3.3122284412384033
1761399207195319000,10.416319091796876,0.8500912189483643,-7.548917770385742,-3.2487072944641113
1761399207205432800,10.426432861328125,0.3818751573562622,-7.605181694030762,-3.35667085647583
1761399207215514000,10.43651416015625,-0.11896190047264099,-7.833827972412109,-3.5890579223632812
1761399207225594400,10.446594482421874,-0.40140289068222046,-8.029479026794434,-3.8471827507019043
1761399207235675600,10.456675537109374,-0.4214543104171753,-8.049979209899902,-4.367397785186768
1761399207245755600,10.466755615234375,-0.13669395446777344,-8.019453048706055,-4.750694751739502
1761399207255837200,10.476837158203125,0.24652795493602753,-8.085219383239746,-4.995651721954346
1761399207265917200,10.486917236328125,0.6058078408241272,-8.3143892288208,-4.901978492736816
1761399207275997700,10.496997802734375,0.7778910994529724,-8.70329761505127,-4.497058868408203
1761399207286068700,10.50706884765625,0.7537994384765625,-9.13657283782959,-4.03617525100708
1761399207296160300,10.51716015625,0.6321440935134888,-9.279252052307129,-3.772214412689209
1761399207306219300,10.52721923828125,0.4180874824523926,-9.158045768737793,-3.3883938789367676
1761399207316320300,10.5373203125,0.04092588648200035,-8.898275375366211,-3.405078649520874
1761399207326376200,10.547376220703125,-0.2056768834590912,-8.72409725189209,-3.77640438079834
1761399207336482000,10.55748193359375,-0.19782091677188873,-8.70486831665039,-4.211625099182129
1761399207346562800,10.567562744140625,-0.014814122579991817,-9.085322380065918,-3.9911341667175293
1761399207356643000,10.57764306640625,-0.028954876586794853,-9.562366485595703,-3.647341728210449
1761399207366724000,10.58772412109375,-0.24765023589134216,-10.116100311279297,-3.2782607078552246
1761399207376804900,10.597804931640624,-0.3156605362892151,-10.312350273132324,-2.719663381576538
1761399207386885400,10.607885498046874,-0.3133411407470703,-10.217779159545898,-2.7387423515319824
1761399207396966700,10.617966552734375,-0.3357867896556854,-9.971251487731934,-3.5999066829681396
1761399207407043300,10.628043212890624,-0.5588964819908142,-9.635390281677246,-4.641608715057373
1761399207417102600,10.6381025390625,-0.6640169024467468,-9.292046546936035,-5.3337578773498535
1761399207427190800,10.648190673828125,-0.22206220030784607,-9.298331260681152,-5.5416789054870605
1761399207437290000,10.6582900390625,0.5657049417495728,-9.573514938354492,-5.333009243011475
1761399207447347200,10.66834716796875,1.2030863761901855,-9.739013671875,-4.889184474945068
1761399207457451300,10.678451171875,1.105747103691101,-9.48530387878418,-4.3325324058532715
1761399207467531000,10.688531005859375,0.5689970254898071,-9.363199234008789,-4.174515247344971
1761399207477608400,10.6986083984375,0.07751227915287018,-9.369708061218262,-4.222174644470215
1761399207487692500,10.708692626953125,-0.021622633561491966,-9.21715259552002,-4.298190593719482
1761399207497773000,10.71877294921875,-0.20440496504306793,-9.075969696044922,-4.69951868057251
1761399207507854800,10.728854736328126,-0.6607248783111572,-9.095198631286621,-5.378125190734863
1761399207517910300,10.73891015625,-1.0459668636322021,-9.316362380981445,-6.066308498382568
1761399207528016000,10.749015869140624,-1.1344774961471558,-9.66958236694336,-6.571335315704346
1761399207538071800,10.75907177734375,-0.7995885610580444,-9.992350578308105,-6.901810169219971
1761399207548177200,10.76917724609375,-0.4679167866706848,-10.223540306091309,-6.903680801391602
1761399207558258000,10.7792578125,0.058134209364652634,-10.515633583068848,-6.700173377990723
1761399207568339200,10.789339111328125,0.6131401062011719,-11.0324068069458,-6.172252178192139
1761399207578419700,10.799419677734376,1.2967594861984253,-11.572748184204102,-5.130475044250488
1761399207588474600,10.809474609375,1.7600375413894653,-11.95484733581543,-3.680112361907959
1761399207598577000,10.819576904296875,2.1781249046325684,-12.176385879516602,-2.4555530548095703
1761399207608661000,10.829660888671874,2.191891670227051,-12.167482376098633,-1.8289456367492676
1761399207618742300,10.8397421875,1.82961905002594,-11.995025634765625,-1.6523733139038086
1761399207628822500,10.849822509765625,1.1810147762298584,-11.70959186553955,-1.7431284189224243
1761399207638904300,10.859904296875,0.12577040493488312,-11.321207046508789,-2.016965389251709
1761399207648984600,10.869984619140626,-1.1748048067092896,-10.74689769744873,-2.3976433277130127
1761399207659064800,10.88006494140625,-1.9944448471069336,-10.000205993652344,-3.0639796257019043
1761399207669142800,10.890142822265625,-1.875258445739746,-9.494057655334473,-4.400243282318115
1761399207679200800,10.90020068359375,-0.8239794969558716,-9.24483585357666,-5.634903430938721
1761399207689307100,10.91030712890625,0.3440916836261749,-9.153332710266113,-6.14254903793335
1761399207699388400,10.920388427734375,0.5737854242324829,-9.10993766784668,-6.508113384246826
1761399207709469000,10.930468994140625,0.4427776634693146,-9.103952407836914,-6.940192222595215
1761399207719523600,10.940523681640625,0.5529109835624695,-9.089437484741211,-7.471031665802002
1761399207729625900,10.9506259765625,-0.1182137057185173,-8.709806442260742,-8.412027359008789
1761399207739711500,10.96071142578125,-0.5028571486473083,-8.862811088562012,-8.65174674987793
1761399207749747500,10.97074755859375,-0.3737947344779968,-8.89677906036377,-7.682544231414795
1761399207759872500,10.98087255859375,-0.48400282859802246,-9.053374290466309,-5.915548801422119
1761399207769953000,10.990953125,-0.6765864491462708,-8.624064445495605,-4.988094806671143
1761399207780016000,11.00101611328125,-0.6735188364982605,-8.159289360046387,-4.399121284484863
1761399207790113800,11.01111376953125,-0.4620809257030487,-8.205303192138672,-3.730839729309082
1761399207800190500,11.0211904296875,-0.13265374302864075,-8.336685180664062,-3.1664066314697266
1761399207810275000,11.031275146484376,0.2859574556350708,-8.457218170166016,-3.12465763092041
1761399207820355800,11.04135595703125,0.23074118793010712,-8.855329513549805,-3.0725090503692627
1761399207830436600,11.0514365234375,-0.22385786473751068,-9.451784133911133,-3.068319082260132
1761399207840517400,11.061517333984375,-0.8202385306358337,-9.7860746383667,-3.5295021533966064
1761399207850598000,11.071597900390625,-0.8593688011169434,-9.482160568237305,-4.461520195007324
1761399207860674600,11.081674560546874,-0.4447977840900421,-9.285686492919922,-4.538733005523682
1761399207870760400,11.091760498046876,0.2554313838481903,-8.653542518615723,-4.870554447174072
1761399207880840200,11.101840087890626,1.032050609588623,-7.808838367462158,-5.205742835998535
1761399207890921000,11.1119208984375,1.3221230506896973,-7.130606174468994,-4.888585567474365
1761399207901001200,11.122001220703124,1.4875473976135254,-6.621912956237793,-4.872798919677734
1761399207911082200,11.132082275390625,1.1703157424926758,-6.616451263427734,-4.016048908233643
1761399207921159400,11.142159423828126,0.7803601026535034,-6.725237846374512,-3.4856584072113037
1761399207931243800,11.152243896484375,0.653991162776947,-6.996231555938721,-3.287837505340576
1761399207941299200,11.16229931640625,0.7333738803863525,-7.437138557434082,-3.5085530281066895
1761399207951404800,11.17240478515625,0.7816320657730103,-7.998055458068848,-4.041861534118652
1761399207961485600,11.182485595703126,0.7496095895767212,-8.506598472595215,-4.606070041656494
1761399207971566600,11.192566650390624,0.7481880187988281,-8.80819320678711,-4.847285747528076
1761399207981647000,11.202647216796874,0.848520040512085,-8.80048656463623,-4.597914695739746
1761399207991696100,11.212696044921875,0.8825625777244568,-8.667084693908691,-3.494187831878662
1761399208001785000,11.22278515625,1.519195795059204,-7.676558971405029,-3.7863552570343018
1761399208011889400,11.232889404296875,1.6038159132003784,-6.845247268676758,-2.5054571628570557
1761399208021945000,11.242945068359376,2.0812346935272217,-6.1111249923706055,-1.8554315567016602
1761399208032050700,11.25305078125,2.4147768020629883,-5.755136966705322,-1.4492402076721191
1761399208042131500,11.26313134765625,2.605415105819702,-5.924826145172119,-1.592742681503296
1761399208052209000,11.273208984375,2.9171102046966553,-6.413393020629883,-2.132784843444824
1761399208062292500,11.28329248046875,2.932373285293579,-6.828113555908203,-2.916736125946045
1761399208072373500,11.29337353515625,2.8667571544647217,-7.110629558563232,-3.9763948917388916
1761399208082454000,11.3034541015625,2.8791024684906006,-7.354014873504639,-5.193696975708008
1761399208092535000,11.31353515625,2.6307787895202637,-7.455020427703857,-6.389301300048828
1761399208102615800,11.32361572265625,2.145055055618286,-7.334636688232422,-7.440430641174316
1761399208112696600,11.333696533203126,1.6822259426116943,-7.207070827484131,-8.251690864562988
1761399208122773000,11.34377294921875,0.9341127276420593,-7.053318023681641,-8.735020637512207
1761399208132818000,11.35381787109375,0.23657704889774323,-6.7783589363098145,-8.82659912109375
1761399208142938400,11.3639384765625,-0.4563198685646057,-6.41623592376709,-8.585457801818848
1761399208153019100,11.37401904296875,-1.0070611238479614,-6.073715686798096,-7.900341987609863
1761399208163100000,11.384099853515625,-1.0678887367248535,-5.882328987121582,-7.13195276260376
1761399208173183500,11.39418359375,-0.9040355682373047,-6.0505218505859375,-6.309694290161133
1761399208183257000,11.404257080078125,-0.5906944274902344,-6.561534404754639,-5.734711647033691
1761399208193342200,11.41434228515625,0.021697452291846275,-7.212008953094482,-5.092317581176758
1761399208203422700,11.424422607421874,0.9639654755592346,-7.7941741943359375,-4.515913486480713
1761399208213503500,11.43450341796875,1.6947954893112183,-9.739612579345703,-3.939509153366089
1761399208223584300,11.444584228515625,0.7249193787574768,-16.062175750732422,-4.053233623504639
1761399208233665300,11.454665283203125,-0.6975356936454773,-23.79671859741211,-6.65513277053833
1761399208243723800,11.464723876953125,0.7877671718597412,-27.94542121887207,-7.386261940002441
1761399208253827000,11.4748271484375,3.716848611831665,-22.633960723876953,-6.340444564819336
1761399208263906800,11.48490673828125,4.086453437805176,-13.229610443115234,-3.4151041507720947
1761399208273987600,11.494987548828124,2.9583353996276855,-7.599570274353027,-2.369436740875244
1761399208284029200,11.505029296875,1.2273277044296265,-4.574571132659912,-1.9695302248001099
1761399208294149000,11.515149169921875,-1.118017315864563,-2.3203556537628174,-1.0538228750228882
1761399208304230100,11.525230224609375,-2.9620015621185303,-0.344839870929718,0.00785597413778305
1761399208314310400,11.535310302734375,-3.7968297004699707,0.05603928491473198,0.8349778652191162
1761399208324366000,11.545365966796876,-4.630984783172607,-2.4071452617645264,0.8663269281387329
1761399208334472400,11.555472412109374,-5.113117218017578,-6.53759241104126,0.25408464670181274
1761399208344553200,11.56555322265625,-4.127229690551758,-10.932897567749023,-0.29381343722343445
1761399208354633200,11.57563330078125,-3.4876785278320312,-14.751574516296387,-1.7525556087493896
1761399208364685600,11.585685546875,-2.5097968578338623,-15.930045127868652,-4.104858875274658
1761399208374795800,11.595795654296875,-0.6408230662345886,-15.81796646118164,-6.87794303894043
1761399208384858000,11.605858154296875,0.9781062006950378,-12.356101036071777,-6.447884559631348
1761399208394955800,11.615955810546875,1.3237690925598145,-9.111583709716797,-4.77276611328125
1761399208405044700,11.626044677734376,0.5067477822303772,-7.759383201599121,-3.1366286277770996
1761399208415118300,11.636118408203124,0.061276599764823914,-7.744868278503418,-1.5785270929336548
1761399208425197300,11.646197265625,-0.04272153601050377,-8.12629508972168,-0.7169137597084045
1761399208435280100,11.656280029296875,-0.03942950814962387,-8.577227592468262,-0.2531120181083679
1761399208445361000,11.66636083984375,-0.1472434103488922,-8.941520690917969,-0.2504933476448059
1761399208455440400,11.6764404296875,-0.3728969097137451,-9.102604866027832,-0.8508394360542297
1761399208465522000,11.68652197265625,-0.7275380492210388,-9.109638214111328,-1.65888249874115
1761399208475601700,11.6966015625,-0.6466588973999023,-9.286211013793945,-2.2533178329467773
1761399208485682400,11.706682373046876,-0.2890998423099518,-9.547926902770996,-2.533289909362793
1761399208495763500,11.716763427734374,0.010250176303088665,-9.73093318939209,-2.7176434993743896
1761399208505821000,11.726821044921875,0.35591304302215576,-9.699359893798828,-2.4093899726867676
1761399208515925000,11.736925048828125,0.5235071778297424,-9.612345695495605,-2.1681740283966064
1761399208526006000,11.747006103515625,0.5865045785903931,-9.253889083862305,-1.619228482246399
1761399208536095500,11.757095458984375,0.5505915880203247,-8.932467460632324,-1.4636802673339844
1761399208546167300,11.767167236328126,0.2891746759414673,-8.851064682006836,-1.9472341537475586
1761399208556248800,11.777248779296874,0.18382979929447174,-8.801459312438965,-2.353275775909424
1761399208566328600,11.78732861328125,0.0011971008498221636,-8.715717315673828,-2.5742905139923096
1761399208576408600,11.79740869140625,-0.11926117539405823,-8.760383605957031,-2.826953649520874
1761399208586490400,11.807490478515625,-0.3214963972568512,-8.804976463317871,-3.066972494125366
1761399208596571000,11.81757080078125,-0.5701941251754761,-8.814851760864258,-3.0672717094421387
1761399208606651600,11.827651611328125,-0.6863128542900085,-8.898948669433594,-3.140594005584717
1761399208616754200,11.837754150390625,-0.6304980516433716,-8.969502449035645,-2.9629743099212646
1761399208626780700,11.84778076171875,-0.4257937967777252,-8.99389362335205,-2.860173225402832
1761399208636893700,11.857893798828124,-0.18151041865348816,-9.060257911682129,-2.8964602947235107
1761399208646954800,11.867954833984374,-0.13160628080368042,-9.19283676147461,-3.0855274200439453
1761399208657051000,11.87805078125,-0.21779753267765045,-9.113677978515625,-3.2939727306365967
1761399208667110100,11.888110107421875,-0.2388216257095337,-8.89677906036377,-3.443984270095825
1761399208677213000,11.898212890625,-0.14342764019966125,-8.858097076416016,-3.5526211261749268
1761399208687292700,11.908292724609375,-0.15180735290050507,-9.020753860473633,-3.8938698768615723
1761399208697377000,11.918376953125,-0.333991140127182,-9.163657188415527,-4.057049751281738
1761399208707458800,11.928458740234374,-0.7466168403625488,-9.199870109558105,-4.1751885414123535
1761399208717539300,11.938539306640624,-1.0272622108459473,-9.215132713317871,-4.498405933380127
1761399208727596500,11.948596435546875,-1.1472715139389038,-9.563788414001465,-4.366500377655029
1761399208737700600,11.95870068359375,-0.9195231199264526,-9.405097961425781,-3.8838441371917725
1761399208747755500,11.968755615234375,-0.6600514650344849,-10.164283752441406,-5.272032260894775
1761399208757857800,11.97885791015625,-0.36571431159973145,-10.513837814331055,-5.22833776473999
1761399208767943000,11.98894287109375,0.477792888879776,-10.216732025146484,-4.612654209136963
1761399208778023700,11.999023681640624,0.8584709763526917,-10.34908676147461,-4.863746166229248
1761399208788104400,12.0091044921875,0.33361703157424927,-10.625916481018066,-5.814019680023193
1761399208798185000,12.01918505859375,-0.7173627018928528,-11.515212059020996,-7.36127233505249
1761399208808274000,12.02927392578125,-1.6440683603286743,-12.21035385131836,-7.916203498840332
1761399208818339800,12.03933984375,-2.1005380153656006,-12.26347541809082,-7.830685615539551
1761399208828427300,12.04942724609375,-1.8453309535980225,-12.109423637390137,-6.863428115844727
1761399208838507800,12.0595078125,-0.5808183550834656,-11.950284004211426,-5.3296427726745605
1761399208848587500,12.06958740234375,1.085396409034729,-11.8441162109375,-3.7801451683044434
1761399208858660600,12.07966064453125,1.6558148860931396,-11.177704811096191,-2.095076084136963
1761399208868745700,12.089745849609375,1.5534628629684448,-10.480319023132324,-1.119513750076294
1761399208878826000,12.099825927734376,1.4524574279785156,-10.03387451171875,-0.7599346041679382
1761399208888886000,12.109885986328125,1.2454338073730469,-10.146102905273438,-0.559869110584259
1761399208898991900,12.119991943359375,0.723797082901001,-10.630928993225098,-0.5849334001541138
1761399208909072000,12.13007177734375,0.15973813831806183,-10.78924560546875,-0.5264999270439148
1761399208919153200,12.140153076171876,0.07594108581542969,-11.215862274169922,-0.8463503122329712
1761399208929233200,12.150233154296876,0.21712416410446167,-11.823017120361328,-1.2737152576446533
1761399208939289600,12.16028955078125,0.391900897026062,-12.152668952941895,-1.7587655782699585
1761399208949392400,12.170392333984376,0.32007482647895813,-12.080318450927734,-2.152836322784424
1761399208959442200,12.180442138671875,0.24158991873264313,-11.912650108337402,-2.468122720718384
1761399208969557200,12.19055712890625,0.039055414497852325,-11.490147590637207,-2.7813141345977783
1761399208979638000,12.200637939453125,-0.23178865015506744,-10.782212257385254,-2.9071593284606934
1761399208989692400,12.2106923828125,-0.870067834854126,-10.049811363220215,-3.0794670581817627
1761399208999764700,12.2207646484375,-1.0749965906143188,-9.502062797546387,-2.940154552459717
1761399209009854200,12.230854248046874,-0.9675567746162415,-9.227104187011719,-2.965592861175537
1761399209019960600,12.240960693359375,-1.0372878313064575,-9.199944496154785,-3.3505356311798096
1761399209030024700,12.251024658203125,-0.6985083222389221,-9.222464561462402,-3.443460702896118
1761399209040121900,12.261121826171875,-0.22049100697040558,-9.257031440734863,-3.7333834171295166
1761399209050201600,12.27120166015625,0.13422493636608124,-9.425373077392578,-3.4326119422912598
1761399209060261000,12.28126123046875,0.40836101770401,-9.504382133483887,-3.050063371658325
1761399209080440000,12.301440185546875,0.30226796865463257,-9.542465209960938,-2.27748441696167
1761399209090525200,12.311525146484374,0.07062894850969315,-9.290101051330566,-2.113182306289673
1761399209100605200,12.321605224609375,0.40783730149269104,-8.966360092163086,-1.7667711973190308
1761399209110686700,12.331686767578125,0.8661772608757019,-8.628927230834961,-1.193210244178772
1761399209120766700,12.3417666015625,1.2057050466537476,-8.143278121948242,-0.9231144189834595
1761399209130847200,12.35184716796875,1.3258639574050903,-7.995586395263672,-0.6501753926277161
1761399209140903200,12.361903076171876,1.2809727191925049,-8.076765060424805,-0.11005845665931702
1761399209151009800,12.372009765625,1.1646294593811035,-7.622464656829834,-0.540790319442749
1761399209161090000,12.382090087890624,1.1117326021194458,-7.090578079223633,-1.5328876972198486
1761399209171145000,12.39214501953125,1.2122890949249268,-7.0184526443481445,-1.6490812301635742
1761399209181252000,12.402252197265625,1.1390414237976074,-6.852728843688965,-1.93099844455719
1761399209191331800,12.412331787109375,1.0716297626495361,-6.566771507263184,-2.3535003662109375
1761399209201408800,12.42240869140625,1.4607622623443604,-6.393042087554932,-2.107944965362549
1761399209211493400,12.432493408203126,1.8071733713150024,-6.122647285461426,-1.7085621356964111
1761399209221573600,12.44257373046875,2.1639842987060547,-5.898190498352051,-1.3583353757858276
1761399209231655200,12.4526552734375,2.4689457416534424,-5.689595699310303,-1.235183596611023
1761399209241735400,12.4627353515625,2.63362193107605,-5.340566158294678,-1.1705402135849
1761399209251817000,12.47281689453125,2.6726772785186768,-5.210456371307373,-1.3434463739395142
1761399209261897000,12.48289697265625,2.7131543159484863,-5.432892799377441,-1.707215428352356
1761399209271980300,12.492980224609376,2.768744707107544,-5.88240385055542,-2.2510733604431152
1761399209282058200,12.503058349609375,2.7304375171661377,-6.472874164581299,-3.1414170265197754
1761399209292140000,12.51314013671875,3.4206409454345703,-7.202207565307617,-4.077549934387207
1761399209302219800,12.5232197265625,4.566341400146484,-8.099958419799805,-5.062314987182617
1761399209312303000,12.53330322265625,5.351938724517822,-9.045817375183105,-5.883975028991699
1761399209322374700,12.543374755859375,5.687052249908447,-9.870619773864746,-6.819659233093262
1761399209332457500,12.55345751953125,5.617694854736328,-10.618659019470215,-7.92555570602417
1761399209342542300,12.563542236328125,5.037475109100342,-11.293000221252441,-8.616657257080078
1761399209352622800,12.573622802734375,4.50835657119751,-11.32921314239502,-8.178742408752441
1761399209362704100,12.5837041015625,4.478503704071045,-10.27209758758545,-6.7492547035217285
1761399209372761300,12.59376123046875,4.558709621429443,-8.88061809539795,-5.393986701965332
1761399209382866000,12.603865966796874,4.527659893035889,-7.628899097442627,-4.531325817108154
1761399209392946000,12.61394580078125,4.320336818695068,-6.40351676940918,-3.975571870803833
1761399209403023400,12.6240234375,4.225915431976318,-5.19362211227417,-3.6383635997772217
1761399209413107500,12.634107421875,4.62821626663208,-4.6559739112854,-3.480720281600952
1761399209423188000,12.64418798828125,4.649913787841797,-6.585102081298828,-3.4397196769714355
1761399209433269200,12.654269287109376,3.17785382270813,-11.64262866973877,-4.995352268218994
1761399209443349200,12.664349365234376,2.1989245414733887,-16.565631866455078,-6.331615924835205
1761399209453430800,12.6744306640625,1.1332803964614868,-19.981334686279297,-6.765116214752197
1761399209463511300,12.68451123046875,0.1761234551668167,-20.383708953857422,-6.963460922241211
1761399209473572400,12.694572265625,-0.43207859992980957,-16.268451690673828,-6.445565223693848
1761399209483673000,12.704673095703125,0.0293289702385664,-10.697443008422852,-5.761870861053467
1761399209493752600,12.714752685546875,0.8164227604866028,-6.0912981033325195,-3.427299737930298
1761399209503834000,12.724834228515626,0.2677764892578125,-3.2456395626068115,-1.2310686111450195
1761399209513914000,12.7349140625,-0.9145850539207458,-1.9372084140777588,0.43028295040130615
1761399209523996000,12.744995849609374,-1.7533786296844482,-2.5894787311553955,1.2000187635421753
1761399209534076400,12.755076416015624,-1.9485808610916138,-4.158877849578857,0.9586533308029175
1761399209544157000,12.765156982421875,-2.2735939025878906,-6.500556945800781,0.3224690556526184
1761399209554237200,12.7752373046875,-2.884040355682373,-9.55002212524414,-0.8907926678657532
1761399209564317700,12.785317626953125,-3.8453872203826904,-13.068750381469727,-3.1001172065734863
1761399209574399500,12.7953994140625,-3.79914927482605,-15.375713348388672,-4.795959949493408
1761399209584494600,12.80549462890625,-1.834482192993164,-15.346757888793945,-5.887192249298096
1761399209594560800,12.815560791015624,-0.4232499599456787,-11.661632537841797,-5.206416130065918
1761399209604641000,12.82564111328125,0.21368250250816345,-8.78305435180664,-3.9596354961395264
1761399209614694700,12.835694580078124,0.5893477201461792,-8.004040718078613,-3.036820411682129
1761399209624802800,12.845802734375,0.7412298917770386,-8.243386268615723,-2.379986047744751
1761399209634858000,12.85585791015625,0.7370400428771973,-8.642843246459961,-1.48313307762146
1761399209644938500,12.8659384765625,0.6292261481285095,-9.08030891418457,-0.7374141216278076
1761399209655044900,12.876044921875,0.5219359993934631,-9.358111381530762,-0.4753986895084381
1761399209665124900,12.886124755859376,0.43664252758026123,-9.462183952331543,-0.7808838486671448
1761399209675180800,12.896180908203124,0.3330184817314148,-9.253963470458984,-1.3060370683670044
1761399209685261000,12.906260986328125,0.3489548861980438,-8.79120922088623,-1.7919102907180786
1761399209695341300,12.91634130859375,0.38389527797698975,-8.292990684509277,-2.1327099800109863
1761399209705447400,12.926447509765625,0.40888476371765137,-7.9707465171813965,-2.4019079208374023
1761399209715528200,12.936528076171875,0.30032268166542053,-7.8909149169921875,-2.782212018966675
1761399209725609500,12.946609375,0.12906242907047272,-8.103998184204102,-3.1832408905029297
1761399209735690500,12.9566904296875,-0.0909048467874527,-8.44315242767334,-3.750741481781006
1761399209745771000,12.96677099609375,-0.32037410140037537,-8.660650253295898,-4.246116638183594
1761399209755826200,12.976826171875,-0.42684125900268555,-8.639552116394043,-4.666673183441162
