time,seconds_elapsed,z,y,x
1761314961636501800,0.218501708984375,0.0012216945178806782,0.014660334214568138,0.01038440316915512
1761314961655423500,0.237423583984375,0.0018325417768210173,0.004886778071522713,0.007330167107284069
1761314961674345000,0.256344970703125,0.0018325417768210173,0.010995250195264816,0.009773556143045425
1761314961693266700,0.2752666015625,0.0018325417768210173,0.006719320081174374,0.007330167107284069
1761314961712188400,0.2941884765625,0.0018325417768210173,0.00916270911693573,0.00916270911693573
1761314961731110100,0.313110107421875,0.0012216945178806782,0.007941014133393764,0.009773556143045425
1761314961750032000,0.332031982421875,0.0018325417768210173,0.00916270911693573,0.008551862090826035
1761314961768953600,0.35095361328125,0.0018325417768210173,0.00916270911693573,0.00916270911693573
1761314961787875000,0.369875,0.0012216945178806782,0.007941014133393764,0.008551862090826035
1761314961806796800,0.388796875,0.0012216945178806782,0.009773556143045425,0.008551862090826035
1761314961825718500,0.407718505859375,0.0018325417768210173,0.007941014133393764,0.008551862090826035
1761314961844640300,0.42664013671875,0.0012216945178806782,0.00916270911693573,0.008551862090826035
1761314961863562000,0.44556201171875,0.0012216945178806782,0.008551862090826035,0.008551862090826035
1761314961882483500,0.4644833984375,0.0018325417768210173,0.008551862090826035,0.00916270911693573
1761314961901405200,0.4834052734375,0.0018325417768210173,0.00916270911693573,0.00916270911693573
1761314961920327000,0.502326904296875,0.0012216945178806782,0.007941014133393764,0.00916270911693573
1761314961939248600,0.52124853515625,0.0018325417768210173,0.00916270911693573,0.00916270911693573
1761314961958170400,0.54017041015625,0.0006108472589403391,0.007941014133393764,0.00916270911693573
1761314961977092000,0.559092041015625,0.0018325417768210173,0.008551862090826035,0.008551862090826035
1761314961996013600,0.578013671875,0.0012216945178806782,0.00916270911693573,0.008551862090826035
1761314962014935300,0.596935302734375,0.0012216945178806782,0.008551862090826035,0.008551862090826035
1761314962033857000,0.61585693359375,0.0018325417768210173,0.00916270911693573,0.00916270911693573
1761314962052778800,0.63477880859375,0.0012216945178806782,0.007941014133393764,0.008551862090826035
1761314962071700500,0.653700439453125,0.0018325417768210173,0.008551862090826035,0.00916270911693573
1761314962090622000,0.6726220703125,0.0012216945178806782,0.00916270911693573,0.008551862090826035
1761314962109543700,0.691543701171875,0.0012216945178806782,0.008551862090826035,0.00916270911693573
1761314962128465400,0.71046533203125,0.0018325417768210173,0.00916270911693573,0.008551862090826035
1761314962147387100,0.72938720703125,0.0012216945178806782,0.008551862090826035,0.008551862090826035
1761314962166308900,0.748308837890625,0.0024433890357613564,0.008551862090826035,0.008551862090826035
1761314962185230300,0.767230224609375,0.0012216945178806782,0.008551862090826035,0.008551862090826035
1761314962204152000,0.786152099609375,0.0012216945178806782,0.007941014133393764,0.008551862090826035
1761314962223073800,0.80507373046875,0.0018325417768210173,0.007941014133393764,0.008551862090826035
1761314962241995500,0.82399560546875,0.0018325417768210173,0.008551862090826035,0.00916270911693573
1761314962260917000,0.8429169921875,0.0012216945178806782,0.008551862090826035,0.00916270911693573
1761314962279838700,0.861838623046875,0.0024433890357613564,0.008551862090826035,0.008551862090826035
1761314962298760400,0.880760498046875,0.0012216945178806782,0.008551862090826035,0.008551862090826035
1761314962317682200,0.89968212890625,0.0018325417768210173,0.008551862090826035,0.008551862090826035
1761314962336604000,0.91860400390625,0.0012216945178806782,0.00916270911693573,0.008551862090826035
1761314962355525400,0.937525390625,0.0012216945178806782,0.007941014133393764,0.00916270911693573
1761314962374447000,0.956447021484375,0.0018325417768210173,0.00916270911693573,0.00916270911693573
1761314962393368800,0.975368896484375,0.0012216945178806782,0.008551862090826035,0.00916270911693573
1761314962412290600,0.99429052734375,0.0012216945178806782,0.00916270911693573,0.00916270911693573
1761314962431212300,1.01321240234375,0.0018325417768210173,0.008551862090826035,0.008551862090826035
1761314962450133800,1.0321337890625,0.0012216945178806782,0.008551862090826035,0.008551862090826035
1761314962469055500,1.051055419921875,0.0018325417768210173,0.008551862090826035,0.008551862090826035
1761314962487977200,1.069977294921875,0.0012216945178806782,0.008551862090826035,0.008551862090826035
1761314962506899000,1.08889892578125,0.0012216945178806782,0.008551862090826035,0.00916270911693573
1761314962525820700,1.107820556640625,0.0012216945178806782,0.00916270911693573,0.009773556143045425
1761314962544742100,1.1267421875,0.0018325417768210173,0.008551862090826035,0.00916270911693573
1761314962563664000,1.145663818359375,0.0018325417768210173,0.00916270911693573,0.00916270911693573
1761314962582585600,1.164585693359375,0.0012216945178806782,0.008551862090826035,0.008551862090826035
1761314962601507300,1.18350732421875,0.0012216945178806782,0.00916270911693573,0.008551862090826035
1761314962620429000,1.202428955078125,0.0018325417768210173,0.008551862090826035,0.00916270911693573
1761314962639350500,1.2213505859375,0.0012216945178806782,0.008551862090826035,0.008551862090826035
1761314962658272300,1.240272216796875,0.0018325417768210173,0.00916270911693573,0.008551862090826035
1761314962677194000,1.259194091796875,0.0012216945178806782,0.008551862090826035,0.008551862090826035
1761314962696115700,1.27811572265625,0.0012216945178806782,0.008551862090826035,0.008551862090826035
1761314962715037200,1.297037109375,0.0018325417768210173,0.00916270911693573,0.008551862090826035
1761314962733959000,1.315958984375,0.0030542362947016954,0.00916270911693573,0.008551862090826035
1761314962752880600,1.334880615234375,0.0018325417768210173,0.008551862090826035,0.008551862090826035
1761314962771802400,1.35380224609375,0.0018325417768210173,0.008551862090826035,0.008551862090826035
1761314962790723800,1.372723876953125,0.0018325417768210173,0.008551862090826035,0.008551862090826035
1761314962809645600,1.3916455078125,0.0012216945178806782,0.008551862090826035,0.008551862090826035
1761314962828567300,1.4105673828125,0.0018325417768210173,0.00916270911693573,0.00916270911693573
1761314962847489000,1.429489013671875,0.0012216945178806782,0.00916270911693573,0.008551862090826035
1761314962866410500,1.448410400390625,0.0018325417768210173,0.007941014133393764,0.008551862090826035
1761314962885332200,1.467332275390625,0.0018325417768210173,0.008551862090826035,0.008551862090826035
1761314962904254000,1.48625390625,0.0024433890357613564,0.009773556143045425,0.008551862090826035
1761314962923175700,1.50517578125,0.0012216945178806782,0.007941014133393764,0.008551862090826035
1761314962942097200,1.52409716796875,0.0018325417768210173,0.00916270911693573,0.00916270911693573
1761314962961019000,1.543018798828125,0.0018325417768210173,0.00916270911693573,0.00916270911693573
1761314962979940600,1.561940673828125,0.0018325417768210173,0.008551862090826035,0.008551862090826035
1761314962998862300,1.5808623046875,0.0018325417768210173,0.00916270911693573,0.00916270911693573
1761314963017784000,1.5997841796875,0.0018325417768210173,0.008551862090826035,0.00916270911693573
1761314963036705500,1.61870556640625,0.0012216945178806782,0.028098974376916885,0.014049487188458443
1761314963055627300,1.637627197265625,-0.0006108472589403391,0.06841489672660828,0.030542362481355667
1761314963074549000,1.656549072265625,0.0030542362947016954,-0.07207997888326645,-0.01832541823387146
1761314963093470700,1.675470703125,0.0018325417768210173,0.007330167107284069,0.008551862090826035
1761314963112392400,1.694392333984375,0.0018325417768210173,0.01038440316915512,0.009773556143045425
1761314963131314000,1.71331396484375,0.0018325417768210173,0.004275931045413017,0.006719320081174374
1761314963150235600,1.732235595703125,0.0018325417768210173,0.012827792204916477,0.00916270911693573
1761314963169157400,1.751157470703125,0.0018325417768210173,0.004275931045413017,0.007330167107284069
1761314963188079000,1.7700791015625,0.0012216945178806782,0.012216945178806782,0.009773556143045425
1761314963207000600,1.78900048828125,0.0018325417768210173,0.006108472589403391,0.007941014133393764
1761314963225922300,1.80792236328125,0.0012216945178806782,0.010995250195264816,0.009773556143045425
1761314963244844000,1.826843994140625,0.0012216945178806782,0.006719320081174374,0.007941014133393764
1761314963263765500,1.845765625,0.0012216945178806782,0.00916270911693573,0.00916270911693573
1761314963282687200,1.864687255859375,0.0012216945178806782,0.007330167107284069,0.00916270911693573
1761314963301609000,1.88360888671875,0.0018325417768210173,0.00916270911693573,0.00916270911693573
1761314963320530700,1.90253076171875,0.0012216945178806782,0.007941014133393764,0.00916270911693573
1761314963339452200,1.9214521484375,0.0018325417768210173,0.007941014133393764,0.008551862090826035
1761314963358374000,1.940373779296875,0.0018325417768210173,0.007941014133393764,0.008551862090826035
1761314963377295600,1.959295654296875,0.0018325417768210173,0.008551862090826035,0.009773556143045425
1761314963396217300,1.97821728515625,0.0018325417768210173,0.00916270911693573,0.008551862090826035
1761314963415138800,1.997138916015625,0.0018325417768210173,0.007941014133393764,0.008551862090826035
1761314963434060500,2.016060546875,0.0012216945178806782,0.00916270911693573,0.008551862090826035
1761314963452982300,2.034982177734375,0.0012216945178806782,0.008551862090826035,0.00916270911693573
1761314963471904000,2.053904052734375,0.0018325417768210173,0.008551862090826035,0.008551862090826035
1761314963490825700,2.07282568359375,0.0012216945178806782,0.008551862090826035,0.008551862090826035
1761314963509747200,2.091747314453125,0.0018325417768210173,0.008551862090826035,0.008551862090826035
1761314963528669000,2.1106689453125,0.0018325417768210173,0.007941014133393764,0.008551862090826035
1761314963547590700,2.129590576171875,0.0012216945178806782,0.008551862090826035,0.008551862090826035
1761314963566512000,2.14851220703125,0.0012216945178806782,0.008551862090826035,0.008551862090826035
1761314963585433900,2.167433837890625,0.0018325417768210173,0.008551862090826035,0.008551862090826035
1761314963604355600,2.18635546875,0.0018325417768210173,0.008551862090826035,0.008551862090826035
1761314963623277300,2.20527734375,0.0012216945178806782,0.008551862090826035,0.00916270911693573
1761314963642198800,2.22419873046875,0.0018325417768210173,0.008551862090826035,0.00916270911693573
1761314963661120500,2.24312060546875,0.0012216945178806782,0.00916270911693573,0.008551862090826035
1761314963680042200,2.262042236328125,0.0012216945178806782,0.00916270911693573,0.008551862090826035
1761314963698964000,2.2809638671875,0.0012216945178806782,0.008551862090826035,0.00916270911693573
1761314963717885400,2.299885498046875,0.0018325417768210173,0.008551862090826035,0.008551862090826035
1761314963736807200,2.31880712890625,0.0012216945178806782,0.008551862090826035,0.00916270911693573
1761314963755729000,2.33772900390625,0.0018325417768210173,0.008551862090826035,0.00916270911693573
1761314963774650600,2.356650634765625,0.0018325417768210173,0.008551862090826035,0.00916270911693573
1761314963793572000,2.375572021484375,0.0018325417768210173,0.00916270911693573,0.008551862090826035
1761314963812493800,2.394493896484375,0.0018325417768210173,0.008551862090826035,0.008551862090826035
1761314963831415600,2.41341552734375,0.0012216945178806782,0.007941014133393764,0.008551862090826035
1761314963850337300,2.432337158203125,0.0018325417768210173,0.008551862090826035,0.007941014133393764
1761314963869258800,2.4512587890625,0.0018325417768210173,0.008551862090826035,0.008551862090826035
1761314963888180500,2.470180419921875,0.0018325417768210173,0.008551862090826035,0.008551862090826035
1761314963907102200,2.489102294921875,0.0018325417768210173,0.007941014133393764,0.00916270911693573
1761314963926024000,2.50802392578125,0.0018325417768210173,0.008551862090826035,0.00916270911693573
1761314963944945400,2.5269453125,0.0012216945178806782,0.008551862090826035,0.008551862090826035
1761314963963867100,2.5458671875,0.0012216945178806782,0.00916270911693573,0.007941014133393764
1761314963982788900,2.564788818359375,0.0012216945178806782,0.008551862090826035,0.00916270911693573
1761314964001710300,2.58371044921875,0.0012216945178806782,0.007941014133393764,0.008551862090826035
1761314964020632000,2.602632080078125,0.0012216945178806782,0.007941014133393764,0.00916270911693573
1761314964039553800,2.6215537109375,0.0018325417768210173,0.007941014133393764,0.00916270911693573
1761314964058475500,2.6404755859375,0.0018325417768210173,0.008551862090826035,0.007941014133393764
1761314964077397000,2.65939697265625,0.0018325417768210173,0.008551862090826035,0.008551862090826035
1761314964096318700,2.678318603515625,0.0012216945178806782,0.008551862090826035,0.008551862090826035
1761314964115240400,2.697240478515625,0.0018325417768210173,0.008551862090826035,0.008551862090826035
1761314964134162200,2.716162109375,0.0018325417768210173,0.00916270911693573,0.00916270911693573
1761314964153083600,2.735083740234375,0.0018325417768210173,0.008551862090826035,0.008551862090826035
1761314964172005400,2.75400537109375,0.0018325417768210173,0.00916270911693573,0.008551862090826035
1761314964190927000,2.772927001953125,0.0012216945178806782,0.007941014133393764,0.008551862090826035
1761314964209848600,2.7918486328125,0.0018325417768210173,0.008551862090826035,0.008551862090826035
1761314964228770300,2.810770263671875,0.0012216945178806782,0.00916270911693573,0.00916270911693573
1761314964247692000,2.829692138671875,0.0018325417768210173,0.008551862090826035,0.008551862090826035
1761314964266613800,2.84861376953125,0.0018325417768210173,0.008551862090826035,0.008551862090826035
1761314964285535200,2.86753515625,0.0006108472589403391,0.007941014133393764,0.00916270911693573
1761314964304457000,2.88645703125,0.0012216945178806782,0.008551862090826035,0.00916270911693573
1761314964323378700,2.905378662109375,0.0012216945178806782,0.008551862090826035,0.008551862090826035
1761314964342300400,2.924300537109375,0.0018325417768210173,0.009773556143045425,0.008551862090826035
1761314964361222000,2.943221923828125,0.0018325417768210173,0.00916270911693573,0.008551862090826035
1761314964380143600,2.9621435546875,0.0018325417768210173,0.008551862090826035,0.00916270911693573
1761314964399065300,2.9810654296875,0.0018325417768210173,0.008551862090826035,0.009773556143045425
1761314964417986800,2.99998681640625,0.0012216945178806782,0.007941014133393764,0.00916270911693573
1761314964436908500,3.018908447265625,0.0012216945178806782,0.008551862090826035,0.007941014133393764
1761314964455830300,3.037830322265625,0.0012216945178806782,0.00916270911693573,0.008551862090826035
1761314964474752000,3.056751953125,0.0018325417768210173,0.008551862090826035,0.00916270911693573
1761314964493673500,3.075673583984375,0.0012216945178806782,0.00916270911693573,0.00916270911693573
1761314964512595200,3.09459521484375,0.0018325417768210173,0.00916270911693573,0.00916270911693573
1761314964531517000,3.113516845703125,0.0012216945178806782,0.008551862090826035,0.00916270911693573
1761314964550438400,3.1324384765625,0.0018325417768210173,0.008551862090826035,0.008551862090826035
1761314964569360100,3.151360107421875,0.0012216945178806782,0.008551862090826035,0.00916270911693573
1761314964588281900,3.17028173828125,0.0012216945178806782,0.00916270911693573,0.008551862090826035
1761314964607203600,3.18920361328125,0.0018325417768210173,0.00916270911693573,0.008551862090826035
1761314964626125000,3.208125,0.0018325417768210173,0.00916270911693573,0.00916270911693573
1761314964645046800,3.227046875,0.0012216945178806782,0.007941014133393764,0.008551862090826035
1761314964663968500,3.245968505859375,0.0012216945178806782,0.007941014133393764,0.00916270911693573
1761314964682890000,3.264889892578125,0.0018325417768210173,0.007330167107284069,0.009773556143045425
1761314964701811700,3.283811767578125,0.0018325417768210173,0.008551862090826035,0.008551862090826035
1761314964720733400,3.3027333984375,0.0018325417768210173,0.008551862090826035,0.008551862090826035
1761314964739655200,3.3216552734375,0.0018325417768210173,0.008551862090826035,0.00916270911693573
1761314964758576600,3.34057666015625,0.0018325417768210173,0.007941014133393764,0.00916270911693573
1761314964777498400,3.359498291015625,0.0018325417768210173,0.008551862090826035,0.00916270911693573
1761314964796420000,3.378420166015625,0.0012216945178806782,0.008551862090826035,0.008551862090826035
1761314964815341800,3.397341796875,0.0012216945178806782,0.008551862090826035,0.008551862090826035
1761314964834263300,3.41626318359375,0.0018325417768210173,0.00916270911693573,0.00916270911693573
1761314964853185000,3.43518505859375,0.0006108472589403391,0.00916270911693573,0.008551862090826035
1761314964872106800,3.454106689453125,0.0012216945178806782,0.008551862090826035,0.00916270911693573
1761314964891028200,3.4730283203125,0.0012216945178806782,0.008551862090826035,0.008551862090826035
1761314964909950000,3.491949951171875,0.0012216945178806782,0.008551862090826035,0.008551862090826035
1761314964928871700,3.51087158203125,0.0012216945178806782,0.008551862090826035,0.008551862090826035
1761314964947793200,3.529793212890625,0.0018325417768210173,0.00916270911693573,0.008551862090826035
1761314964966715000,3.54871484375,0.0012216945178806782,0.008551862090826035,0.00916270911693573
1761314964985636600,3.56763671875,0.0018325417768210173,0.008551862090826035,0.009773556143045425
1761314965004558300,3.586558349609375,0.0024433890357613564,0.008551862090826035,0.00916270911693573
1761314965023479800,3.605479736328125,0.0018325417768210173,0.00916270911693573,0.008551862090826035
1761314965042401500,3.624401611328125,0.0018325417768210173,0.008551862090826035,0.00916270911693573
1761314965061323300,3.6433232421875,0.0012216945178806782,0.008551862090826035,0.00916270911693573
1761314965080244700,3.66224462890625,0.0018325417768210173,0.007941014133393764,0.008551862090826035
1761314965099166500,3.68116650390625,0.0018325417768210173,0.008551862090826035,0.008551862090826035
1761314965118088200,3.700088134765625,0.0012216945178806782,0.008551862090826035,0.008551862090826035
1761314965137009700,3.719009765625,0.0018325417768210173,0.00916270911693573,0.008551862090826035
1761314965155931400,3.737931396484375,0.0012216945178806782,0.007941014133393764,0.007941014133393764
1761314965174853000,3.75685302734375,0.0012216945178806782,0.008551862090826035,0.00916270911693573
1761314965193774600,3.775774658203125,0.0018325417768210173,0.008551862090826035,0.00916270911693573
1761314965212696300,3.7946962890625,0.0012216945178806782,0.00916270911693573,0.008551862090826035
1761314965231618000,3.8136181640625,0.0018325417768210173,0.007941014133393764,0.008551862090826035
1761314965250539800,3.832539794921875,0.0024433890357613564,0.00916270911693573,0.007941014133393764
1761314965269461200,3.851461181640625,0.0018325417768210173,0.008551862090826035,0.008551862090826035
1761314965288383000,3.870383056640625,0.0018325417768210173,0.008551862090826035,0.008551862090826035
1761314965307304700,3.8893046875,0.0012216945178806782,0.007941014133393764,0.00916270911693573
1761314965326226200,3.90822607421875,0.0018325417768210173,0.00916270911693573,0.008551862090826035
1761314965345148000,3.92714794921875,0.0018325417768210173,0.008551862090826035,0.008551862090826035
1761314965364069600,3.946069580078125,0.0018325417768210173,0.008551862090826035,0.00916270911693573
1761314965382991000,3.9649912109375,0.0012216945178806782,0.00916270911693573,0.008551862090826035
1761314965401912800,3.983912841796875,0.0006108472589403391,0.00916270911693573,0.00916270911693573
1761314965420834600,4.00283447265625,0.0012216945178806782,0.008551862090826035,0.008551862090826035
1761314965439756300,4.02175634765625,0.0018325417768210173,0.008551862090826035,0.008551862090826035
1761314965458677800,4.040677734375,0.0018325417768210173,0.00916270911693573,0.008551862090826035
1761314965477599500,4.059599609375,0.0012216945178806782,0.008551862090826035,0.008551862090826035
1761314965496521200,4.078521240234375,0.0018325417768210173,0.008551862090826035,0.008551862090826035
1761314965515442700,4.097442626953125,0.0018325417768210173,0.00916270911693573,0.008551862090826035
1761314965534364400,4.116364501953125,0.0024433890357613564,0.008551862090826035,0.008551862090826035
1761314965553286100,4.1352861328125,0.0018325417768210173,0.008551862090826035,0.008551862090826035
1761314965572207600,4.15420751953125,0.0018325417768210173,0.008551862090826035,0.008551862090826035
1761314965591129300,4.17312939453125,0.0018325417768210173,0.008551862090826035,0.00916270911693573
1761314965610051000,4.192051025390625,0.0018325417768210173,0.008551862090826035,0.008551862090826035
1761314965628972500,4.21097265625,0.0012216945178806782,0.00916270911693573,0.00916270911693573
1761314965647894300,4.229894287109375,0.0018325417768210173,0.008551862090826035,0.00916270911693573
1761314965666816000,4.24881591796875,0.0012216945178806782,0.008551862090826035,0.00916270911693573
1761314965685737500,4.267737548828125,0.0018325417768210173,0.00916270911693573,0.008551862090826035
1761314965704659200,4.2866591796875,0.0012216945178806782,0.00916270911693573,0.008551862090826035
1761314965723581000,4.305580810546875,0.0018325417768210173,0.007941014133393764,0.00916270911693573
1761314965742502700,4.324502685546875,0.0018325417768210173,0.008551862090826035,0.008551862090826035
1761314965761424100,4.343424072265625,0.0018325417768210173,0.008551862090826035,0.008551862090826035
1761314965780345900,4.362345947265625,0.0012216945178806782,0.00916270911693573,0.00916270911693573
1761314965799267600,4.381267578125,0.0018325417768210173,0.008551862090826035,0.00916270911693573
1761314965818189000,4.40018896484375,0.0018325417768210173,0.008551862090826035,0.00916270911693573
1761314965837110800,4.41911083984375,0.0018325417768210173,0.007941014133393764,0.009773556143045425
1761314965856032300,4.4380322265625,0.0012216945178806782,0.007330167107284069,0.008551862090826035
1761314965874954000,4.4569541015625,0.0018325417768210173,0.008551862090826035,0.008551862090826035
1761314965893875700,4.475875732421875,0.0018325417768210173,0.007941014133393764,0.008551862090826035
1761314965912797400,4.49479736328125,0.0018325417768210173,0.00916270911693573,0.008551862090826035
1761314965931719000,4.513718994140625,0.0018325417768210173,0.00916270911693573,0.008551862090826035
1761314965950640600,4.532640625,0.0012216945178806782,0.008551862090826035,0.008551862090826035
1761314965969562400,4.551562255859375,0.0018325417768210173,0.008551862090826035,0.007941014133393764
1761314965988483800,4.57048388671875,0.0018325417768210173,0.00916270911693573,0.00916270911693573
1761314966007405600,4.589405517578125,0.0018325417768210173,0.008551862090826035,0.00916270911693573
1761314966026327300,4.608327392578125,0.0012216945178806782,0.00916270911693573,0.00916270911693573
1761314966045248800,4.627248779296875,0.0012216945178806782,0.007941014133393764,0.008551862090826035
1761314966064170500,4.64617041015625,0.0012216945178806782,0.008551862090826035,0.008551862090826035
1761314966083092200,4.66509228515625,0.0012216945178806782,0.008551862090826035,0.008551862090826035
1761314966102013700,4.684013671875,0.0012216945178806782,0.008551862090826035,0.00916270911693573
1761314966120935400,4.702935302734375,0.0024433890357613564,0.00916270911693573,0.008551862090826035
1761314966139857200,4.721857177734375,0.0018325417768210173,0.00916270911693573,0.008551862090826035
1761314966158778600,4.740778564453125,0.0018325417768210173,0.008551862090826035,0.008551862090826035
1761314966177700400,4.759700439453125,0.0018325417768210173,0.008551862090826035,0.008551862090826035
1761314966196622000,4.7786220703125,0.0012216945178806782,0.007941014133393764,0.008551862090826035
1761314966215543600,4.79754345703125,0.0018325417768210173,0.008551862090826035,0.00916270911693573
1761314966234465300,4.81646533203125,0.0012216945178806782,0.008551862090826035,0.00916270911693573
1761314966253387000,4.835386962890625,0.0024433890357613564,0.008551862090826035,0.00916270911693573
1761314966272308500,4.85430859375,0.0012216945178806782,0.008551862090826035,0.008551862090826035
1761314966291230200,4.873230224609375,0.0018325417768210173,0.008551862090826035,0.00916270911693573
1761314966310152000,4.89215185546875,0.0018325417768210173,0.008551862090826035,0.00916270911693573
1761314966329073400,4.911073486328125,0.0012216945178806782,0.00916270911693573,0.008551862090826035
1761314966347995100,4.9299951171875,0.0018325417768210173,0.008551862090826035,0.008551862090826035
1761314966366916900,4.948916748046875,0.0018325417768210173,0.008551862090826035,0.008551862090826035
1761314966385838300,4.96783837890625,0.0012216945178806782,0.008551862090826035,0.008551862090826035
1761314966404760000,4.986760009765625,0.0018325417768210173,0.007941014133393764,0.008551862090826035
1761314966423681800,5.005681884765625,0.0018325417768210173,0.008551862090826035,0.008551862090826035
1761314966442603300,5.024603271484375,0.0012216945178806782,0.007941014133393764,0.008551862090826035
1761314966461525000,5.04352490234375,0.0012216945178806782,0.00916270911693573,0.008551862090826035
1761314966480446700,5.06244677734375,0.0012216945178806782,0.00916270911693573,0.007941014133393764
1761314966499368200,5.0813681640625,0.0012216945178806782,0.008551862090826035,0.008551862090826035
1761314966518290000,5.1002900390625,0.0018325417768210173,0.008551862090826035,0.008551862090826035
1761314966537211400,5.11921142578125,0.0018325417768210173,0.00916270911693573,0.00916270911693573
1761314966556133000,5.138133056640625,0.0018325417768210173,0.008551862090826035,0.008551862090826035
1761314966575054800,5.157054931640625,0.0018325417768210173,0.007941014133393764,0.00916270911693573
1761314966593976300,5.175976318359375,0.0018325417768210173,0.007941014133393764,0.008551862090826035
1761314966612898000,5.19489794921875,0.0018325417768210173,0.00916270911693573,0.008551862090826035
1761314966631819800,5.21381982421875,0.0012216945178806782,0.008551862090826035,0.00916270911693573
1761314966650741200,5.2327412109375,0.0012216945178806782,0.008551862090826035,0.00916270911693573
1761314966669663000,5.2516630859375,0.0018325417768210173,0.008551862090826035,0.008551862090826035
1761314966688584700,5.270584716796875,0.0018325417768210173,0.007941014133393764,0.008551862090826035
1761314966707506200,5.289506103515625,0.0018325417768210173,0.008551862090826035,0.00916270911693573
1761314966726428000,5.308427978515625,0.0012216945178806782,0.008551862090826035,0.00916270911693573
1761314966745349600,5.327349609375,0.0018325417768210173,0.008551862090826035,0.00916270911693573
1761314966764271000,5.34627099609375,0.0018325417768210173,0.008551862090826035,0.008551862090826035
1761314966783192800,5.36519287109375,0.0018325417768210173,0.008551862090826035,0.008551862090826035
1761314966802114600,5.384114501953125,0.0012216945178806782,0.00916270911693573,0.00916270911693573
1761314966821036000,5.4030361328125,0.0018325417768210173,0.008551862090826035,0.008551862090826035
1761314966839957800,5.421957763671875,0.0012216945178806782,0.008551862090826035,0.007941014133393764
1761314966858879200,5.440879150390625,0.0018325417768210173,0.008551862090826035,0.008551862090826035
1761314966877801000,5.459801025390625,0.0018325417768210173,0.007941014133393764,0.00916270911693573
1761314966896722700,5.47872265625,0.0018325417768210173,0.00916270911693573,0.00916270911693573
1761314966915644200,5.49764404296875,0.0012216945178806782,0.008551862090826035,0.008551862090826035
1761314966934566000,5.51656591796875,0.0018325417768210173,0.00916270911693573,0.008551862090826035
1761314966953487600,5.535487548828125,0.0012216945178806782,0.00916270911693573,0.00916270911693573
1761314966972409000,5.5544091796875,0.0012216945178806782,0.008551862090826035,0.008551862090826035
1761314966991330800,5.573330810546875,0.0012216945178806782,0.008551862090826035,0.008551862090826035
1761314967010252500,5.59225244140625,0.0018325417768210173,0.008551862090826035,0.008551862090826035
1761314967029174000,5.611174072265625,0.0012216945178806782,0.008551862090826035,0.007941014133393764
1761314967048095700,5.630095703125,0.0018325417768210173,0.008551862090826035,0.008551862090826035
1761314967067017200,5.649017333984375,0.0018325417768210173,0.00916270911693573,0.008551862090826035
1761314967085939000,5.66793896484375,0.0012216945178806782,0.008551862090826035,0.008551862090826035
1761314967104860700,5.686860595703125,0.0024433890357613564,0.008551862090826035,0.008551862090826035
1761314967123782100,5.7057822265625,0.0018325417768210173,0.008551862090826035,0.008551862090826035
1761314967142703900,5.724703857421875,0.0024433890357613564,0.008551862090826035,0.00916270911693573
1761314967161625600,5.74362548828125,0.0018325417768210173,0.00916270911693573,0.00916270911693573
1761314967180547000,5.762547119140625,0.0012216945178806782,0.008551862090826035,0.00916270911693573
1761314967199468800,5.78146875,0.0018325417768210173,0.008551862090826035,0.008551862090826035
1761314967218390300,5.800390380859375,0.0018325417768210173,0.00916270911693573,0.008551862090826035
1761314967237312000,5.81931201171875,0.0018325417768210173,0.00916270911693573,0.008551862090826035
1761314967256233700,5.838233642578125,0.0012216945178806782,0.008551862090826035,0.008551862090826035
1761314967275155200,5.8571552734375,0.0012216945178806782,0.008551862090826035,0.008551862090826035
1761314967294077000,5.876076904296875,0.0012216945178806782,0.008551862090826035,0.009773556143045425
1761314967312998700,5.89499853515625,0.0018325417768210173,0.008551862090826035,0.00916270911693573
1761314967331920100,5.913920166015625,0.0012216945178806782,0.008551862090826035,0.00916270911693573
1761314967350841900,5.932841796875,0.0012216945178806782,0.008551862090826035,0.008551862090826035
1761314967369763600,5.951763671875,0.0018325417768210173,0.008551862090826035,0.00916270911693573
1761314967388685000,5.97068505859375,0.0012216945178806782,0.008551862090826035,0.00916270911693573
1761314967407606800,5.989606689453125,0.0018325417768210173,0.009773556143045425,0.008551862090826035
1761314967426528300,6.0085283203125,0.0012216945178806782,0.008551862090826035,0.007941014133393764
1761314967445450000,6.027449951171875,0.0012216945178806782,0.00916270911693573,0.00916270911693573
1761314967464371700,6.046371826171875,0.0012216945178806782,0.008551862090826035,0.008551862090826035
1761314967483293200,6.065293212890625,0.0018325417768210173,0.007941014133393764,0.00916270911693573
1761314967502215000,6.08421484375,0.0012216945178806782,0.009773556143045425,0.008551862090826035
1761314967521136600,6.10313671875,0.0018325417768210173,0.008551862090826035,0.008551862090826035
1761314967540058000,6.12205810546875,0.0018325417768210173,0.008551862090826035,0.008551862090826035
1761314967558979800,6.140979736328125,0.0024433890357613564,0.008551862090826035,0.008551862090826035
1761314967577901300,6.1599013671875,0.0024433890357613564,0.008551862090826035,0.007941014133393764
1761314967596823000,6.178822998046875,0.0018325417768210173,0.008551862090826035,0.00916270911693573
1761314967615744800,6.197744873046875,0.0018325417768210173,0.00916270911693573,0.00916270911693573
1761314967634666200,6.216666259765625,0.0012216945178806782,0.007330167107284069,0.00916270911693573
1761314967653588000,6.235587890625,0.0018325417768210173,0.00916270911693573,0.00916270911693573
1761314967672509400,6.254509521484375,0.0018325417768210173,0.008551862090826035,0.00916270911693573
1761314967691431200,6.27343115234375,0.0018325417768210173,0.007941014133393764,0.00916270911693573
1761314967710353000,6.292352783203125,0.0006108472589403391,0.008551862090826035,0.008551862090826035
1761314967729274400,6.3112744140625,0.0018325417768210173,0.008551862090826035,0.00916270911693573
1761314967748196000,6.330196044921875,0.0012216945178806782,0.009773556143045425,0.008551862090826035
1761314967767117600,6.34911767578125,0.0012216945178806782,0.008551862090826035,0.008551862090826035
1761314967786039300,6.368039306640625,0.0024433890357613564,0.00916270911693573,0.008551862090826035
1761314967804961000,6.3869609375,0.0018325417768210173,0.00916270911693573,0.008551862090826035
1761314967823882500,6.405882568359375,0.0018325417768210173,0.007941014133393764,0.00916270911693573
1761314967842804200,6.42480419921875,0.0018325417768210173,0.008551862090826035,0.009773556143045425
1761314967861725700,6.4437255859375,0.0018325417768210173,0.008551862090826035,0.00916270911693573
1761314967880647400,6.4626474609375,0.0012216945178806782,0.00916270911693573,0.008551862090826035
1761314967899569200,6.481569091796875,0.0018325417768210173,0.007941014133393764,0.008551862090826035
1761314967918490600,6.50049072265625,0.0012216945178806782,0.007941014133393764,0.008551862090826035
1761314967937412400,6.519412353515625,0.0018325417768210173,0.008551862090826035,0.008551862090826035
1761314967956333800,6.538333740234375,0.0018325417768210173,0.008551862090826035,0.008551862090826035
1761314967975255600,6.557255615234375,0.0012216945178806782,0.00916270911693573,0.00916270911693573
1761314967994177300,6.57617724609375,0.0012216945178806782,0.008551862090826035,0.00916270911693573
1761314968013098800,6.5950986328125,0.0012216945178806782,0.00916270911693573,0.00916270911693573
1761314968032020500,6.6140205078125,0.0012216945178806782,0.008551862090826035,0.008551862090826035
1761314968050942000,6.63294189453125,0.0012216945178806782,0.008551862090826035,0.008551862090826035
1761314968069863700,6.65186376953125,0.0018325417768210173,0.008551862090826035,0.008551862090826035
1761314968088785400,6.670785400390625,0.0018325417768210173,0.00916270911693573,0.008551862090826035
1761314968107707000,6.689706787109375,0.0012216945178806782,0.008551862090826035,0.008551862090826035
1761314968126628600,6.708628662109375,0.0018325417768210173,0.00916270911693573,0.008551862090826035
1761314968145550000,6.727550048828125,0.0018325417768210173,0.008551862090826035,0.00916270911693573
1761314968164471800,6.746471923828125,0.0018325417768210173,0.008551862090826035,0.008551862090826035
1761314968183393500,6.7653935546875,0.0018325417768210173,0.00916270911693573,0.00916270911693573
1761314968202315000,6.78431494140625,0.0018325417768210173,0.00916270911693573,0.008551862090826035
1761314968221236700,6.80323681640625,0.0018325417768210173,0.007941014133393764,0.008551862090826035
1761314968240158200,6.822158203125,0.0012216945178806782,0.008551862090826035,0.007941014133393764
1761314968259080000,6.841079833984375,0.0012216945178806782,0.008551862090826035,0.00916270911693573
1761314968278001700,6.860001708984375,0.0012216945178806782,0.008551862090826035,0.008551862090826035
1761314968296923100,6.878923095703125,0.0006108472589403391,0.007941014133393764,0.008551862090826035
1761314968315844900,6.897844970703125,0.0018325417768210173,0.007941014133393764,0.00916270911693573
1761314968334766300,6.916766357421875,0.0012216945178806782,0.00916270911693573,0.008551862090826035
1761314968353688000,6.93568798828125,0.0018325417768210173,0.007941014133393764,0.008551862090826035
1761314968372609800,6.95460986328125,0.0012216945178806782,0.008551862090826035,0.008551862090826035
1761314968391531300,6.97353125,0.0018325417768210173,0.008551862090826035,0.008551862090826035
1761314968410453000,6.992452880859375,0.0012216945178806782,0.008551862090826035,0.00916270911693573
1761314968429374500,7.01137451171875,0.0018325417768210173,0.008551862090826035,0.007941014133393764
1761314968448296200,7.030296142578125,0.0012216945178806782,0.007941014133393764,0.00916270911693573
1761314968467217700,7.0492177734375,0.0012216945178806782,0.00916270911693573,0.00916270911693573
1761314968486139400,7.068139404296875,0.0012216945178806782,0.008551862090826035,0.008551862090826035
1761314968505061000,7.08706103515625,0.0012216945178806782,0.007941014133393764,0.00916270911693573
1761314968523982600,7.105982666015625,0.0018325417768210173,0.00916270911693573,0.007941014133393764
1761314968542904300,7.124904296875,0.0024433890357613564,0.007941014133393764,0.008551862090826035
1761314968561825800,7.14382568359375,0.0012216945178806782,0.007941014133393764,0.007941014133393764
1761314968580747500,7.16274755859375,0.0012216945178806782,0.007941014133393764,0.008551862090826035
1761314968599669000,7.1816689453125,0.0012216945178806782,0.007941014133393764,0.009773556143045425
1761314968618590700,7.2005908203125,0.0018325417768210173,0.00916270911693573,0.008551862090826035
1761314968637512400,7.219512451171875,0.0012216945178806782,0.007330167107284069,0.00916270911693573
1761314968656434000,7.238433837890625,0.0018325417768210173,0.008551862090826035,0.008551862090826035
1761314968675355600,7.257355712890625,0.0012216945178806782,0.007941014133393764,0.007941014133393764
1761314968694277000,7.276277099609375,0.0012216945178806782,0.008551862090826035,0.008551862090826035
1761314968713198800,7.29519873046875,0.0012216945178806782,0.008551862090826035,0.008551862090826035
1761314968732120300,7.314120361328125,0.0018325417768210173,0.008551862090826035,0.00916270911693573
1761314968751042000,7.3330419921875,0.0018325417768210173,0.008551862090826035,0.008551862090826035
1761314968769963800,7.3519638671875,0.0012216945178806782,0.008551862090826035,0.00916270911693573
1761314968788885200,7.37088525390625,0.0012216945178806782,0.008551862090826035,0.008551862090826035
1761314968807807000,7.389806884765625,0.0012216945178806782,0.009773556143045425,0.00916270911693573
1761314968826728400,7.408728515625,0.0012216945178806782,0.008551862090826035,0.00916270911693573
1761314968845650200,7.427650146484375,0.0018325417768210173,0.008551862090826035,0.008551862090826035
1761314968864571600,7.446571533203125,0.0018325417768210173,0.00916270911693573,0.008551862090826035
1761314968883493400,7.465493408203125,0.0018325417768210173,0.00916270911693573,0.00916270911693573
1761314968902415000,7.4844150390625,0.0012216945178806782,0.008551862090826035,0.008551862090826035
1761314968921336600,7.503336669921875,0.0018325417768210173,0.00916270911693573,0.008551862090826035
1761314968940258300,7.52225830078125,0.0018325417768210173,0.008551862090826035,0.008551862090826035
1761314968959179800,7.5411796875,0.0012216945178806782,0.008551862090826035,0.008551862090826035
1761314968978101500,7.5601015625,0.0012216945178806782,0.008551862090826035,0.008551862090826035
1761314968997023000,7.57902294921875,0.0018325417768210173,0.00916270911693573,0.00916270911693573
1761314969015944700,7.59794482421875,0.0018325417768210173,0.00916270911693573,0.008551862090826035
1761314969034866200,7.6168662109375,0.0012216945178806782,0.00916270911693573,0.008551862090826035
1761314969053788000,7.635787841796875,0.0012216945178806782,0.008551862090826035,0.008551862090826035
1761314969072709600,7.654709716796875,0.0018325417768210173,0.008551862090826035,0.00916270911693573
1761314969091631000,7.673631103515625,0.0018325417768210173,0.008551862090826035,0.008551862090826035
1761314969110552800,7.692552734375,0.0012216945178806782,0.008551862090826035,0.00916270911693573
1761314969129474300,7.711474365234375,0.0018325417768210173,0.00916270911693573,0.008551862090826035
1761314969148396000,7.73039599609375,0.0024433890357613564,0.008551862090826035,0.008551862090826035
1761314969167317500,7.7493173828125,0.0012216945178806782,0.008551862090826035,0.00916270911693573
1761314969186239200,7.7682392578125,0.0024433890357613564,0.00916270911693573,0.008551862090826035
1761314969205160700,7.78716064453125,0.0018325417768210173,0.008551862090826035,0.009773556143045425
1761314969224082400,7.80608251953125,0.0018325417768210173,0.008551862090826035,0.007941014133393764
1761314969243004200,7.825004150390625,0.0012216945178806782,0.008551862090826035,0.009773556143045425
1761314969261925600,7.843925537109375,0.0018325417768210173,0.008551862090826035,0.008551862090826035
1761314969280847400,7.862847412109375,0.0018325417768210173,0.008551862090826035,0.00916270911693573
1761314969299768800,7.881768798828125,0.0018325417768210173,0.008551862090826035,0.00916270911693573
1761314969318690600,7.900690673828125,0.0018325417768210173,0.008551862090826035,0.00916270911693573
1761314969337612000,7.919612060546875,0.0018325417768210173,0.008551862090826035,0.008551862090826035
1761314969356533800,7.93853369140625,0.0018325417768210173,0.008551862090826035,0.00916270911693573
1761314969375455200,7.957455322265625,0.0012216945178806782,0.008551862090826035,0.009773556143045425
1761314969394377000,7.976376953125,0.0018325417768210173,0.00916270911693573,0.008551862090826035
1761314969413298400,7.99529833984375,0.0018325417768210173,0.00916270911693573,0.00916270911693573
1761314969432220200,8.01422021484375,0.0018325417768210173,0.008551862090826035,0.00916270911693573
1761314969451141600,8.0331416015625,0.0024433890357613564,0.008551862090826035,0.008551862090826035
1761314969470063400,8.0520634765625,0.0018325417768210173,0.00916270911693573,0.00916270911693573
1761314969488985000,8.070985107421874,0.0018325417768210173,0.008551862090826035,0.008551862090826035
1761314969507906600,8.089906494140624,0.0018325417768210173,0.008551862090826035,0.008551862090826035
1761314969526828000,8.108828125,0.0018325417768210173,0.008551862090826035,0.00916270911693573
1761314969545749800,8.127749755859375,0.0018325417768210173,0.008551862090826035,0.008551862090826035
1761314969564671500,8.14667138671875,0.0018325417768210173,0.007941014133393764,0.00916270911693573
1761314969583593000,8.165593017578125,0.0018325417768210173,0.008551862090826035,0.007941014133393764
1761314969602514700,8.1845146484375,0.0018325417768210173,0.00916270911693573,0.008551862090826035
1761314969621436200,8.203436279296875,0.0012216945178806782,0.008551862090826035,0.008551862090826035
1761314969640358000,8.22235791015625,0.0012216945178806782,0.008551862090826035,0.008551862090826035
1761314969659279400,8.241279296875,0.0018325417768210173,0.00916270911693573,0.008551862090826035
1761314969678201000,8.260201171875,0.0018325417768210173,0.008551862090826035,0.008551862090826035
1761314969697122600,8.27912255859375,0.0018325417768210173,0.00916270911693573,0.00916270911693573
1761314969716044300,8.298044189453124,0.0018325417768210173,0.007941014133393764,0.00916270911693573
1761314969734965800,8.3169658203125,0.0018325417768210173,0.00916270911693573,0.008551862090826035
1761314969753887500,8.335887451171875,0.0012216945178806782,0.008551862090826035,0.00916270911693573
1761314969772809200,8.354809326171875,0.0012216945178806782,0.008551862090826035,0.00916270911693573
1761314969791730700,8.373730712890625,0.0012216945178806782,0.008551862090826035,0.00916270911693573
1761314969810652200,8.392652099609375,0.0018325417768210173,0.008551862090826035,0.00916270911693573
1761314969829574000,8.411573974609375,0.0018325417768210173,0.008551862090826035,0.00916270911693573
1761314969848495600,8.43049560546875,0.0018325417768210173,0.00916270911693573,0.008551862090826035
1761314969867417000,8.4494169921875,0.0012216945178806782,0.007941014133393764,0.008551862090826035
1761314969886338800,8.4683388671875,0.0018325417768210173,0.008551862090826035,0.008551862090826035
1761314969905260300,8.48726025390625,0.0018325417768210173,0.00916270911693573,0.008551862090826035
1761314969924182000,8.50618212890625,0.0018325417768210173,0.007941014133393764,0.009773556143045425
1761314969943103500,8.525103515625,0.0012216945178806782,0.008551862090826035,0.00916270911693573
1761314969962025200,8.544025146484374,0.0012216945178806782,0.007941014133393764,0.008551862090826035
1761314969980946700,8.56294677734375,0.0018325417768210173,0.009773556143045425,0.007941014133393764
1761314969999868400,8.581868408203125,0.0018325417768210173,0.00916270911693573,0.008551862090826035
1761314970018790000,8.600789794921875,0.0012216945178806782,0.008551862090826035,0.008551862090826035
1761314970037711600,8.619711669921875,0.0012216945178806782,0.007941014133393764,0.00916270911693573
1761314970056633000,8.638633056640625,0.0018325417768210173,0.008551862090826035,0.00916270911693573
1761314970075554800,8.657554931640625,0.0012216945178806782,0.007941014133393764,0.008551862090826035
1761314970094476300,8.676476318359375,0.0012216945178806782,0.00916270911693573,0.00916270911693573
1761314970113398000,8.69539794921875,0.0018325417768210173,0.00916270911693573,0.00916270911693573
1761314970132319500,8.714319580078126,0.0018325417768210173,0.007941014133393764,0.00916270911693573
1761314970151241200,8.7332412109375,0.0012216945178806782,0.008551862090826035,0.00916270911693573
1761314970170162700,8.75216259765625,0.0018325417768210173,0.008551862090826035,0.00916270911693573
1761314970189084400,8.77108447265625,0.0018325417768210173,0.00916270911693573,0.00916270911693573
1761314970208006000,8.790005859375,0.0018325417768210173,0.008551862090826035,0.008551862090826035
1761314970226927600,8.808927734375,0.0018325417768210173,0.007941014133393764,0.008551862090826035
1761314970245849000,8.82784912109375,0.0024433890357613564,0.008551862090826035,0.00916270911693573
1761314970264770800,8.846770751953125,0.0012216945178806782,0.008551862090826035,0.00916270911693573
1761314970283692300,8.8656923828125,0.0018325417768210173,0.00916270911693573,0.008551862090826035
1761314970302614000,8.884614013671875,0.0018325417768210173,0.00916270911693573,0.00916270911693573
1761314970321535500,8.903535400390625,0.0018325417768210173,0.008551862090826035,0.00916270911693573
1761314970340457200,8.922457275390625,0.0012216945178806782,0.008551862090826035,0.007941014133393764
1761314970359378700,8.941378662109376,0.0018325417768210173,0.008551862090826035,0.00916270911693573
1761314970378300400,8.960300537109376,0.0018325417768210173,0.008551862090826035,0.00916270911693573
1761314970397222000,8.979221923828124,0.0012216945178806782,0.008551862090826035,0.008551862090826035
1761314970416143600,8.9981435546875,0.0012216945178806782,0.008551862090826035,0.008551862090826035
1761314970435065000,9.017065185546874,0.0018325417768210173,0.008551862090826035,0.00916270911693573
1761314970453986800,9.03598681640625,0.0012216945178806782,0.008551862090826035,0.008551862090826035
1761314970472908300,9.054908203125,0.0012216945178806782,0.008551862090826035,0.00916270911693573
1761314970491830000,9.073830078125,0.0018325417768210173,0.008551862090826035,0.008551862090826035
1761314970510751500,9.09275146484375,0.0012216945178806782,0.00916270911693573,0.008551862090826035
1761314970529673200,9.111673095703125,0.0018325417768210173,0.007941014133393764,0.00916270911693573
1761314970548594700,9.1305947265625,0.0018325417768210173,0.008551862090826035,0.00916270911693573
1761314970567516400,9.149516357421875,0.0018325417768210173,0.00916270911693573,0.00916270911693573
1761314970586438000,9.16843798828125,0.0012216945178806782,0.00916270911693573,0.008551862090826035
1761314970605359600,9.187359619140626,0.0018325417768210173,0.007941014133393764,0.008551862090826035
1761314970624281000,9.206281005859376,0.0018325417768210173,0.008551862090826035,0.008551862090826035
1761314970643202800,9.225202880859374,0.0018325417768210173,0.008551862090826035,0.00916270911693573
1761314970662124300,9.244124267578124,0.0024433890357613564,0.008551862090826035,0.008551862090826035
1761314970681046000,9.2630458984375,0.0018325417768210173,0.00916270911693573,0.008551862090826035
1761314970699967500,9.281967529296875,0.0018325417768210173,0.00916270911693573,0.008551862090826035
1761314970718889200,9.30088916015625,0.0012216945178806782,0.008551862090826035,0.008551862090826035
1761314970737810700,9.319810791015625,0.0018325417768210173,0.00916270911693573,0.008551862090826035
1761314970756732400,9.338732421875,0.0018325417768210173,0.008551862090826035,0.008551862090826035
1761314970775654000,9.35765380859375,0.0006108472589403391,0.008551862090826035,0.008551862090826035
1761314970794575600,9.37657568359375,0.0018325417768210173,0.007941014133393764,0.00916270911693573
1761314970813497000,9.3954970703125,0.0012216945178806782,0.00916270911693573,0.008551862090826035
1761314970832418800,9.414418701171876,0.0012216945178806782,0.00916270911693573,0.008551862090826035
1761314970851340300,9.43334033203125,0.0024433890357613564,0.008551862090826035,0.008551862090826035
1761314970870262000,9.452261962890624,0.0018325417768210173,0.007941014133393764,0.008551862090826035
1761314970889183500,9.47118359375,0.0018325417768210173,0.007941014133393764,0.00916270911693573
1761314970908105200,9.490105224609374,0.0018325417768210173,0.008551862090826035,0.008551862090826035
1761314970927026700,9.509026611328125,0.0018325417768210173,0.008551862090826035,0.007941014133393764
1761314970945948400,9.527948486328125,0.0018325417768210173,0.008551862090826035,0.00916270911693573
1761314970964870000,9.546869873046875,0.0018325417768210173,0.007941014133393764,0.008551862090826035
1761314970983791600,9.56579150390625,0.0018325417768210173,0.008551862090826035,0.00916270911693573
1761314971002713000,9.584713134765625,0.0012216945178806782,0.008551862090826035,0.007941014133393764
1761314971021634800,9.603634765625,0.0024433890357613564,0.008551862090826035,0.008551862090826035
1761314971040556300,9.622556396484375,0.0012216945178806782,0.00916270911693573,0.008551862090826035
1761314971059478000,9.64147802734375,0.0018325417768210173,0.008551862090826035,0.00916270911693573
1761314971078399500,9.6603994140625,0.0012216945178806782,0.00916270911693573,0.008551862090826035
1761314971097321200,9.6793212890625,0.0012216945178806782,0.007941014133393764,0.008551862090826035
1761314971116242700,9.69824267578125,0.0018325417768210173,0.00916270911693573,0.008551862090826035
1761314971135164400,9.717164306640624,0.0018325417768210173,0.008551862090826035,0.00916270911693573
1761314971154086000,9.7360859375,0.0018325417768210173,0.008551862090826035,0.007941014133393764
1761314971173007400,9.75500732421875,0.0018325417768210173,0.007941014133393764,0.00916270911693573
1761314971191929000,9.77392919921875,0.0018325417768210173,0.00916270911693573,0.008551862090826035
1761314971210850600,9.7928505859375,0.0018325417768210173,0.008551862090826035,0.008551862090826035
1761314971229772300,9.811772216796875,0.0018325417768210173,0.008551862090826035,0.007941014133393764
1761314971248693800,9.83069384765625,0.0018325417768210173,0.008551862090826035,0.008551862090826035
1761314971267615500,9.849615478515625,0.0018325417768210173,0.008551862090826035,0.008551862090826035
1761314971286537000,9.868536865234375,0.0018325417768210173,0.008551862090826035,0.00916270911693573
1761314971305458700,9.887458740234376,0.0012216945178806782,0.008551862090826035,0.007941014133393764
1761314971324380200,9.906380126953126,0.0012216945178806782,0.00916270911693573,0.007941014133393764
1761314971343302000,9.925302001953124,0.0012216945178806782,0.008551862090826035,0.008551862090826035
1761314971362223400,9.944223388671874,0.0012216945178806782,0.008551862090826035,0.008551862090826035
1761314971381145000,9.96314501953125,0.0012216945178806782,0.008551862090826035,0.008551862090826035
1761314971400066600,9.982066650390625,0.0012216945178806782,0.00916270911693573,0.00916270911693573
1761314971418988300,10.00098828125,0.0018325417768210173,0.008551862090826035,0.008551862090826035
1761314971437909800,10.01990966796875,0.0018325417768210173,0.008551862090826035,0.008551862090826035
1761314971456831500,10.03883154296875,0.0012216945178806782,0.008551862090826035,0.008551862090826035
1761314971475753000,10.0577529296875,0.0006108472589403391,0.008551862090826035,0.008551862090826035
1761314971494674700,10.0766748046875,0.0018325417768210173,0.008551862090826035,0.008551862090826035
1761314971513596200,10.09559619140625,0.0018325417768210173,0.008551862090826035,0.008551862090826035
1761314971532517600,10.114517578125,0.0006108472589403391,0.008551862090826035,0.008551862090826035
1761314971551439400,10.133439453125,0.0012216945178806782,0.007941014133393764,0.008551862090826035
1761314971570360800,10.15236083984375,0.0012216945178806782,0.007941014133393764,0.008551862090826035
1761314971589282600,10.171282470703124,0.0012216945178806782,0.008551862090826035,0.008551862090826035
1761314971608204000,10.1902041015625,0.0018325417768210173,0.008551862090826035,0.008551862090826035
1761314971627125800,10.209125732421874,0.0018325417768210173,0.008551862090826035,0.008551862090826035
1761314971646047200,10.228047119140625,0.0012216945178806782,0.007941014133393764,0.008551862090826035
1761314971664969000,10.246968994140625,0.0018325417768210173,0.008551862090826035,0.00916270911693573
1761314971683890400,10.265890380859375,0.0018325417768210173,0.008551862090826035,0.00916270911693573
1761314971702812200,10.284812255859375,0.0012216945178806782,0.00916270911693573,0.008551862090826035
1761314971721733600,10.303733642578125,0.0018325417768210173,0.008551862090826035,0.008551862090826035
1761314971740655400,10.3226552734375,0.0018325417768210173,0.00916270911693573,0.008551862090826035
1761314971759576800,10.341576904296875,0.0018325417768210173,0.00916270911693573,0.007941014133393764
1761314971778498300,10.360498291015626,0.0012216945178806782,0.00916270911693573,0.008551862090826035
1761314971797420000,10.379419921875,0.0012216945178806782,0.007941014133393764,0.008551862090826035
1761314971816341500,10.398341552734376,0.0012216945178806782,0.008551862090826035,0.00916270911693573
1761314971835263200,10.41726318359375,0.0018325417768210173,0.008551862090826035,0.008551862090826035
1761314971854184700,10.436184814453124,0.0018325417768210173,0.008551862090826035,0.008551862090826035
1761314971873106400,10.4551064453125,0.0018325417768210173,0.008551862090826035,0.00916270911693573
1761314971892028000,10.47402783203125,0.0018325417768210173,0.008551862090826035,0.008551862090826035
1761314971910949600,10.49294970703125,0.0018325417768210173,0.008551862090826035,0.008551862090826035
1761314971929871000,10.51187109375,0.0012216945178806782,0.008551862090826035,0.008551862090826035
1761314971948792800,10.530792724609375,0.0018325417768210173,0.007941014133393764,0.00916270911693573
1761314971967714300,10.54971435546875,0.0018325417768210173,0.00916270911693573,0.008551862090826035
1761314971986636000,10.568635986328125,0.0018325417768210173,0.008551862090826035,0.008551862090826035
1761314972005557500,10.5875576171875,0.0018325417768210173,0.007330167107284069,0.008551862090826035
1761314972024479000,10.60647900390625,0.0012216945178806782,0.00916270911693573,0.00916270911693573
1761314972043400700,10.625400634765626,0.0018325417768210173,0.008551862090826035,0.008551862090826035
1761314972062322200,10.644322265625,0.0012216945178806782,0.008551862090826035,0.008551862090826035
1761314972081244000,10.663243896484374,0.0012216945178806782,0.007941014133393764,0.00916270911693573
1761314972100165400,10.682165283203124,0.0012216945178806782,0.008551862090826035,0.007941014133393764
1761314972119087000,10.701087158203125,0.0018325417768210173,0.008551862090826035,0.007941014133393764
1761314972138008600,10.720008544921875,0.0018325417768210173,0.007941014133393764,0.00916270911693573
1761314972156930300,10.738930419921875,0.0012216945178806782,0.008551862090826035,0.008551862090826035
1761314972175851800,10.757851806640625,0.0012216945178806782,0.00916270911693573,0.00916270911693573
1761314972194773200,10.776773193359375,0.0018325417768210173,0.009773556143045425,0.00916270911693573
1761314972213695000,10.795695068359375,0.0018325417768210173,0.008551862090826035,0.008551862090826035
1761314972232616400,10.814616455078125,0.0018325417768210173,0.008551862090826035,0.00916270911693573
1761314972251538200,10.8335380859375,0.0018325417768210173,0.008551862090826035,0.008551862090826035
1761314972270459600,10.852459716796876,0.0024433890357613564,0.00916270911693573,0.00916270911693573
1761314972289381400,10.87138134765625,0.0012216945178806782,0.007941014133393764,0.008551862090826035
1761314972308302800,10.890302734375,0.0018325417768210173,0.008551862090826035,0.008551862090826035
1761314972327224300,10.909224365234374,0.0018325417768210173,0.008551862090826035,0.008551862090826035
1761314972346146000,10.92814599609375,0.0012216945178806782,0.008551862090826035,0.00916270911693573
1761314972365067500,10.947067626953125,0.0012216945178806782,0.00916270911693573,0.00916270911693573
1761314972383989200,10.9659892578125,0.0018325417768210173,0.00916270911693573,0.00916270911693573
1761314972402910700,10.98491064453125,0.0018325417768210173,0.008551862090826035,0.008551862090826035
1761314972421832400,11.00383251953125,0.0012216945178806782,0.008551862090826035,0.009773556143045425
1761314972440754000,11.02275390625,0.0018325417768210173,0.008551862090826035,0.008551862090826035
1761314972459675400,11.04167529296875,0.0012216945178806782,0.007941014133393764,0.008551862090826035
1761314972478597000,11.06059716796875,0.0018325417768210173,0.007941014133393764,0.007941014133393764
1761314972497518600,11.0795185546875,0.0018325417768210173,0.00916270911693573,0.008551862090826035
1761314972516440300,11.0984404296875,0.0018325417768210173,0.00916270911693573,0.007941014133393764
1761314972535361800,11.11736181640625,0.0018325417768210173,0.008551862090826035,0.008551862090826035
1761314972554283500,11.136283447265624,0.0012216945178806782,0.00916270911693573,0.00916270911693573
1761314972573205000,11.155205078125,0.0012216945178806782,0.008551862090826035,0.008551862090826035
1761314972592126700,11.174126708984375,0.0018325417768210173,0.00916270911693573,0.008551862090826035
1761314972611048200,11.193048095703125,0.0018325417768210173,0.008551862090826035,0.008551862090826035
1761314972629969700,11.2119697265625,0.0018325417768210173,0.008551862090826035,0.008551862090826035
1761314972648891400,11.230891357421875,0.0018325417768210173,0.008551862090826035,0.00916270911693573
1761314972667812900,11.249812744140625,0.0018325417768210173,0.008551862090826035,0.008551862090826035
1761314972686734600,11.268734619140625,0.0018325417768210173,0.008551862090826035,0.008551862090826035
1761314972705656000,11.287656005859375,0.0012216945178806782,0.008551862090826035,0.008551862090826035
1761314972724577500,11.30657763671875,0.0018325417768210173,0.007941014133393764,0.008551862090826035
1761314972743499300,11.325499267578126,0.0012216945178806782,0.007941014133393764,0.008551862090826035
1761314972762420700,11.344420654296876,0.0012216945178806782,0.007941014133393764,0.00916270911693573
1761314972781342500,11.363342529296874,0.0012216945178806782,0.007941014133393764,0.00916270911693573
1761314972800264000,11.382263916015624,0.0018325417768210173,0.008551862090826035,0.008551862090826035
1761314972819185700,11.401185546875,0.0018325417768210173,0.007941014133393764,0.00916270911693573
1761314972838107100,11.420107177734375,0.0018325417768210173,0.008551862090826035,0.008551862090826035
1761314972857028600,11.439028564453125,0.0018325417768210173,0.008551862090826035,0.008551862090826035
1761314972875950300,11.457950439453125,0.0018325417768210173,0.00916270911693573,0.00916270911693573
1761314972894871800,11.476871826171875,0.0012216945178806782,0.008551862090826035,0.00916270911693573
1761314972913793500,11.49579345703125,0.0018325417768210173,0.00916270911693573,0.00916270911693573
1761314972932715000,11.514715087890625,0.0018325417768210173,0.008551862090826035,0.008551862090826035
1761314972951636500,11.533636474609375,0.0018325417768210173,0.008551862090826035,0.00916270911693573
1761314972970558200,11.55255810546875,0.0018325417768210173,0.00916270911693573,0.00916270911693573
1761314972989479700,11.571479736328126,0.0018325417768210173,0.00916270911693573,0.00916270911693573
1761314973008401400,11.5904013671875,0.0018325417768210173,0.008551862090826035,0.007941014133393764
1761314973027323000,11.609322998046874,0.0012216945178806782,0.008551862090826035,0.008551862090826035
1761314973046244600,11.62824462890625,0.0012216945178806782,0.008551862090826035,0.007941014133393764
1761314973065166000,11.647166015625,0.0018325417768210173,0.007941014133393764,0.008551862090826035
1761314973084087600,11.666087646484375,0.0012216945178806782,0.008551862090826035,0.008551862090826035
1761314973103009300,11.68500927734375,0.0012216945178806782,0.007941014133393764,0.008551862090826035
1761314973121930800,11.7039306640625,0.0018325417768210173,0.008551862090826035,0.008551862090826035
1761314973140852500,11.7228525390625,0.0018325417768210173,0.00916270911693573,0.008551862090826035
1761314973159774000,11.74177392578125,0.0012216945178806782,0.00916270911693573,0.008551862090826035
1761314973178695400,11.7606953125,0.0018325417768210173,0.008551862090826035,0.008551862090826035
1761314973197617200,11.7796171875,0.0012216945178806782,0.008551862090826035,0.009773556143045425
1761314973216538600,11.79853857421875,0.0018325417768210173,0.00916270911693573,0.007941014133393764
1761314973235460400,11.81746044921875,0.0018325417768210173,0.008551862090826035,0.007941014133393764
1761314973254381800,11.8363818359375,0.0012216945178806782,0.00916270911693573,0.008551862090826035
1761314973273303300,11.85530322265625,0.0018325417768210173,0.007941014133393764,0.00916270911693573
1761314973292225000,11.87422509765625,0.0018325417768210173,0.00916270911693573,0.007941014133393764
1761314973311146500,11.893146484375,0.0012216945178806782,0.008551862090826035,0.008551862090826035
1761314973330068200,11.912068115234375,0.0012216945178806782,0.008551862090826035,0.008551862090826035
1761314973348989700,11.93098974609375,0.0012216945178806782,0.008551862090826035,0.008551862090826035
1761314973367911200,11.9499111328125,0.0012216945178806782,0.008551862090826035,0.008551862090826035
1761314973386833000,11.9688330078125,0.0018325417768210173,0.008551862090826035,0.008551862090826035
1761314973405754400,11.98775439453125,0.0018325417768210173,0.00916270911693573,0.00916270911693573
1761314973424676000,12.006676025390625,0.0018325417768210173,0.008551862090826035,0.008551862090826035
1761314973443597600,12.02559765625,0.0018325417768210173,0.008551862090826035,0.008551862090826035
1761314973462519000,12.04451904296875,0.0024433890357613564,0.008551862090826035,0.008551862090826035
1761314973481440800,12.063440673828126,0.0018325417768210173,0.008551862090826035,0.008551862090826035
1761314973500362200,12.0823623046875,0.0012216945178806782,0.008551862090826035,0.008551862090826035
1761314973519284000,12.101283935546874,0.0018325417768210173,0.00916270911693573,0.008551862090826035
1761314973538205400,12.120205322265624,0.0012216945178806782,0.007941014133393764,0.00916270911693573
1761314973557127000,12.139126953125,0.0012216945178806782,0.00916270911693573,0.008551862090826035
1761314973576048600,12.158048583984375,0.0018325417768210173,0.008551862090826035,0.008551862090826035
1761314973594970000,12.17697021484375,0.0018325417768210173,0.007941014133393764,0.008551862090826035
1761314973613891800,12.195891845703125,0.0012216945178806782,0.007941014133393764,0.008551862090826035
1761314973632813300,12.214813232421875,0.0012216945178806782,0.008551862090826035,0.00916270911693573
1761314973651734800,12.23373486328125,0.0018325417768210173,0.008551862090826035,0.008551862090826035
1761314973670656500,12.252656494140625,0.0018325417768210173,0.007941014133393764,0.008551862090826035
1761314973689578000,12.271577880859375,0.0012216945178806782,0.008551862090826035,0.00916270911693573
1761314973708499700,12.290499755859376,0.0012216945178806782,0.00916270911693573,0.008551862090826035
1761314973727421200,12.309421142578126,0.0012216945178806782,0.008551862090826035,0.00916270911693573
1761314973746342700,12.3283427734375,0.0018325417768210173,0.008551862090826035,0.008551862090826035
1761314973765264400,12.347264404296874,0.0018325417768210173,0.008551862090826035,0.00916270911693573
1761314973784185900,12.366185791015624,0.0018325417768210173,0.008551862090826035,0.008551862090826035
1761314973803107300,12.385107421875,0.0018325417768210173,0.008551862090826035,0.00916270911693573
1761314973822029000,12.404029052734375,0.0018325417768210173,0.007941014133393764,0.008551862090826035
1761314973840950500,12.422950439453125,0.0012216945178806782,0.008551862090826035,0.00916270911693573
1761314973859872300,12.441872314453125,0.0012216945178806782,0.00916270911693573,0.008551862090826035
1761314973878793700,12.460793701171875,0.0018325417768210173,0.008551862090826035,0.008551862090826035
1761314973897715200,12.479715087890625,0.0018325417768210173,0.008551862090826035,0.008551862090826035
1761314973916637000,12.498636962890625,0.0012216945178806782,0.008551862090826035,0.00916270911693573
1761314973935558400,12.517558349609375,0.0018325417768210173,0.00916270911693573,0.00916270911693573
1761314973954480000,12.536480224609376,0.0018325417768210173,0.008551862090826035,0.008551862090826035
1761314973973401600,12.555401611328126,0.0018325417768210173,0.00916270911693573,0.00916270911693573
1761314973992323000,12.574322998046876,0.0018325417768210173,0.008551862090826035,0.00916270911693573
1761314974011244800,12.593244873046874,0.0018325417768210173,0.00916270911693573,0.008551862090826035
1761314974030166300,12.612166259765624,0.0018325417768210173,0.008551862090826035,0.00916270911693573
1761314974049087700,12.631087646484374,0.0018325417768210173,0.00916270911693573,0.008551862090826035
1761314974068009500,12.650009521484375,0.0018325417768210173,0.007941014133393764,0.008551862090826035
1761314974086931000,12.668930908203125,0.0018325417768210173,0.007941014133393764,0.008551862090826035
1761314974105852700,12.687852783203125,0.0018325417768210173,0.007941014133393764,0.00916270911693573
1761314974124774100,12.706774169921875,0.0018325417768210173,0.00916270911693573,0.008551862090826035
1761314974143695600,12.725695556640625,0.0012216945178806782,0.008551862090826035,0.008551862090826035
1761314974162617300,12.744617431640625,0.0018325417768210173,0.008551862090826035,0.008551862090826035
1761314974181538800,12.763538818359375,0.0018325417768210173,0.007941014133393764,0.008551862090826035
1761314974200460300,12.782460205078126,0.0018325417768210173,0.008551862090826035,0.008551862090826035
1761314974219382000,12.801382080078126,0.0018325417768210173,0.008551862090826035,0.008551862090826035
1761314974238303500,12.820303466796876,0.0018325417768210173,0.008551862090826035,0.007941014133393764
1761314974257225200,12.83922509765625,0.0018325417768210173,0.008551862090826035,0.008551862090826035
1761314974276146700,12.858146728515624,0.0012216945178806782,0.008551862090826035,0.008551862090826035
1761314974295068200,12.877068115234374,0.0018325417768210173,0.00916270911693573,0.008551862090826035
1761314974313990000,12.895989990234375,0.0018325417768210173,0.00916270911693573,0.00916270911693573
1761314974332911400,12.914911376953125,0.0018325417768210173,0.00916270911693573,0.008551862090826035
1761314974351832800,12.933832763671875,0.0018325417768210173,0.00916270911693573,0.008551862090826035
1761314974370754600,12.952754638671875,0.0024433890357613564,0.008551862090826035,0.008551862090826035
1761314974389676000,12.971676025390625,0.0018325417768210173,0.00916270911693573,0.008551862090826035
1761314974408597800,12.99059765625,0.0018325417768210173,0.008551862090826035,0.008551862090826035
1761314974427519200,13.009519287109375,0.0018325417768210173,0.00916270911693573,0.008551862090826035
1761314974446440700,13.028440673828126,0.0018325417768210173,0.008551862090826035,0.00916270911693573
1761314974465362400,13.047362548828126,0.0018325417768210173,0.008551862090826035,0.008551862090826035
1761314974484284000,13.066283935546876,0.0012216945178806782,0.00916270911693573,0.00916270911693573
1761314974503205400,13.085205322265624,0.0018325417768210173,0.008551862090826035,0.008551862090826035
1761314974522127000,13.104127197265624,0.0006108472589403391,0.008551862090826035,0.008551862090826035
1761314974541048600,13.123048583984374,0.0012216945178806782,0.008551862090826035,0.008551862090826035
1761314974559970300,13.14197021484375,0.0018325417768210173,0.00916270911693573,0.00916270911693573
1761314974578891800,13.160891845703125,0.0018325417768210173,0.007941014133393764,0.008551862090826035
1761314974597813200,13.179813232421875,0.0018325417768210173,0.007941014133393764,0.00916270911693573
1761314974616735000,13.19873486328125,0.0012216945178806782,0.008551862090826035,0.00916270911693573
1761314974635656400,13.217656494140625,0.0012216945178806782,0.007941014133393764,0.008551862090826035
1761314974654578200,13.236578125,0.0012216945178806782,0.007941014133393764,0.007941014133393764
1761314974673499600,13.255499755859375,0.0018325417768210173,0.00916270911693573,0.007941014133393764
1761314974692421000,13.274421142578126,0.0018325417768210173,0.008551862090826035,0.008551862090826035
1761314974711342800,13.2933427734375,0.0012216945178806782,0.00916270911693573,0.008551862090826035
1761314974730264300,13.312264404296876,0.0018325417768210173,0.008551862090826035,0.007941014133393764
1761314974749185800,13.331185791015624,0.0018325417768210173,0.008551862090826035,0.008551862090826035
1761314974768107500,13.350107421875,0.0012216945178806782,0.008551862090826035,0.00916270911693573
1761314974787029000,13.369029052734374,0.0012216945178806782,0.00916270911693573,0.00916270911693573
1761314974805950500,13.387950439453125,0.0012216945178806782,0.008551862090826035,0.008551862090826035
1761314974824872200,13.4068720703125,0.0018325417768210173,0.008551862090826035,0.00916270911693573
1761314974843793700,13.425793701171875,0.0012216945178806782,0.008551862090826035,0.008551862090826035
1761314974862715100,13.444715087890625,0.0012216945178806782,0.007330167107284069,0.00916270911693573
1761314974881636900,13.463636962890625,0.0012216945178806782,0.00916270911693573,0.008551862090826035
1761314974900558300,13.482558349609375,0.0018325417768210173,0.008551862090826035,0.00916270911693573
1761314974919479800,13.501479736328125,0.0012216945178806782,0.008551862090826035,0.00916270911693573
1761314974938401500,13.520401611328126,0.0012216945178806782,0.008551862090826035,0.00916270911693573
1761314974957323000,13.539322998046876,0.0018325417768210173,0.008551862090826035,0.00916270911693573
1761314974976244700,13.55824462890625,0.0018325417768210173,0.008551862090826035,0.00916270911693573
1761314974995166200,13.577166259765624,0.0018325417768210173,0.007941014133393764,0.008551862090826035
1761314975014087700,13.596087646484374,0.0018325417768210173,0.008551862090826035,0.009773556143045425
1761314975033009400,13.615009521484374,0.0012216945178806782,0.008551862090826035,0.008551862090826035
1761314975051931000,13.633930908203125,0.0012216945178806782,0.00916270911693573,0.00916270911693573
1761314975070852400,13.652852294921875,0.0012216945178806782,0.008551862090826035,0.00916270911693573
1761314975089774000,13.671774169921875,0.0012216945178806782,0.00916270911693573,0.00916270911693573
1761314975108695600,13.690695556640625,0.0012216945178806782,0.008551862090826035,0.007941014133393764
1761314975127617000,13.709616943359375,0.0012216945178806782,0.00916270911693573,0.008551862090826035
1761314975146538800,13.728538818359375,0.0012216945178806782,0.00916270911693573,0.008551862090826035
1761314975165460200,13.747460205078125,0.0018325417768210173,0.008551862090826035,0.00916270911693573
1761314975184381700,13.766381591796875,0.0018325417768210173,0.008551862090826035,0.008551862090826035
1761314975203303400,13.785303466796876,0.0012216945178806782,0.008551862090826035,0.00916270911693573
1761314975222225000,13.804224853515626,0.0018325417768210173,0.008551862090826035,0.007941014133393764
1761314975241146400,13.823146484375,0.0012216945178806782,0.008551862090826035,0.00916270911693573
1761314975260068000,13.842068115234374,0.0018325417768210173,0.008551862090826035,0.007941014133393764
1761314975278989600,13.860989501953124,0.0018325417768210173,0.008551862090826035,0.008551862090826035
1761314975297911300,13.879911376953125,0.0018325417768210173,0.008551862090826035,0.008551862090826035
1761314975316832800,13.898832763671875,0.0018325417768210173,0.008551862090826035,0.007941014133393764
1761314975335754200,13.917754150390625,0.0012216945178806782,0.008551862090826035,0.008551862090826035
1761314975354676000,13.936676025390625,0.0018325417768210173,0.008551862090826035,0.00916270911693573
1761314975373597400,13.955597412109375,0.0018325417768210173,0.008551862090826035,0.00916270911693573
1761314975392519000,13.974518798828125,0.0018325417768210173,0.009773556143045425,0.00916270911693573
1761314975411440600,13.993440673828125,0.0018325417768210173,0.007941014133393764,0.008551862090826035
1761314975430362000,14.012362060546875,0.0012216945178806782,0.00916270911693573,0.008551862090826035
1761314975449283600,14.03128369140625,0.0018325417768210173,0.00916270911693573,0.007941014133393764
1761314975468205300,14.050205322265626,0.0012216945178806782,0.008551862090826035,0.008551862090826035
1761314975487126800,14.069126708984374,0.0018325417768210173,0.008551862090826035,0.008551862090826035
1761314975506048300,14.08804833984375,0.0012216945178806782,0.00916270911693573,0.008551862090826035
1761314975524970000,14.106969970703124,0.0018325417768210173,0.00916270911693573,0.008551862090826035
1761314975543891500,14.125891357421875,0.0018325417768210173,0.007941014133393764,0.008551862090826035
1761314975562813000,14.14481298828125,0.0024433890357613564,0.008551862090826035,0.00916270911693573
1761314975581734700,14.163734619140625,0.0012216945178806782,0.007941014133393764,0.008551862090826035
1761314975600656100,14.18265625,0.0012216945178806782,0.00916270911693573,0.008551862090826035
1761314975619577900,14.201577880859375,0.0012216945178806782,0.008551862090826035,0.00916270911693573
1761314975638499300,14.220499267578125,0.0018325417768210173,0.008551862090826035,0.008551862090826035
1761314975657420800,14.2394208984375,0.0018325417768210173,0.007941014133393764,0.00916270911693573
1761314975676342500,14.258342529296876,0.0018325417768210173,0.008551862090826035,0.008551862090826035
1761314975695264000,14.277263916015626,0.0018325417768210173,0.00916270911693573,0.008551862090826035
1761314975714185500,14.296185546875,0.0018325417768210173,0.008551862090826035,0.00916270911693573
1761314975733107000,14.31510693359375,0.0012216945178806782,0.008551862090826035,0.00916270911693573
1761314975752028700,14.334028564453124,0.0012216945178806782,0.008551862090826035,0.008551862090826035
1761314975770950100,14.3529501953125,0.0012216945178806782,0.00916270911693573,0.008551862090826035
1761314975789871900,14.371871826171875,0.0006108472589403391,0.008551862090826035,0.00916270911693573
1761314975808793300,14.39079345703125,0.0012216945178806782,0.008551862090826035,0.008551862090826035
1761314975827714800,14.40971484375,0.0018325417768210173,0.007941014133393764,0.00916270911693573
1761314975846636500,14.428636474609375,0.0018325417768210173,0.008551862090826035,0.008551862090826035
1761314975865558000,14.44755810546875,0.0018325417768210173,0.007941014133393764,0.007941014133393764
1761314975884479500,14.4664794921875,0.0024433890357613564,0.008551862090826035,0.008551862090826035
1761314975903401200,14.485401123046875,0.0012216945178806782,0.00916270911693573,0.00916270911693573
1761314975922322700,14.50432275390625,0.0018325417768210173,0.008551862090826035,0.008551862090826035
1761314975941244200,14.523244140625,0.0018325417768210173,0.008551862090826035,0.008551862090826035
1761314975960166000,14.542165771484376,0.0006108472589403391,0.02504473738372326,0.015271181240677834
1761314975979087400,14.56108740234375,0,0.0787992998957634,0.03298575058579445
1761314975998008800,14.5800087890625,0.0024433890357613564,-0.02626643143594265,-0.0036650835536420345
1761314976016930600,14.5989306640625,0.0018325417768210173,-0.01832541823387146,-0.0012216945178806782
1761314976035852000,14.61785205078125,0.0030542362947016954,-0.02870982140302658,-0.004886778071522713
1761314976054773500,14.6367734375,0.0006108472589403391,0.02993151545524597,0.01710372418165207
