time,seconds_elapsed,z,y,x
1761315028924064800,0.204064697265625,9.827322959899902,-0.007178467698395252,-0.10049854964017868
1761315028961907500,0.241907470703125,9.832108497619629,-0.014356935396790504,-0.12203395366668701
1761315028980829000,0.260828857421875,9.827322959899902,-0.007178467698395252,-0.09810572862625122
1761315028999750400,0.27975048828125,9.784252166748047,-0.031106693670153618,-0.12681959569454193
1761315029018671900,0.298671875,9.836894035339355,-0.02392822690308094,-0.10289137065410614
1761315029037593300,0.31759326171875,9.820143699645996,-0.016749758273363113,-0.11006984114646912
1761315029056514800,0.336514892578125,9.829715728759766,-0.019142581149935722,-0.0933200865983963
1761315029075436300,0.355436279296875,9.81535816192627,-0.03349951654672623,-0.11006984114646912
1761315029094357800,0.374357666015625,9.827322959899902,-0.02392822690308094,-0.0933200865983963
1761315029113279200,0.393279296875,9.81535816192627,-0.004785645287483931,-0.11006984114646912
1761315029132200700,0.41220068359375,9.817750930786133,-0.02392822690308094,-0.12921242415905
1761315029151122200,0.4311220703125,9.829715728759766,-0.009571290574967861,-0.11724831163883209
1761315029170043600,0.450043701171875,9.829715728759766,-0.009571290574967861,-0.10289137065410614
1761315029188965000,0.468965087890625,9.810572624206543,-0.016749758273363113,-0.09571290761232376
1761315029207886600,0.487886474609375,9.798608779907227,-0.01196411345154047,-0.12681959569454193
1761315029226808000,0.50680810546875,9.829715728759766,0.0023928226437419653,-0.10767702013254166
1761315029245729500,0.5257294921875,9.817750930786133,-0.01196411345154047,-0.11724831163883209
1761315029264651000,0.544651123046875,9.805787086486816,-0.01196411345154047,-0.1052841991186142
1761315029283572500,0.563572509765625,9.829715728759766,0,-0.08853443711996078
1761315029302494000,0.582493896484375,9.832108497619629,-0.02153540402650833,-0.08135596662759781
1761315029321415400,0.60141552734375,9.824930191040039,-0.02632104977965355,-0.11006984114646912
1761315029340337000,0.6203369140625,9.812965393066406,-0.02153540402650833,-0.10767702013254166
1761315029359258400,0.63925830078125,9.820143699645996,-0.009571290574967861,-0.0933200865983963
1761315029378179800,0.658179931640625,9.796216011047363,-0.007178467698395252,-0.11006984114646912
1761315029397101300,0.677101318359375,9.805787086486816,-0.035892341285943985,-0.12203395366668701
1761315029416022800,0.696022705078125,9.834501266479492,-0.016749758273363113,-0.12203395366668701
1761315029434944300,0.7149443359375,9.844072341918945,-0.01196411345154047,-0.08853443711996078
1761315029453865700,0.73386572265625,9.822537422180176,-0.02392822690308094,-0.10049854964017868
1761315029472787200,0.752787109375,9.820143699645996,-0.031106693670153618,-0.12203395366668701
1761315029491708700,0.771708740234375,9.820143699645996,0,-0.10289137065410614
1761315029510630000,0.7906298828125,9.812965393066406,-0.02392822690308094,-0.10049854964017868
1761315029529551600,0.809551513671875,9.80100154876709,-0.02153540402650833,-0.11724831163883209
1761315029548473000,0.82847314453125,9.839286804199219,-0.014356935396790504,-0.10767702013254166
1761315029567394300,0.847394287109375,9.810572624206543,-0.0023928226437419653,-0.09571290761232376
1761315029586315800,0.866315673828125,9.805787086486816,-0.0023928226437419653,-0.10289137065410614
1761315029605237200,0.8852373046875,9.827322959899902,-0.014356935396790504,-0.09571290761232376
1761315029624158700,0.90415869140625,9.827322959899902,-0.016749758273363113,-0.0933200865983963
1761315029643080200,0.923080078125,9.839286804199219,-0.01196411345154047,-0.11485548317432404
1761315029662001700,0.942001708984375,9.822537422180176,-0.014356935396790504,-0.09092725813388824
1761315029680923100,0.960923095703125,9.820143699645996,-0.02632104977965355,-0.12203395366668701
1761315029699844600,0.9798447265625,9.81535816192627,-0.014356935396790504,-0.10289137065410614
1761315029718766000,0.99876611328125,9.810572624206543,-0.01196411345154047,-0.09571290761232376
1761315029737687600,1.0176875,9.829715728759766,-0.02153540402650833,-0.10767702013254166
1761315029756609000,1.036609130859375,9.824930191040039,-0.02632104977965355,-0.12442677468061447
1761315029775530500,1.055530517578125,9.812965393066406,-0.016749758273363113,-0.11246266216039658
1761315029794452000,1.074451904296875,9.810572624206543,-0.016749758273363113,-0.1052841991186142
1761315029813373400,1.09337353515625,9.812965393066406,-0.02632104977965355,-0.09810572862625122
1761315029832295000,1.112294921875,9.812965393066406,0.0023928226437419653,-0.11246266216039658
1761315029851216400,1.13121630859375,9.812965393066406,0,-0.11485548317432404
1761315029870137900,1.150137939453125,9.829715728759766,-0.014356935396790504,-0.10049854964017868
1761315029889059300,1.169059326171875,9.822537422180176,-0.01196411345154047,-0.07896314561367035
1761315029907980800,1.187980712890625,9.820143699645996,-0.02392822690308094,-0.1052841991186142
1761315029926902300,1.20690234375,9.820143699645996,-0.016749758273363113,-0.13160525262355804
1761315029945823700,1.22582373046875,9.822537422180176,-0.019142581149935722,-0.09571290761232376
1761315029964745200,1.2447451171875,9.810572624206543,0.0023928226437419653,-0.10049854964017868
1761315029983666700,1.263666748046875,9.817750930786133,-0.031106693670153618,-0.11964113265275955
1761315030002588000,1.282587890625,9.812965393066406,-0.038285162299871445,-0.09810572862625122
1761315030021509400,1.30150927734375,9.832108497619629,0,-0.0933200865983963
1761315030040430800,1.320430908203125,9.805787086486816,-0.009571290574967861,-0.1052841991186142
1761315030059352300,1.339352294921875,9.822537422180176,-0.019142581149935722,-0.11246266216039658
1761315030078273800,1.358273681640625,9.824930191040039,-0.014356935396790504,-0.11485548317432404
1761315030097195300,1.3771953125,9.810572624206543,-0.004785645287483931,-0.10289137065410614
1761315030116116700,1.39611669921875,9.767501831054688,-0.038285162299871445,0.16031911969184875
1761315030135038200,1.4150380859375,9.061619758605957,0.1698904037475586,-0.5216353535652161
1761315030153959700,1.433959716796875,10.159924507141113,-0.07178468257188797,0.07178468257188797
1761315030172881200,1.452881103515625,9.860821723937988,-0.040677983313798904,-0.14356936514377594
1761315030191802600,1.471802734375,9.781859397888184,-0.007178467698395252,-0.13639089465141296
1761315030210724000,1.49072412109375,9.91825008392334,-0.040677983313798904,-0.04546362906694412
1761315030229645600,1.5096455078125,9.734002113342285,0.019142581149935722,-0.1866401731967926
1761315030248567000,1.528567138671875,9.872786521911621,-0.04785645380616188,-0.0526420995593071
1761315030267488500,1.547488525390625,9.779465675354004,-0.01196411345154047,-0.14356936514377594
1761315030286410000,1.566409912109375,9.863214492797852,-0.014356935396790504,-0.07178468257188797
1761315030305331500,1.58533154296875,9.796216011047363,-0.014356935396790504,-0.12442677468061447
1761315030324253000,1.6042529296875,9.81535816192627,-0.02632104977965355,-0.10049854964017868
1761315030343174400,1.62317431640625,9.810572624206543,0.007178467698395252,-0.10049854964017868
1761315030362095900,1.642095947265625,9.817750930786133,-0.01196411345154047,-0.11246266216039658
1761315030381017300,1.661017333984375,9.829715728759766,-0.02871387079358101,-0.11006984114646912
1761315030399938800,1.679938720703125,9.810572624206543,0.0023928226437419653,-0.1052841991186142
1761315030418860300,1.6988603515625,9.820143699645996,-0.009571290574967861,-0.11724831163883209
1761315030437781500,1.717781494140625,9.805787086486816,-0.004785645287483931,-0.1052841991186142
1761315030456703000,1.736702880859375,9.822537422180176,-0.007178467698395252,-0.09092725813388824
1761315030475624400,1.75562451171875,9.817750930786133,-0.014356935396790504,-0.08614161610603333
1761315030494546000,1.7745458984375,9.7938232421875,-0.016749758273363113,-0.09810572862625122
1761315030513467400,1.79346728515625,9.80100154876709,-0.007178467698395252,-0.12442677468061447
1761315030532388900,1.812388916015625,9.822537422180176,-0.02632104977965355,-0.10289137065410614
1761315030551310300,1.831310302734375,9.810572624206543,-0.031106693670153618,-0.10767702013254166
1761315030570231800,1.850231689453125,9.820143699645996,-0.019142581149935722,-0.11724831163883209
1761315030589153300,1.8691533203125,9.817750930786133,-0.02632104977965355,-0.08614161610603333
1761315030608074800,1.88807470703125,9.829715728759766,-0.02153540402650833,-0.08853443711996078
1761315030626996200,1.906996337890625,9.805787086486816,-0.01196411345154047,-0.11724831163883209
1761315030645917700,1.925917724609375,9.803394317626953,-0.02632104977965355,-0.09810572862625122
1761315030664839200,1.944839111328125,9.827322959899902,-0.02871387079358101,-0.11485548317432404
1761315030683760600,1.9637607421875,9.81535816192627,-0.0023928226437419653,-0.0933200865983963
1761315030702682000,1.98268212890625,9.80817985534668,-0.014356935396790504,-0.08614161610603333
1761315030721603600,2.001603515625,9.822537422180176,-0.038285162299871445,-0.11006984114646912
1761315030740525000,2.020525146484375,9.827322959899902,0,-0.09810572862625122
1761315030759446500,2.039446533203125,9.805787086486816,-0.02632104977965355,-0.0933200865983963
1761315030778367700,2.05836767578125,9.824930191040039,-0.02392822690308094,-0.10289137065410614
1761315030797289200,2.077289306640625,9.829715728759766,-0.02153540402650833,-0.11485548317432404
1761315030816210700,2.096210693359375,9.822537422180176,-0.02392822690308094,-0.12203395366668701
1761315030835132200,2.115132080078125,9.81535816192627,-0.02632104977965355,-0.0933200865983963
1761315030854053600,2.1340537109375,9.824930191040039,-0.009571290574967861,-0.10289137065410614
1761315030872975000,2.15297509765625,9.827322959899902,-0.016749758273363113,-0.09810572862625122
1761315030891896600,2.171896484375,9.805787086486816,-0.004785645287483931,-0.11006984114646912
1761315030910818000,2.190818115234375,9.827322959899902,-0.02392822690308094,-0.0933200865983963
1761315030929739500,2.209739501953125,9.829715728759766,-0.02871387079358101,-0.11724831163883209
1761315030948661000,2.228660888671875,9.81535816192627,-0.02632104977965355,-0.10049854964017868
1761315030967582500,2.24758251953125,9.824930191040039,-0.009571290574967861,-0.12203395366668701
1761315030986504000,2.26650390625,9.824930191040039,-0.03349951654672623,-0.12442677468061447
1761315031005425400,2.28542529296875,9.822537422180176,-0.004785645287483931,-0.10049854964017868
1761315031024347000,2.304346923828125,9.812965393066406,-0.009571290574967861,-0.11006984114646912
1761315031043268400,2.323268310546875,9.81535816192627,-0.038285162299871445,-0.11964113265275955
1761315031062189800,2.34218994140625,9.839286804199219,-0.019142581149935722,-0.0933200865983963
1761315031081111300,2.361111328125,9.80817985534668,-0.014356935396790504,-0.11006984114646912
1761315031100032800,2.38003271484375,9.796216011047363,-0.02153540402650833,-0.10289137065410614
1761315031118954200,2.398954345703125,9.839286804199219,-0.02153540402650833,-0.12203395366668701
1761315031137875500,2.41787548828125,9.822537422180176,-0.0023928226437419653,-0.10767702013254166
1761315031156797000,2.436796875,9.791430473327637,-0.02392822690308094,-0.10289137065410614
1761315031175718400,2.455718505859375,9.80817985534668,-0.014356935396790504,-0.11964113265275955
1761315031194640000,2.474639892578125,9.824930191040039,-0.01196411345154047,-0.10767702013254166
1761315031213561300,2.493561279296875,9.822537422180176,-0.007178467698395252,-0.10767702013254166
1761315031232482800,2.51248291015625,9.805787086486816,-0.009571290574967861,-0.11006984114646912
1761315031251404300,2.531404296875,9.827322959899902,-0.019142581149935722,-0.10767702013254166
1761315031270325800,2.55032568359375,9.822537422180176,-0.0023928226437419653,-0.10049854964017868
1761315031289247200,2.569247314453125,9.80100154876709,-0.019142581149935722,-0.11485548317432404
1761315031308168700,2.588168701171875,9.824930191040039,-0.02392822690308094,-0.11724831163883209
1761315031327090200,2.607090087890625,9.820143699645996,-0.02153540402650833,-0.10289137065410614
1761315031346011600,2.62601171875,9.812965393066406,-0.02392822690308094,-0.11964113265275955
1761315031364933000,2.64493310546875,9.829715728759766,-0.02153540402650833,-0.1052841991186142
1761315031383854600,2.6638544921875,9.817750930786133,-0.007178467698395252,-0.09810572862625122
1761315031402776000,2.682776123046875,9.820143699645996,-0.019142581149935722,-0.12681959569454193
1761315031421697500,2.701697509765625,9.805787086486816,-0.004785645287483931,-0.11964113265275955
1761315031440619000,2.720618896484375,9.822537422180176,-0.016749758273363113,-0.11006984114646912
1761315031459540500,2.73954052734375,9.822537422180176,-0.02153540402650833,-0.10289137065410614
1761315031478462000,2.7584619140625,9.798608779907227,-0.0023928226437419653,-0.11485548317432404
1761315031497383200,2.777383056640625,9.80817985534668,-0.019142581149935722,-0.10767702013254166
1761315031516304600,2.7963046875,9.834501266479492,-0.02871387079358101,-0.09092725813388824
1761315031535226000,2.81522607421875,9.822537422180176,-0.016749758273363113,-0.1052841991186142
1761315031554147600,2.834147705078125,9.798608779907227,-0.0023928226437419653,-0.11006984114646912
1761315031573069000,2.853069091796875,9.822537422180176,-0.01196411345154047,-0.12921242415905
1761315031591990500,2.871990478515625,9.822537422180176,-0.014356935396790504,-0.12203395366668701
1761315031610912000,2.890912109375,9.812965393066406,-0.016749758273363113,-0.11006984114646912
1761315031629833500,2.90983349609375,9.817750930786133,-0.01196411345154047,-0.11485548317432404
1761315031648755000,2.9287548828125,9.820143699645996,-0.01196411345154047,-0.10289137065410614
1761315031667676400,2.947676513671875,9.81535816192627,-0.0023928226437419653,-0.08853443711996078
1761315031686598000,2.966597900390625,9.820143699645996,-0.03349951654672623,-0.10289137065410614
1761315031705519400,2.985519287109375,9.834501266479492,-0.01196411345154047,-0.09810572862625122
1761315031724440800,3.00444091796875,9.805787086486816,-0.019142581149935722,-0.12203395366668701
1761315031743362300,3.0233623046875,9.812965393066406,-0.019142581149935722,-0.09571290761232376
1761315031762283800,3.04228369140625,9.824930191040039,-0.02153540402650833,-0.09810572862625122
1761315031781205200,3.061205322265625,9.827322959899902,-0.004785645287483931,-0.10767702013254166
1761315031800126700,3.080126708984375,9.81535816192627,0,-0.09571290761232376
1761315031819048200,3.099048095703125,9.820143699645996,-0.014356935396790504,-0.11246266216039658
1761315031837969400,3.117969482421875,9.829715728759766,-0.019142581149935722,-0.10049854964017868
1761315031856891000,3.136890869140625,9.81535816192627,-0.009571290574967861,-0.11246266216039658
1761315031875812400,3.155812255859375,9.810572624206543,-0.02153540402650833,-0.10049854964017868
1761315031894733800,3.17473388671875,9.839286804199219,-0.02153540402650833,-0.10289137065410614
1761315031913655300,3.1936552734375,9.817750930786133,-0.040677983313798904,-0.10767702013254166
1761315031932576800,3.21257666015625,9.80817985534668,-0.014356935396790504,-0.1052841991186142
1761315031951498200,3.231498291015625,9.817750930786133,-0.004785645287483931,-0.11724831163883209
1761315031970419700,3.250419677734375,9.827322959899902,-0.02392822690308094,-0.11485548317432404
1761315031989341200,3.269341064453125,9.839286804199219,-0.01196411345154047,-0.11964113265275955
1761315032008262700,3.2882626953125,9.820143699645996,-0.016749758273363113,-0.10289137065410614
1761315032027184000,3.30718408203125,9.817750930786133,-0.019142581149935722,-0.10767702013254166
1761315032046105600,3.326105712890625,9.824930191040039,-0.02392822690308094,-0.1339980661869049
1761315032065027000,3.345027099609375,9.812965393066406,-0.016749758273363113,-0.0933200865983963
1761315032083948500,3.363948486328125,9.812965393066406,-0.019142581149935722,-0.10049854964017868
1761315032102870000,3.3828701171875,9.822537422180176,-0.02632104977965355,-0.09092725813388824
1761315032121791500,3.40179150390625,9.812965393066406,0.0023928226437419653,-0.07896314561367035
1761315032140713000,3.420712890625,9.80100154876709,-0.01196411345154047,-0.12203395366668701
1761315032159634400,3.439634521484375,9.824930191040039,-0.009571290574967861,-0.0933200865983963
1761315032178556000,3.458555908203125,9.829715728759766,-0.0023928226437419653,-0.11006984114646912
1761315032197477000,3.47747705078125,9.81535816192627,-0.031106693670153618,-0.11485548317432404
1761315032216398600,3.496398681640625,9.798608779907227,-0.019142581149935722,-0.11485548317432404
1761315032235320000,3.515320068359375,9.829715728759766,-0.035892341285943985,-0.10049854964017868
1761315032254241500,3.534241455078125,9.832108497619629,-0.004785645287483931,-0.10049854964017868
1761315032273163000,3.5531630859375,9.820143699645996,-0.019142581149935722,-0.09571290761232376
1761315032292084500,3.57208447265625,9.827322959899902,-0.04307080805301666,-0.10767702013254166
1761315032311006000,3.591005859375,9.80817985534668,-0.004785645287483931,-0.11006984114646912
1761315032329927400,3.609927490234375,9.81535816192627,-0.004785645287483931,-0.10289137065410614
1761315032348849000,3.628848876953125,9.820143699645996,-0.014356935396790504,-0.10767702013254166
1761315032367770400,3.647770263671875,9.817750930786133,0.0023928226437419653,-0.1052841991186142
1761315032386691800,3.66669189453125,9.81535816192627,-0.016749758273363113,-0.1052841991186142
1761315032405613300,3.68561328125,9.80100154876709,-0.02392822690308094,-0.1052841991186142
1761315032424534800,3.70453466796875,9.820143699645996,-0.019142581149935722,-0.0933200865983963
1761315032443456300,3.723456298828125,9.827322959899902,-0.02392822690308094,-0.10767702013254166
1761315032462377700,3.742377685546875,9.80817985534668,-0.007178467698395252,-0.1052841991186142
1761315032481299200,3.76129931640625,9.832108497619629,0,-0.11485548317432404
1761315032500220700,3.780220703125,9.817750930786133,-0.007178467698395252,-0.11006984114646912
1761315032519142100,3.79914208984375,9.798608779907227,-0.02392822690308094,-0.10049854964017868
1761315032538063600,3.818063720703125,9.812965393066406,-0.01196411345154047,-0.12442677468061447
1761315032556984800,3.83698486328125,9.817750930786133,-0.004785645287483931,-0.11006984114646912
1761315032575906300,3.85590625,9.820143699645996,-0.031106693670153618,-0.11485548317432404
1761315032594827800,3.874827880859375,9.803394317626953,-0.02871387079358101,-0.11246266216039658
1761315032613749200,3.893749267578125,9.822537422180176,0.0023928226437419653,-0.1052841991186142
1761315032632670700,3.912670654296875,9.81535816192627,-0.02392822690308094,-0.12442677468061447
1761315032651592200,3.93159228515625,9.812965393066406,0.0023928226437419653,-0.0933200865983963
1761315032670513700,3.950513671875,9.822537422180176,-0.02632104977965355,-0.10049854964017868
1761315032689435100,3.96943505859375,9.841679573059082,-0.019142581149935722,-0.1052841991186142
1761315032708356600,3.988356689453125,9.810572624206543,-0.016749758273363113,-0.1052841991186142
1761315032727278000,4.007278076171875,9.80817985534668,-0.02392822690308094,-0.1052841991186142
1761315032746199600,4.026199462890625,9.81535816192627,-0.0023928226437419653,-0.11964113265275955
1761315032765121000,4.04512109375,9.80817985534668,-0.014356935396790504,-0.09092725813388824
1761315032784042500,4.06404248046875,9.810572624206543,-0.004785645287483931,-0.1052841991186142
1761315032802964000,4.0829638671875,9.820143699645996,-0.02153540402650833,-0.11485548317432404
1761315032821885400,4.101885498046875,9.836894035339355,-0.02632104977965355,-0.10049854964017868
1761315032840807000,4.120806884765625,9.812965393066406,-0.014356935396790504,-0.10767702013254166
1761315032859728400,4.139728271484375,9.805787086486816,-0.02871387079358101,-0.10049854964017868
1761315032878649900,4.15864990234375,9.817750930786133,-0.016749758273363113,-0.0933200865983963
1761315032897571300,4.1775712890625,9.805787086486816,0,-0.11246266216039658
1761315032916492500,4.196492431640625,9.80817985534668,-0.014356935396790504,-0.11485548317432404
1761315032935414000,4.2154140625,9.810572624206543,-0.009571290574967861,-0.0933200865983963
1761315032954335500,4.23433544921875,9.820143699645996,-0.0023928226437419653,-0.0933200865983963
1761315032973257000,4.253257080078125,9.820143699645996,-0.02153540402650833,-0.1052841991186142
1761315032992178400,4.272178466796875,9.803394317626953,-0.007178467698395252,-0.11724831163883209
1761315033011100000,4.291099853515625,9.827322959899902,-0.02392822690308094,-0.12681959569454193
1761315033030021400,4.310021484375,9.820143699645996,-0.009571290574967861,-0.11006984114646912
1761315033048942800,4.32894287109375,9.805787086486816,-0.004785645287483931,-0.10289137065410614
1761315033067864300,4.3478642578125,9.820143699645996,-0.031106693670153618,-0.11724831163883209
1761315033086785800,4.366785888671875,9.836894035339355,-0.007178467698395252,-0.11006984114646912
1761315033105707300,4.385707275390625,9.805787086486816,-0.009571290574967861,-0.0933200865983963
1761315033124628700,4.404628662109375,9.80817985534668,0.007178467698395252,-0.1052841991186142
1761315033143550200,4.42355029296875,9.836894035339355,-0.031106693670153618,-0.0933200865983963
1761315033162471700,4.4424716796875,9.812965393066406,-0.01196411345154047,-0.12442677468061447
1761315033181393200,4.46139306640625,9.80100154876709,-0.019142581149935722,-0.11485548317432404
1761315033200314600,4.480314697265625,9.822537422180176,-0.0023928226437419653,-0.11964113265275955
1761315033219236000,4.499236083984375,9.832108497619629,-0.016749758273363113,-0.11485548317432404
1761315033238157300,4.5181572265625,9.824930191040039,-0.01196411345154047,-0.1052841991186142
1761315033257078800,4.537078857421875,9.812965393066406,-0.007178467698395252,-0.11485548317432404
1761315033276000300,4.556000244140625,9.824930191040039,-0.02153540402650833,-0.10767702013254166
1761315033294921700,4.574921630859375,9.817750930786133,-0.02392822690308094,-0.10289137065410614
1761315033313843200,4.59384326171875,9.803394317626953,-0.016749758273363113,-0.1052841991186142
1761315033332764700,4.6127646484375,9.834501266479492,-0.019142581149935722,-0.11485548317432404
1761315033351686100,4.63168603515625,9.824930191040039,-0.009571290574967861,-0.09810572862625122
1761315033370607600,4.650607666015625,9.80817985534668,-0.02392822690308094,-0.1052841991186142
1761315033389529000,4.669529052734375,9.805787086486816,-0.02871387079358101,-0.11964113265275955
1761315033408450600,4.688450439453125,9.827322959899902,0.004785645287483931,-0.09810572862625122
1761315033427372000,4.7073720703125,9.81535816192627,-0.014356935396790504,-0.09810572862625122
1761315033446293500,4.72629345703125,9.810572624206543,-0.02392822690308094,-0.11246266216039658
1761315033465215000,4.745215087890625,9.820143699645996,-0.014356935396790504,-0.11006984114646912
1761315033484136400,4.764136474609375,9.820143699645996,-0.02632104977965355,-0.11006984114646912
1761315033503058000,4.783057861328125,9.805787086486816,-0.004785645287483931,-0.10767702013254166
1761315033521979400,4.8019794921875,9.820143699645996,-0.04546362906694412,-0.11964113265275955
1761315033540900600,4.820900634765625,9.80817985534668,-0.007178467698395252,-0.10289137065410614
1761315033559822000,4.839822021484375,9.81535816192627,-0.02392822690308094,-0.12203395366668701
1761315033578743600,4.85874365234375,9.81535816192627,-0.004785645287483931,-0.1052841991186142
1761315033597665300,4.877665283203125,9.820143699645996,-0.02871387079358101,-0.10289137065410614
1761315033616586500,4.89658642578125,9.851250648498535,-0.009571290574967861,-0.10289137065410614
1761315033635508000,4.915508056640625,9.810572624206543,-0.0023928226437419653,-0.1052841991186142
1761315033654429400,4.934429443359375,9.827322959899902,-0.03349951654672623,-0.10767702013254166
1761315033673351000,4.953350830078125,9.829715728759766,-0.02392822690308094,-0.10767702013254166
1761315033692272400,4.9722724609375,9.820143699645996,-0.004785645287483931,-0.09810572862625122
1761315033711193900,4.99119384765625,9.822537422180176,-0.014356935396790504,-0.10767702013254166
1761315033730115300,5.010115234375,9.846465110778809,-0.009571290574967861,-0.11006984114646912
1761315033749036800,5.029036865234375,9.834501266479492,-0.007178467698395252,-0.10049854964017868
1761315033767958300,5.047958251953125,9.812965393066406,-0.01196411345154047,-0.10767702013254166
1761315033786879700,5.066879638671875,9.827322959899902,-0.019142581149935722,-0.12203395366668701
1761315033805801200,5.08580126953125,9.820143699645996,-0.0023928226437419653,-0.09092725813388824
1761315033824722700,5.10472265625,9.80817985534668,-0.016749758273363113,-0.10049854964017868
1761315033843644200,5.12364404296875,9.810572624206543,-0.02153540402650833,-0.09571290761232376
1761315033862565600,5.142565673828125,9.817750930786133,-0.007178467698395252,-0.12203395366668701
1761315033881487000,5.161487060546875,9.81535816192627,-0.02153540402650833,-0.11006984114646912
1761315033900408600,5.18040869140625,9.812965393066406,-0.019142581149935722,-0.11724831163883209
1761315033919330000,5.199330078125,9.81535816192627,-0.02392822690308094,-0.10289137065410614
1761315033938251300,5.218251220703125,9.839286804199219,-0.02871387079358101,-0.08853443711996078
1761315033957173000,5.237173095703125,9.80100154876709,-0.007178467698395252,-0.10049854964017868
1761315033976094200,5.25609423828125,9.81535816192627,-0.016749758273363113,-0.10289137065410614
1761315033995015700,5.275015625,9.805787086486816,0,-0.09810572862625122
1761315034013937200,5.293937255859375,9.812965393066406,0.0023928226437419653,-0.10049854964017868
1761315034032858600,5.312858642578125,9.820143699645996,0,-0.1052841991186142
1761315034051780000,5.331780029296875,9.820143699645996,-0.014356935396790504,-0.1052841991186142
1761315034070701600,5.35070166015625,9.832108497619629,-0.016749758273363113,-0.10289137065410614
1761315034089623000,5.369623046875,9.80100154876709,-0.01196411345154047,-0.1052841991186142
1761315034108544500,5.38854443359375,9.805787086486816,-0.02392822690308094,-0.11006984114646912
1761315034127466000,5.407466064453125,9.839286804199219,-0.02392822690308094,-0.11006984114646912
1761315034146387500,5.426387451171875,9.820143699645996,-0.01196411345154047,-0.09092725813388824
1761315034165309000,5.445308837890625,9.805787086486816,-0.007178467698395252,-0.09571290761232376
1761315034184230400,5.46423046875,9.81535816192627,-0.02153540402650833,-0.10767702013254166
1761315034203152000,5.48315185546875,9.820143699645996,0,-0.11246266216039658
1761315034222073300,5.5020732421875,9.810572624206543,-0.014356935396790504,-0.1052841991186142
1761315034240994800,5.520994873046875,9.80817985534668,-0.031106693670153618,-0.11246266216039658
1761315034259916300,5.539916259765625,9.829715728759766,-0.016749758273363113,-0.09571290761232376
1761315034278837500,5.55883740234375,9.812965393066406,-0.01196411345154047,-0.0933200865983963
1761315034297759200,5.57775927734375,9.80100154876709,-0.02153540402650833,-0.11485548317432404
1761315034316680700,5.5966806640625,9.820143699645996,-0.02632104977965355,-0.12921242415905
1761315034335602000,5.615601806640625,9.817750930786133,-0.0023928226437419653,-0.11246266216039658
1761315034354523400,5.6345234375,9.817750930786133,-0.0023928226437419653,-0.08853443711996078
1761315034373444900,5.65344482421875,9.820143699645996,0.0023928226437419653,-0.10049854964017868
1761315034392366300,5.672366455078125,9.827322959899902,-0.004785645287483931,-0.11724831163883209
1761315034411287800,5.691287841796875,9.836894035339355,-0.016749758273363113,-0.09092725813388824
1761315034430209300,5.710209228515625,9.798608779907227,-0.031106693670153618,-0.10767702013254166
1761315034449130800,5.729130859375,9.829715728759766,-0.019142581149935722,-0.11246266216039658
1761315034468052200,5.74805224609375,9.824930191040039,-0.01196411345154047,-0.11485548317432404
1761315034486973700,5.7669736328125,9.791430473327637,-0.01196411345154047,-0.11964113265275955
1761315034505895200,5.785895263671875,9.810572624206543,-0.035892341285943985,-0.1052841991186142
1761315034524816600,5.804816650390625,9.822537422180176,-0.01196411345154047,-0.10767702013254166
1761315034543738000,5.823738037109375,9.812965393066406,-0.031106693670153618,-0.09810572862625122
1761315034562659600,5.84265966796875,9.820143699645996,-0.01196411345154047,-0.0933200865983963
1761315034581581000,5.8615810546875,9.829715728759766,-0.019142581149935722,-0.08374879509210587
1761315034600502500,5.88050244140625,9.824930191040039,-0.014356935396790504,-0.11964113265275955
1761315034619424000,5.899424072265625,9.810572624206543,-0.004785645287483931,-0.10289137065410614
1761315034638345500,5.918345458984375,9.834501266479492,-0.02392822690308094,-0.11006984114646912
1761315034657267000,5.937266845703125,9.827322959899902,-0.0023928226437419653,-0.11724831163883209
1761315034676188200,5.956188232421875,9.820143699645996,-0.02632104977965355,-0.10289137065410614
1761315034695109600,5.975109619140625,9.829715728759766,-0.01196411345154047,-0.10289137065410614
1761315034714031000,5.994031005859375,9.832108497619629,-0.035892341285943985,-0.10049854964017868
1761315034732952600,6.01295263671875,9.827322959899902,-0.014356935396790504,-0.11246266216039658
1761315034751874000,6.0318740234375,9.810572624206543,-0.014356935396790504,-0.11246266216039658
1761315034770795500,6.05079541015625,9.817750930786133,-0.02153540402650833,-0.11724831163883209
1761315034789717000,6.069717041015625,9.839286804199219,-0.016749758273363113,-0.09810572862625122
1761315034808638500,6.088638427734375,9.812965393066406,-0.02632104977965355,-0.12203395366668701
1761315034827560000,6.107559814453125,9.81535816192627,-0.01196411345154047,-0.11006984114646912
1761315034846481400,6.1264814453125,9.832108497619629,-0.019142581149935722,-0.11246266216039658
1761315034865403000,6.14540283203125,9.832108497619629,-0.02871387079358101,-0.11485548317432404
1761315034884324400,6.164324462890625,9.817750930786133,-0.040677983313798904,-0.11485548317432404
1761315034903245800,6.183245849609375,9.812965393066406,-0.007178467698395252,-0.11246266216039658
1761315034922167300,6.202167236328125,9.836894035339355,-0.014356935396790504,-0.10289137065410614
1761315034941088800,6.2210888671875,9.812965393066406,-0.031106693670153618,-0.10767702013254166
1761315034960010200,6.24001025390625,9.820143699645996,-0.019142581149935722,-0.1052841991186142
1761315034978931700,6.258931640625,9.834501266479492,-0.02632104977965355,-0.1052841991186142
1761315034997853200,6.277853271484375,9.827322959899902,-0.014356935396790504,-0.10049854964017868
1761315035016774700,6.296774658203125,9.803394317626953,-0.031106693670153618,-0.09571290761232376
1761315035035695900,6.31569580078125,9.812965393066406,-0.016749758273363113,-0.10767702013254166
1761315035054617300,6.334617431640625,9.829715728759766,-0.014356935396790504,-0.09810572862625122
1761315035073538800,6.353538818359375,9.80817985534668,-0.02392822690308094,-0.11485548317432404
1761315035092460300,6.372460205078125,9.820143699645996,-0.02871387079358101,-0.10767702013254166
1761315035111381800,6.3913818359375,9.827322959899902,-0.02632104977965355,-0.10289137065410614
1761315035130303200,6.41030322265625,9.80817985534668,-0.01196411345154047,-0.08853443711996078
1761315035149224700,6.429224609375,9.820143699645996,-0.02392822690308094,-0.11006984114646912
1761315035168146200,6.448146240234375,9.824930191040039,-0.007178467698395252,-0.12921242415905
1761315035187067600,6.467067626953125,9.832108497619629,-0.009571290574967861,-0.11006984114646912
1761315035205989000,6.485989013671875,9.805787086486816,-0.016749758273363113,-0.08135596662759781
1761315035224910600,6.50491064453125,9.827322959899902,-0.02871387079358101,-0.11006984114646912
1761315035243832000,6.52383203125,9.824930191040039,0.016749758273363113,-0.09571290761232376
1761315035262753500,6.54275341796875,9.80100154876709,0.004785645287483931,-0.1052841991186142
1761315035281675000,6.561675048828125,9.820143699645996,-0.009571290574967861,-0.10289137065410614
1761315035300596500,6.580596435546875,9.827322959899902,-0.02871387079358101,-0.11724831163883209
1761315035319518000,6.59951806640625,9.817750930786133,-0.0023928226437419653,-0.11485548317432404
1761315035338439400,6.618439453125,9.812965393066406,-0.016749758273363113,-0.1052841991186142
1761315035357361000,6.63736083984375,9.822537422180176,-0.01196411345154047,-0.11006984114646912
1761315035376282400,6.656282470703125,9.829715728759766,-0.02392822690308094,-0.11246266216039658
1761315035395203800,6.675203857421875,9.827322959899902,-0.019142581149935722,-0.10289137065410614
1761315035414125300,6.694125244140625,9.791430473327637,-0.014356935396790504,-0.11485548317432404
1761315035433046800,6.713046875,9.834501266479492,-0.014356935396790504,-0.11006984114646912
1761315035451968300,6.73196826171875,9.822537422180176,-0.019142581149935722,-0.10049854964017868
1761315035470889500,6.750889404296875,9.798608779907227,-0.02632104977965355,-0.09571290761232376
1761315035489811000,6.76981103515625,9.822537422180176,-0.02871387079358101,-0.10767702013254166
1761315035508732400,6.788732421875,9.829715728759766,-0.02392822690308094,-0.08853443711996078
1761315035527654000,6.80765380859375,9.820143699645996,0.0023928226437419653,-0.11006984114646912
1761315035546575400,6.826575439453125,9.81535816192627,-0.019142581149935722,-0.08853443711996078
1761315035565496800,6.845496826171875,9.841679573059082,-0.02632104977965355,-0.09810572862625122
1761315035584418300,6.864418212890625,9.812965393066406,0.009571290574967861,-0.11006984114646912
1761315035603339800,6.88333984375,9.803394317626953,-0.031106693670153618,-0.13639089465141296
1761315035622261200,6.90226123046875,9.824930191040039,-0.014356935396790504,-0.11006984114646912
1761315035641182700,6.9211826171875,9.822537422180176,-0.007178467698395252,-0.1052841991186142
1761315035660104200,6.940104248046875,9.812965393066406,-0.019142581149935722,-0.12442677468061447
1761315035679025700,6.959025634765625,9.812965393066406,-0.02871387079358101,-0.10289137065410614
1761315035697947100,6.977947021484375,9.829715728759766,-0.02392822690308094,-0.11485548317432404
1761315035716868600,6.99686865234375,9.822537422180176,-0.02392822690308094,-0.09571290761232376
1761315035735790000,7.0157900390625,9.80100154876709,-0.004785645287483931,-0.11964113265275955
1761315035754711600,7.034711669921875,9.824930191040039,-0.02392822690308094,-0.1052841991186142
1761315035773633000,7.053633056640625,9.805787086486816,-0.004785645287483931,-0.11964113265275955
1761315035792554500,7.072554443359375,9.80817985534668,-0.004785645287483931,-0.11246266216039658
1761315035811476000,7.09147607421875,9.805787086486816,-0.016749758273363113,-0.11246266216039658
1761315035830397400,7.1103974609375,9.827322959899902,-0.02632104977965355,-0.0933200865983963
1761315035849319000,7.12931884765625,9.812965393066406,-0.02392822690308094,-0.11246266216039658
1761315035868240400,7.148240478515625,9.810572624206543,-0.019142581149935722,-0.10049854964017868
1761315035887161600,7.16716162109375,9.827322959899902,-0.02392822690308094,-0.09810572862625122
1761315035906083000,7.1860830078125,9.832108497619629,-0.02153540402650833,-0.11485548317432404
1761315035925004500,7.205004638671875,9.820143699645996,-0.016749758273363113,-0.11246266216039658
1761315035943926000,7.223926025390625,9.810572624206543,-0.009571290574967861,-0.10289137065410614
1761315035962847500,7.242847412109375,9.829715728759766,-0.02153540402650833,-0.1052841991186142
1761315035981769000,7.26176904296875,9.81535816192627,-0.007178467698395252,-0.09810572862625122
1761315036000690400,7.2806904296875,9.7938232421875,-0.0023928226437419653,-0.11006984114646912
1761315036019612000,7.29961181640625,9.817750930786133,-0.035892341285943985,-0.11485548317432404
1761315036038533400,7.318533447265625,9.822537422180176,0.0023928226437419653,-0.10767702013254166
1761315036057454800,7.337454833984375,9.80100154876709,0.0023928226437419653,-0.11006984114646912
1761315036076376300,7.356376220703125,9.81535816192627,-0.019142581149935722,-0.0933200865983963
1761315036095297800,7.3752978515625,9.812965393066406,-0.02871387079358101,-0.10049854964017868
1761315036114219300,7.39421923828125,9.822537422180176,-0.0023928226437419653,-0.0933200865983963
1761315036133140700,7.413140625,9.810572624206543,-0.031106693670153618,-0.11246266216039658
1761315036152062200,7.432062255859375,9.824930191040039,-0.02153540402650833,-0.1052841991186142
1761315036170983700,7.450983642578125,9.80817985534668,0.0023928226437419653,-0.0933200865983963
1761315036189905200,7.4699052734375,9.810572624206543,-0.02153540402650833,-0.11485548317432404
1761315036208826600,7.48882666015625,9.824930191040039,-0.02871387079358101,-0.09571290761232376
1761315036227748000,7.507748046875,9.820143699645996,-0.014356935396790504,-0.0933200865983963
1761315036246669600,7.526669677734375,9.812965393066406,-0.004785645287483931,-0.1052841991186142
1761315036265591000,7.545591064453125,9.812965393066406,-0.01196411345154047,-0.10767702013254166
1761315036284512500,7.564512451171875,9.836894035339355,-0.007178467698395252,-0.09571290761232376
1761315036303434000,7.58343408203125,9.820143699645996,-0.009571290574967861,-0.1052841991186142
1761315036322355500,7.60235546875,9.803394317626953,-0.01196411345154047,-0.11964113265275955
1761315036341277000,7.62127685546875,9.812965393066406,-0.009571290574967861,-0.12203395366668701
1761315036360198400,7.640198486328125,9.817750930786133,-0.02392822690308094,-0.10767702013254166
1761315036379119600,7.65911962890625,9.810572624206543,-0.031106693670153618,-0.11246266216039658
1761315036398041000,7.678041015625,9.817750930786133,-0.02632104977965355,-0.1052841991186142
1761315036416962600,7.696962646484375,9.832108497619629,-0.016749758273363113,-0.0933200865983963
1761315036435884000,7.715884033203125,9.829715728759766,-0.019142581149935722,-0.11006984114646912
1761315036454805500,7.734805419921875,9.817750930786133,-0.01196411345154047,-0.11724831163883209
1761315036473727000,7.75372705078125,9.812965393066406,-0.019142581149935722,-0.10289137065410614
1761315036492648400,7.7726484375,9.829715728759766,0,-0.0933200865983963
1761315036511570000,7.79156982421875,9.80817985534668,-0.016749758273363113,-0.09571290761232376
1761315036530491400,7.810491455078125,9.832108497619629,-0.014356935396790504,-0.11485548317432404
1761315036549412900,7.829412841796875,9.829715728759766,-0.01196411345154047,-0.10767702013254166
1761315036568334300,7.848334228515625,9.812965393066406,-0.02392822690308094,-0.10767702013254166
1761315036587255800,7.867255859375,9.820143699645996,-0.016749758273363113,-0.1052841991186142
1761315036606177300,7.88617724609375,9.820143699645996,-0.014356935396790504,-0.09571290761232376
1761315036625098800,7.9050986328125,9.829715728759766,-0.007178467698395252,-0.11246266216039658
1761315036644020200,7.924020263671875,9.791430473327637,-0.0023928226437419653,-0.09810572862625122
1761315036662941700,7.942941650390625,9.812965393066406,-0.02392822690308094,-0.11246266216039658
1761315036681863200,7.96186328125,9.844072341918945,-0.007178467698395252,-0.1052841991186142
1761315036700784600,7.98078466796875,9.810572624206543,0.0023928226437419653,-0.08614161610603333
1761315036719706000,7.9997060546875,9.817750930786133,-0.009571290574967861,-0.11006984114646912
1761315036738627600,8.018627685546875,9.810572624206543,0.007178467698395252,-0.10767702013254166
1761315036757551600,8.037551513671875,9.81535816192627,-0.016749758273363113,-0.0933200865983963
1761315036776473000,8.05647314453125,9.810572624206543,-0.007178467698395252,-0.11246266216039658
1761315036795394600,8.07539453125,9.810572624206543,-0.031106693670153618,-0.11006984114646912
1761315036814316000,8.09431591796875,9.812965393066406,-0.02871387079358101,-0.10049854964017868
1761315036833237500,8.113237548828126,9.812965393066406,-0.02632104977965355,-0.10049854964017868
1761315036852159000,8.132158935546874,9.803394317626953,-0.01196411345154047,-0.09571290761232376
1761315036871080400,8.15108056640625,9.834501266479492,0.007178467698395252,-0.1052841991186142
1761315036890002000,8.170001953125,9.822537422180176,0,-0.0933200865983963
1761315036908923400,8.18892333984375,9.810572624206543,-0.016749758273363113,-0.11964113265275955
1761315036927844900,8.207844970703125,9.798608779907227,-0.016749758273363113,-0.11485548317432404
1761315036946766300,8.226766357421875,9.822537422180176,-0.016749758273363113,-0.1052841991186142
1761315036965687800,8.245687744140625,9.80817985534668,-0.014356935396790504,-0.09092725813388824
1761315036984609300,8.264609375,9.820143699645996,-0.019142581149935722,-0.10767702013254166
1761315037003530800,8.28353076171875,9.824930191040039,-0.031106693670153618,-0.1052841991186142
1761315037022452200,8.3024521484375,9.810572624206543,-0.009571290574967861,-0.12203395366668701
1761315037041373700,8.321373779296875,9.812965393066406,-0.007178467698395252,-0.10767702013254166
1761315037060295200,8.340295166015625,9.827322959899902,-0.01196411345154047,-0.0933200865983963
1761315037079216600,8.359216552734376,9.81535816192627,-0.02153540402650833,-0.11006984114646912
1761315037098138000,8.37813818359375,9.81535816192627,-0.007178467698395252,-0.09571290761232376
1761315037117059600,8.3970595703125,9.796216011047363,-0.016749758273363113,-0.11006984114646912
1761315037135981000,8.41598095703125,9.834501266479492,-0.02153540402650833,-0.11006984114646912
1761315037154902500,8.434902587890624,9.81535816192627,-0.02632104977965355,-0.10049854964017868
1761315037173824000,8.453823974609374,9.810572624206543,-0.02871387079358101,-0.09571290761232376
1761315037192745500,8.472745361328125,9.820143699645996,-0.038285162299871445,-0.11724831163883209
1761315037211666700,8.491666748046875,9.820143699645996,-0.009571290574967861,-0.11246266216039658
1761315037230588200,8.510588134765625,9.80817985534668,-0.016749758273363113,-0.1052841991186142
1761315037249510000,8.529510009765625,9.827322959899902,-0.014356935396790504,-0.12442677468061447
1761315037268431400,8.548431396484375,9.810572624206543,-0.02153540402650833,-0.10049854964017868
1761315037287352600,8.5673525390625,9.832108497619629,-0.004785645287483931,-0.08853443711996078
1761315037306274000,8.586274169921875,9.812965393066406,-0.007178467698395252,-0.10767702013254166
1761315037325195500,8.605195556640625,9.812965393066406,-0.04307080805301666,-0.10049854964017868
1761315037344117000,8.624116943359375,9.817750930786133,-0.02153540402650833,-0.11006984114646912
1761315037363038500,8.64303857421875,9.817750930786133,-0.016749758273363113,-0.1052841991186142
1761315037381960000,8.6619599609375,9.817750930786133,-0.009571290574967861,-0.10767702013254166
1761315037400881400,8.68088134765625,9.827322959899902,-0.01196411345154047,-0.11006984114646912
1761315037419803000,8.699802978515624,9.822537422180176,-0.02871387079358101,-0.11724831163883209
1761315037438724400,8.718724365234374,9.80817985534668,-0.019142581149935722,-0.10289137065410614
1761315037457645800,8.737645751953124,9.836894035339355,-0.02871387079358101,-0.10049854964017868
1761315037476567300,8.7565673828125,9.812965393066406,-0.004785645287483931,-0.11724831163883209
1761315037495488800,8.77548876953125,9.812965393066406,-0.0023928226437419653,-0.12442677468061447
1761315037514410200,8.79441015625,9.820143699645996,-0.02632104977965355,-0.09810572862625122
1761315037533331700,8.813331787109375,9.827322959899902,-0.01196411345154047,-0.11964113265275955
1761315037552253200,8.832253173828125,9.812965393066406,-0.038285162299871445,-0.08853443711996078
1761315037571174700,8.851174560546875,9.80817985534668,-0.02153540402650833,-0.11485548317432404
1761315037590096100,8.87009619140625,9.827322959899902,-0.02392822690308094,-0.10049854964017868
1761315037609017600,8.889017578125,9.827322959899902,-0.02392822690308094,-0.09092725813388824
1761315037627939000,8.90793896484375,9.810572624206543,-0.019142581149935722,-0.11485548317432404
1761315037646860500,8.926860595703126,9.820143699645996,-0.009571290574967861,-0.11964113265275955
1761315037665782000,8.945781982421876,9.836894035339355,0.009571290574967861,-0.10049854964017868
1761315037684703500,8.964703369140626,9.822537422180176,-0.0023928226437419653,-0.10049854964017868
1761315037703625000,8.983625,9.80100154876709,-0.02392822690308094,-0.09571290761232376
1761315037722546400,9.00254638671875,9.836894035339355,-0.031106693670153618,-0.09810572862625122
1761315037741468000,9.021468017578124,9.812965393066406,-0.02392822690308094,-0.0933200865983963
1761315037760389400,9.040389404296874,9.80817985534668,-0.004785645287483931,-0.10289137065410614
1761315037779310800,9.059310791015625,9.827322959899902,-0.02153540402650833,-0.11006984114646912
1761315037798232300,9.078232421875,9.834501266479492,-0.019142581149935722,-0.10767702013254166
1761315037817153800,9.09715380859375,9.805787086486816,-0.02392822690308094,-0.11485548317432404
1761315037836075300,9.1160751953125,9.817750930786133,-0.016749758273363113,-0.11724831163883209
1761315037854996700,9.134996826171875,9.829715728759766,-0.031106693670153618,-0.1052841991186142
1761315037873918200,9.153918212890625,9.832108497619629,-0.007178467698395252,-0.10049854964017868
1761315037892839700,9.172839599609375,9.80817985534668,-0.019142581149935722,-0.11724831163883209
1761315037911761200,9.19176123046875,9.824930191040039,-0.031106693670153618,-0.10049854964017868
1761315037930682600,9.2106826171875,9.824930191040039,-0.014356935396790504,-0.11485548317432404
1761315037949604000,9.22960400390625,9.803394317626953,-0.016749758273363113,-0.10289137065410614
1761315037968525600,9.248525634765626,9.796216011047363,-0.009571290574967861,-0.11964113265275955
1761315037987446800,9.26744677734375,9.827322959899902,-0.02632104977965355,-0.12681959569454193
1761315038006368300,9.2863681640625,9.817750930786133,-0.007178467698395252,-0.11246266216039658
1761315038025289700,9.305289794921874,9.820143699645996,-0.007178467698395252,-0.09571290761232376
1761315038044211200,9.324211181640624,9.817750930786133,-0.014356935396790504,-0.12681959569454193
1761315038063132700,9.343132568359374,9.817750930786133,-0.007178467698395252,-0.11485548317432404
1761315038082054100,9.36205419921875,9.824930191040039,-0.019142581149935722,-0.11006984114646912
1761315038100975600,9.3809755859375,9.817750930786133,-0.02153540402650833,-0.10767702013254166
1761315038119897000,9.39989697265625,9.829715728759766,-0.02871387079358101,-0.09810572862625122
1761315038138818600,9.418818603515625,9.812965393066406,-0.01196411345154047,-0.10049854964017868
1761315038157740000,9.437739990234375,9.80100154876709,-0.02153540402650833,-0.11485548317432404
1761315038176661500,9.45666162109375,9.832108497619629,-0.019142581149935722,-0.1052841991186142
1761315038195583000,9.4755830078125,9.822537422180176,-0.016749758273363113,-0.11246266216039658
1761315038214504400,9.49450439453125,9.798608779907227,-0.004785645287483931,-0.11006984114646912
1761315038233426000,9.513426025390626,9.810572624206543,-0.02153540402650833,-0.11485548317432404
1761315038252347400,9.532347412109376,9.839286804199219,0.004785645287483931,-0.10767702013254166
1761315038271268900,9.551268798828126,9.80100154876709,-0.019142581149935722,-0.11724831163883209
1761315038290190300,9.5701904296875,9.812965393066406,-0.01196411345154047,-0.08135596662759781
1761315038309111800,9.58911181640625,9.822537422180176,-0.031106693670153618,-0.10049854964017868
1761315038328033300,9.608033203125,9.817750930786133,-0.0023928226437419653,-0.11246266216039658
1761315038346954800,9.626954833984374,9.803394317626953,-0.019142581149935722,-0.11964113265275955
1761315038365876200,9.645876220703125,9.812965393066406,-0.038285162299871445,-0.10049854964017868
1761315038384797700,9.664797607421875,9.832108497619629,-0.014356935396790504,-0.11246266216039658
1761315038403719200,9.68371923828125,9.817750930786133,-0.014356935396790504,-0.10289137065410614
1761315038422640600,9.702640625,9.7938232421875,-0.007178467698395252,-0.11485548317432404
1761315038441562000,9.72156201171875,9.827322959899902,-0.01196411345154047,-0.10049854964017868
1761315038460483600,9.740483642578125,9.817750930786133,-0.0023928226437419653,-0.10049854964017868
1761315038479405000,9.759405029296875,9.817750930786133,-0.016749758273363113,-0.11246266216039658
1761315038498326500,9.778326416015625,9.812965393066406,-0.035892341285943985,-0.10767702013254166
1761315038517248000,9.797248046875,9.822537422180176,-0.004785645287483931,-0.08853443711996078
1761315038536169500,9.81616943359375,9.824930191040039,-0.004785645287483931,-0.10767702013254166
1761315038555091000,9.835091064453126,9.829715728759766,-0.019142581149935722,-0.11724831163883209
1761315038574012400,9.854012451171876,9.839286804199219,-0.0023928226437419653,-0.11006984114646912
1761315038592934000,9.872933837890624,9.81535816192627,-0.0023928226437419653,-0.09092725813388824
1761315038611855400,9.89185546875,9.80817985534668,-0.02392822690308094,-0.12681959569454193
1761315038630776800,9.91077685546875,9.822537422180176,0,-0.08614161610603333
1761315038649698300,9.9296982421875,9.817750930786133,-0.01196411345154047,-0.11485548317432404
1761315038668619800,9.948619873046875,9.80100154876709,-0.0023928226437419653,-0.11246266216039658
1761315038687541200,9.967541259765625,9.822537422180176,-0.02392822690308094,-0.12681959569454193
1761315038706462700,9.986462646484375,9.829715728759766,-0.01196411345154047,-0.10049854964017868
1761315038725384200,10.00538427734375,9.827322959899902,-0.007178467698395252,-0.11724831163883209
1761315038744305700,10.0243056640625,9.81535816192627,-0.007178467698395252,-0.1052841991186142
1761315038763227100,10.04322705078125,9.820143699645996,-0.02153540402650833,-0.1052841991186142
1761315038782148600,10.062148681640625,9.817750930786133,-0.007178467698395252,-0.1052841991186142
1761315038801070000,10.081070068359375,9.812965393066406,-0.014356935396790504,-0.10289137065410614
1761315038819991600,10.099991455078126,9.817750930786133,-0.0023928226437419653,-0.10289137065410614
1761315038838913000,10.1189130859375,9.827322959899902,-0.02153540402650833,-0.09092725813388824
1761315038857834200,10.137834228515626,9.81535816192627,-0.019142581149935722,-0.11964113265275955
1761315038876755700,10.156755615234376,9.822537422180176,-0.019142581149935722,-0.12921242415905
1761315038895677400,10.175677490234374,9.834501266479492,-0.019142581149935722,-0.11724831163883209
1761315038914599000,10.194598876953124,9.829715728759766,0.0023928226437419653,-0.10289137065410614
1761315038933520100,10.21352001953125,9.80817985534668,-0.031106693670153618,-0.08614161610603333
1761315038952441600,10.232441650390625,9.829715728759766,-0.016749758273363113,-0.11485548317432404
1761315038971363000,10.251363037109375,9.824930191040039,-0.014356935396790504,-0.09810572862625122
1761315038990284500,10.270284423828125,9.805787086486816,-0.0023928226437419653,-0.11246266216039658
1761315039009206000,10.2892060546875,9.80817985534668,-0.004785645287483931,-0.11964113265275955
1761315039028127500,10.30812744140625,9.820143699645996,-0.02871387079358101,-0.09810572862625122
1761315039047049000,10.327049072265625,9.827322959899902,-0.02871387079358101,-0.11006984114646912
1761315039065970400,10.345970458984375,9.81535816192627,0.004785645287483931,-0.11485548317432404
1761315039084892000,10.364891845703125,9.805787086486816,-0.014356935396790504,-0.11724831163883209
1761315039103813400,10.3838134765625,9.803394317626953,-0.031106693670153618,-0.1052841991186142
1761315039122734800,10.40273486328125,9.80817985534668,-0.02153540402650833,-0.11006984114646912
1761315039141656300,10.42165625,9.803394317626953,-0.02632104977965355,-0.10049854964017868
1761315039160577800,10.440577880859376,9.820143699645996,-0.019142581149935722,-0.0933200865983963
1761315039179499300,10.459499267578124,9.824930191040039,-0.019142581149935722,-0.11246266216039658
1761315039198420700,10.478420654296874,9.796216011047363,-0.019142581149935722,-0.11485548317432404
1761315039217342200,10.49734228515625,9.824930191040039,-0.019142581149935722,-0.11246266216039658
1761315039236263700,10.516263671875,9.836894035339355,-0.031106693670153618,-0.10767702013254166
1761315039255185200,10.53518505859375,9.805787086486816,-0.019142581149935722,-0.0933200865983963
1761315039274106600,10.554106689453125,9.80817985534668,-0.014356935396790504,-0.11485548317432404
1761315039293028000,10.573028076171875,9.829715728759766,0.0023928226437419653,-0.11006984114646912
1761315039311949600,10.591949462890625,9.822537422180176,-0.019142581149935722,-0.0933200865983963
1761315039330871000,10.61087109375,9.817750930786133,-0.014356935396790504,-0.11724831163883209
1761315039349792500,10.62979248046875,9.805787086486816,0,-0.11006984114646912
1761315039368714000,10.6487138671875,9.820143699645996,-0.031106693670153618,-0.10767702013254166
1761315039387635500,10.667635498046875,9.80100154876709,-0.02153540402650833,-0.11246266216039658
1761315039406557000,10.686556884765626,9.822537422180176,-0.016749758273363113,-0.11006984114646912
1761315039425478400,10.705478515625,9.822537422180176,-0.016749758273363113,-0.10767702013254166
1761315039444399900,10.72439990234375,9.810572624206543,-0.014356935396790504,-0.09810572862625122
1761315039463321300,10.7433212890625,9.805787086486816,-0.014356935396790504,-0.11006984114646912
1761315039482242800,10.762242919921874,9.81535816192627,-0.014356935396790504,-0.1052841991186142
1761315039501164300,10.781164306640624,9.824930191040039,-0.016749758273363113,-0.1052841991186142
1761315039520085800,10.800085693359375,9.81535816192627,-0.02871387079358101,-0.11006984114646912
1761315039539007200,10.81900732421875,9.810572624206543,-0.040677983313798904,-0.09810572862625122
1761315039557928700,10.8379287109375,9.834501266479492,-0.02153540402650833,-0.11485548317432404
1761315039576850200,10.85685009765625,9.810572624206543,-0.007178467698395252,-0.11006984114646912
1761315039595771600,10.875771728515625,9.820143699645996,-0.009571290574967861,-0.11724831163883209
1761315039614693000,10.894693115234375,9.817750930786133,-0.02392822690308094,-0.11246266216039658
1761315039633614600,10.913614501953125,9.817750930786133,-0.007178467698395252,-0.0933200865983963
1761315039652536000,10.9325361328125,9.812965393066406,-0.016749758273363113,-0.10289137065410614
1761315039671457500,10.95145751953125,9.81535816192627,-0.016749758273363113,-0.11006984114646912
1761315039690379000,10.97037890625,9.824930191040039,-0.009571290574967861,-0.1052841991186142
1761315039709300500,10.989300537109376,9.822537422180176,0.007178467698395252,-0.10767702013254166
1761315039728222000,11.008221923828126,9.810572624206543,-0.014356935396790504,-0.10767702013254166
1761315039747143400,11.027143310546874,9.829715728759766,-0.007178467698395252,-0.10049854964017868
1761315039766065000,11.04606494140625,9.812965393066406,-0.009571290574967861,-0.11485548317432404
1761315039784986000,11.064986083984374,9.805787086486816,-0.016749758273363113,-0.11246266216039658
1761315039803907800,11.083907958984375,9.820143699645996,-0.0023928226437419653,-0.1052841991186142
1761315039822829300,11.102829345703125,9.829715728759766,-0.04307080805301666,-0.11724831163883209
1761315039841750800,11.121750732421875,9.812965393066406,-0.004785645287483931,-0.13160525262355804
1761315039860672000,11.140672119140625,9.832108497619629,-0.009571290574967861,-0.11246266216039658
1761315039879593500,11.159593505859375,9.810572624206543,-0.019142581149935722,-0.09092725813388824
1761315039898515000,11.178514892578125,9.827322959899902,0,-0.1052841991186142
1761315039917436400,11.1974365234375,9.812965393066406,-0.009571290574967861,-0.12681959569454193
1761315039936358000,11.21635791015625,9.817750930786133,-0.03349951654672623,-0.10289137065410614
1761315039955279400,11.235279296875,9.827322959899902,-0.02153540402650833,-0.10767702013254166
1761315039974200800,11.254200927734376,9.805787086486816,-0.0023928226437419653,-0.11724831163883209
1761315039993122300,11.273122314453126,9.812965393066406,-0.02153540402650833,-0.10289137065410614
1761315040012043800,11.292043701171876,9.829715728759766,-0.038285162299871445,-0.11006984114646912
1761315040030965200,11.31096533203125,9.820143699645996,-0.01196411345154047,-0.11246266216039658
1761315040049886700,11.32988671875,9.803394317626953,-0.004785645287483931,-0.09810572862625122
1761315040068808200,11.34880810546875,9.820143699645996,-0.004785645287483931,-0.11485548317432404
1761315040087729700,11.367729736328124,9.829715728759766,-0.0023928226437419653,-0.11006984114646912
1761315040106651100,11.386651123046875,9.81535816192627,-0.019142581149935722,-0.11964113265275955
1761315040125572600,11.405572509765625,9.80817985534668,-0.004785645287483931,-0.09571290761232376
1761315040144494000,11.424494140625,9.834501266479492,-0.02153540402650833,-0.11006984114646912
1761315040163415600,11.44341552734375,9.820143699645996,-0.02871387079358101,-0.07657032459974289
1761315040182337000,11.4623369140625,9.810572624206543,-0.014356935396790504,-0.09810572862625122
1761315040201258500,11.481258544921875,9.841679573059082,-0.04307080805301666,-0.11006984114646912
1761315040220180000,11.500179931640625,9.832108497619629,-0.038285162299871445,-0.12681959569454193
1761315040239101400,11.519101318359375,9.822537422180176,0.004785645287483931,-0.10049854964017868
1761315040258023000,11.53802294921875,9.81535816192627,-0.02632104977965355,-0.0933200865983963
1761315040276944400,11.5569443359375,9.820143699645996,-0.031106693670153618,-0.0933200865983963
1761315040295865900,11.575865966796876,9.80817985534668,-0.007178467698395252,-0.10767702013254166
1761315040314787300,11.594787353515626,9.80817985534668,-0.01196411345154047,-0.10289137065410614
1761315040333708800,11.613708740234374,9.839286804199219,-0.009571290574967861,-0.09810572862625122
1761315040352630300,11.63263037109375,9.824930191040039,-0.014356935396790504,-0.11964113265275955
1761315040371551700,11.6515517578125,9.80817985534668,-0.014356935396790504,-0.09810572862625122
1761315040390473200,11.67047314453125,9.822537422180176,-0.014356935396790504,-0.1052841991186142
1761315040409394700,11.689394775390625,9.834501266479492,-0.01196411345154047,-0.1339980661869049
1761315040428316200,11.708316162109375,9.81535816192627,0,-0.11006984114646912
1761315040447237600,11.727237548828125,9.798608779907227,-0.02153540402650833,-0.12921242415905
1761315040466159000,11.7461591796875,9.810572624206543,-0.031106693670153618,-0.11246266216039658
1761315040485080600,11.76508056640625,9.822537422180176,-0.02153540402650833,-0.10767702013254166
1761315040504002000,11.784001953125,9.810572624206543,-0.007178467698395252,-0.11006984114646912
1761315040522923500,11.802923583984375,9.820143699645996,-0.031106693670153618,-0.10289137065410614
1761315040541845000,11.821844970703125,9.827322959899902,-0.014356935396790504,-0.10049854964017868
1761315040560766500,11.840766357421876,9.810572624206543,-0.0023928226437419653,-0.10289137065410614
1761315040579688000,11.85968798828125,9.803394317626953,-0.035892341285943985,-0.11485548317432404
1761315040598609400,11.878609375,9.824930191040039,-0.038285162299871445,-0.10289137065410614
1761315040617531000,11.89753076171875,9.820143699645996,-0.02632104977965355,-0.10289137065410614
1761315040636452400,11.916452392578124,9.822537422180176,0.009571290574967861,-0.11246266216039658
1761315040655373800,11.935373779296874,9.812965393066406,-0.03349951654672623,-0.09092725813388824
1761315040674295300,11.95429541015625,9.820143699645996,-0.02871387079358101,-0.09810572862625122
1761315040693216800,11.973216796875,9.80817985534668,-0.02632104977965355,-0.11485548317432404
1761315040712138000,11.992137939453125,9.80817985534668,-0.016749758273363113,-0.0933200865983963
1761315040731059500,12.0110595703125,9.824930191040039,-0.014356935396790504,-0.09810572862625122
1761315040749981000,12.02998095703125,9.820143699645996,-0.007178467698395252,-0.11724831163883209
1761315040768902700,12.048902587890625,9.80100154876709,-0.019142581149935722,-0.13160525262355804
1761315040787823900,12.067823974609375,9.803394317626953,-0.031106693670153618,-0.08853443711996078
1761315040806745300,12.086745361328125,9.824930191040039,-0.014356935396790504,-0.11964113265275955
1761315040825666800,12.105666748046875,9.805787086486816,-0.02632104977965355,-0.11006984114646912
1761315040844588300,12.12458837890625,9.805787086486816,-0.03349951654672623,-0.12203395366668701
1761315040863509800,12.143509765625,9.827322959899902,-0.016749758273363113,-0.11006984114646912
1761315040882431200,12.16243115234375,9.817750930786133,-0.01196411345154047,-0.10289137065410614
1761315040901352700,12.181352783203126,9.817750930786133,-0.02871387079358101,-0.09571290761232376
1761315040920274200,12.200274169921874,9.820143699645996,-0.02392822690308094,-0.1052841991186142
1761315040939195600,12.219195556640624,9.817750930786133,-0.014356935396790504,-0.08614161610603333
1761315040958117000,12.2381171875,9.812965393066406,0.004785645287483931,-0.09810572862625122
1761315040977038600,12.25703857421875,9.822537422180176,-0.019142581149935722,-0.11246266216039658
1761315040995960000,12.2759599609375,9.820143699645996,-0.031106693670153618,-0.09810572862625122
1761315041014881500,12.294881591796875,9.812965393066406,-0.007178467698395252,-0.10289137065410614
1761315041033803000,12.313802978515625,9.81535816192627,-0.038285162299871445,-0.11964113265275955
1761315041052724500,12.332724365234375,9.832108497619629,-0.016749758273363113,-0.09810572862625122
1761315041071646000,12.35164599609375,9.829715728759766,-0.02392822690308094,-0.09092725813388824
1761315041090567400,12.3705673828125,9.812965393066406,-0.02153540402650833,-0.08853443711996078
1761315041109489000,12.389489013671875,9.824930191040039,-0.0023928226437419653,-0.08853443711996078
1761315041128410400,12.408410400390625,9.822537422180176,-0.009571290574967861,-0.0933200865983963
1761315041147331800,12.427331787109376,9.810572624206543,-0.014356935396790504,-0.10049854964017868
1761315041166253300,12.44625341796875,9.81535816192627,-0.02632104977965355,-0.1052841991186142
1761315041185174800,12.4651748046875,9.820143699645996,-0.016749758273363113,-0.11724831163883209
1761315041204096300,12.48409619140625,9.829715728759766,-0.007178467698395252,-0.10049854964017868
1761315041223017700,12.503017822265624,9.810572624206543,-0.009571290574967861,-0.11964113265275955
1761315041241939200,12.521939208984374,9.80817985534668,-0.007178467698395252,-0.1052841991186142
1761315041260860700,12.540860595703125,9.827322959899902,-0.007178467698395252,-0.11006984114646912
1761315041279782100,12.5597822265625,9.81535816192627,-0.016749758273363113,-0.0933200865983963
1761315041298703600,12.57870361328125,9.812965393066406,-0.01196411345154047,-0.09571290761232376
1761315041317625000,12.597625,9.832108497619629,-0.019142581149935722,-0.10049854964017868
1761315041336546600,12.616546630859375,9.827322959899902,-0.009571290574967861,-0.10049854964017868
1761315041355468000,12.635468017578125,9.803394317626953,0,-0.09571290761232376
1761315041374389500,12.654389404296875,9.81535816192627,-0.004785645287483931,-0.09810572862625122
1761315041393311000,12.67331103515625,9.834501266479492,-0.01196411345154047,-0.11485548317432404
1761315041412232400,12.692232421875,9.812965393066406,-0.007178467698395252,-0.10049854964017868
1761315041431154000,12.71115380859375,9.805787086486816,-0.01196411345154047,-0.10289137065410614
1761315041450075400,12.730075439453126,9.832108497619629,-0.01196411345154047,-0.11006984114646912
1761315041468996900,12.748996826171876,9.844072341918945,-0.014356935396790504,-0.09810572862625122
1761315041487918300,12.76791845703125,9.81535816192627,-0.02871387079358101,-0.0933200865983963
1761315041506839800,12.78683984375,9.834501266479492,-0.02871387079358101,-0.11724831163883209
1761315041525761300,12.80576123046875,9.832108497619629,-0.02392822690308094,-0.10049854964017868
1761315041544682800,12.824682861328125,9.822537422180176,-0.01196411345154047,-0.11724831163883209
1761315041563604200,12.843604248046875,9.80817985534668,-0.031106693670153618,-0.10767702013254166
1761315041582525400,12.862525390625,9.832108497619629,-0.02871387079358101,-0.11246266216039658
1761315041601447000,12.881447021484375,9.832108497619629,-0.01196411345154047,-0.11485548317432404
1761315041620368600,12.90036865234375,9.80817985534668,-0.01196411345154047,-0.09092725813388824
1761315041639289900,12.919289794921875,9.820143699645996,-0.02392822690308094,-0.10767702013254166
1761315041658211300,12.93821142578125,9.832108497619629,-0.02392822690308094,-0.0933200865983963
1761315041677132800,12.9571328125,9.805787086486816,-0.0023928226437419653,-0.10767702013254166
1761315041696054300,12.97605419921875,9.820143699645996,-0.014356935396790504,-0.10289137065410614
1761315041714975700,12.994975830078126,9.827322959899902,-0.004785645287483931,-0.10049854964017868
1761315041733897200,13.013897216796876,9.841679573059082,-0.019142581149935722,-0.10767702013254166
1761315041752818700,13.032818603515626,9.822537422180176,-0.02871387079358101,-0.09810572862625122
1761315041771740200,13.051740234375,9.832108497619629,-0.007178467698395252,-0.11964113265275955
1761315041790661600,13.07066162109375,9.834501266479492,-0.014356935396790504,-0.11246266216039658
1761315041809583000,13.0895830078125,9.822537422180176,-0.007178467698395252,-0.09810572862625122
1761315041828504600,13.108504638671874,9.822537422180176,-0.004785645287483931,-0.10289137065410614
1761315041847426000,13.127426025390625,9.822537422180176,-0.01196411345154047,-0.07657032459974289
1761315041866347500,13.146347412109375,9.832108497619629,-0.014356935396790504,-0.1052841991186142
1761315041885269000,13.16526904296875,9.810572624206543,-0.02632104977965355,-0.10049854964017868
1761315041904190500,13.1841904296875,9.80817985534668,-0.02153540402650833,-0.10289137065410614
1761315041923112000,13.20311181640625,9.827322959899902,-0.007178467698395252,-0.11964113265275955
1761315041942033400,13.222033447265625,9.817750930786133,-0.019142581149935722,-0.11964113265275955
1761315041960955000,13.240954833984375,9.824930191040039,-0.03349951654672623,-0.10767702013254166
1761315041979876400,13.25987646484375,9.824930191040039,-0.035892341285943985,-0.11724831163883209
1761315041998797800,13.2787978515625,9.812965393066406,0.01196411345154047,-0.1052841991186142
1761315042017719300,13.29771923828125,9.824930191040039,-0.014356935396790504,-0.1052841991186142
1761315042036640800,13.316640869140626,9.812965393066406,-0.014356935396790504,-0.11724831163883209
1761315042055562200,13.335562255859376,9.832108497619629,-0.009571290574967861,-0.07896314561367035
1761315042074483700,13.354483642578124,9.80817985534668,-0.0023928226437419653,-0.10767702013254166
1761315042093405200,13.3734052734375,9.80817985534668,-0.02871387079358101,-0.10289137065410614
1761315042112326700,13.39232666015625,9.817750930786133,-0.02153540402650833,-0.12203395366668701
1761315042131248000,13.411248046875,9.824930191040039,-0.004785645287483931,-0.11246266216039658
1761315042150169600,13.430169677734375,9.817750930786133,-0.02392822690308094,-0.09810572862625122
1761315042169091000,13.449091064453125,9.829715728759766,-0.02632104977965355,-0.12203395366668701
1761315042188012500,13.468012451171875,9.827322959899902,-0.02632104977965355,-0.10049854964017868
1761315042206934000,13.48693408203125,9.80100154876709,-0.004785645287483931,-0.09092725813388824
1761315042225855500,13.50585546875,9.810572624206543,-0.02632104977965355,-0.10767702013254166
1761315042244777000,13.52477685546875,9.824930191040039,-0.016749758273363113,-0.1052841991186142
1761315042263698400,13.543698486328125,9.81535816192627,-0.0023928226437419653,-0.1052841991186142
1761315042282620000,13.562619873046875,9.805787086486816,-0.02153540402650833,-0.11006984114646912
1761315042301541400,13.581541259765626,9.824930191040039,-0.016749758273363113,-0.11006984114646912
1761315042320462800,13.600462890625,9.827322959899902,-0.0023928226437419653,-0.11006984114646912
1761315042339384300,13.61938427734375,9.798608779907227,0.009571290574967861,-0.11246266216039658
1761315042358305500,13.638305419921876,9.841679573059082,-0.035892341285943985,-0.0933200865983963
1761315042377227300,13.657227294921874,9.812965393066406,-0.014356935396790504,-0.1052841991186142
1761315042396148700,13.676148681640624,9.822537422180176,-0.019142581149935722,-0.11964113265275955
1761315042415070200,13.6950703125,9.789037704467773,-0.019142581149935722,-0.1052841991186142
1761315042433991400,13.713991455078125,9.870393753051758,-0.016749758273363113,-0.09810572862625122
1761315042452913000,13.732912841796875,9.80100154876709,-0.014356935396790504,-0.12203395366668701
