time,seconds_elapsed,z,y,x
1761315932400118000,0.247117919921875,1.3999552726745605,-0.3354169428348541,-0.293137788772583
1761315932419040500,0.26604052734375,-0.655367374420166,-0.15805751085281372,-0.06135213375091553
1761315932437962800,0.284962646484375,0.05343198776245117,0.5647488832473755,-0.8086512684822083
1761315932456885000,0.303885009765625,-0.5020980834960938,1.1511503458023071,-2.036334991455078
1761315932475807200,0.32280712890625,0.30896520614624023,0.5330600738525391,-1.2271380424499512
1761315932494729500,0.3417294921875,1.4720211029052734,0.10411256551742554,0.9383688569068909
1761315932513651700,0.360651611328125,-1.1189746856689453,-1.1073856353759766,0.2341752052307129
1761315932532574000,0.379573974609375,-0.33269643783569336,-0.7625652551651001,0.8389116525650024
1761315932551496200,0.39849609375,-3.461270332336426,-0.6545392274856567,0.7786149978637695
1761315932570418400,0.41741845703125,-6.580420017242432,-1.0997470617294312,0.5323731899261475
1761315932589340700,0.436340576171875,-3.480135440826416,-2.7822813987731934,0.5163089036941528
1761315932608263000,0.455262939453125,-2.4362051486968994,-3.758847713470459,0.8820035457611084
1761315932627185200,0.47418505859375,-2.532900810241699,-4.836869239807129,-0.3820674419403076
1761315932646107400,0.493107421875,0.1985621452331543,-4.375582218170166,-2.6240932941436768
1761315932665029600,0.512029541015625,2.6791152954101562,-3.052450180053711,-6.081539630889893
1761315932683951900,0.530951904296875,4.786227226257324,-2.400230884552002,-8.455513954162598
1761315932702874000,0.5498740234375,5.470247268676758,-1.6341443061828613,-9.011007308959961
1761315932721796600,0.568796630859375,4.322883129119873,-1.2096061706542969,-9.969708442687988
1761315932740718800,0.58771875,2.7891898155212402,-0.4365420341491699,-9.767646789550781
1761315932759641000,0.60664111328125,4.457159519195557,0.47577524185180664,-6.23797607421875
1761315932778563300,0.625563232421875,7.063961029052734,1.7678780555725098,-4.225454330444336
1761315932797485600,0.644485595703125,9.310453414916992,1.3135504722595215,-3.319159507751465
1761315932816407800,0.66340771484375,9.127809524536133,2.3635096549987793,-3.634089469909668
1761315932835330000,0.682330078125,7.794458389282227,2.810553550720215,-3.5291905403137207
1761315932854252300,0.701252197265625,5.4309258460998535,3.355461597442627,-0.4864926338195801
1761315932873174500,0.720174560546875,0.5694217681884766,2.0040650367736816,-1.768974781036377
1761315932892096800,0.7390966796875,-0.029107093811035156,0.12303829193115234,-2.54982328414917
1761315932911019000,0.75801904296875,3.837284564971924,0.7821812629699707,-5.043183326721191
1761315932929941200,0.776941162109375,7.530240535736084,0.5968437194824219,-4.034335613250732
1761315932948863500,0.795863525390625,8.490776062011719,1.3776826858520508,-0.6861586570739746
1761315932967785700,0.81478564453125,5.632852554321289,0.8784279823303223,3.93788480758667
1761315932986708000,0.8337080078125,3.0186262130737305,0.7203116416931152,1.6401023864746094
1761315933005630200,0.852630126953125,1.9191012382507324,0.06812191009521484,0.3960404396057129
1761315933024552700,0.871552734375,0.13816308975219727,0.39836549758911133,-0.31407737731933594
1761315933043475000,0.890474853515625,-0.5051002502441406,0.31987714767456055,-0.874021053314209
1761315933062397200,0.909397216796875,0.664919376373291,0.33315277099609375,-0.002048492431640625
1761315933081319400,0.9283193359375,0.2665843963623047,0.0931706428527832,0.27646875381469727
1761315933100241700,0.94724169921875,-1.1263837814331055,0.16307353973388672,0.6558361053466797
1761315933119164000,0.966163818359375,-1.4827232360839844,0.40917253494262695,1.5548248291015625
1761315933138086100,0.985086181640625,-1.2751364707946777,0.2299785614013672,2.0172438621520996
1761315933157008400,1.00400830078125,-0.782893180847168,-0.1307053565979004,1.7626838684082031
1761315933175930600,1.0229306640625,-0.9195942878723145,-0.2597365379333496,1.2369041442871094
1761315933194852900,1.041852783203125,-1.6844091415405273,-0.34903764724731445,1.1342744827270508
1761315933213775000,1.060775146484375,-1.7612969875335693,-0.8398928642272949,0.9458189010620117
1761315933232697300,1.079697265625,-1.4581470489501953,-0.8346767425537109,0.6549673080444336
1761315933251619600,1.09861962890625,-0.5185909271240234,-0.8809809684753418,0.6935839653015137
1761315933270541800,1.117541748046875,0.05611419677734375,-0.6710166931152344,0.5601210594177246
1761315933289464000,1.136464111328125,0.5656776428222656,-0.1662130355834961,0.17557668685913086
1761315933308386600,1.155386474609375,1.2907476425170898,0.1636219024658203,-0.07166194915771484
1761315933327308800,1.174308837890625,1.6318511962890625,-0.10143518447875977,0.02711343765258789
1761315933346231000,1.19323095703125,0.607022762298584,-0.03734636306762695,0.4131922721862793
1761315933365153300,1.2121533203125,0.37250566482543945,-0.08102607727050781,0.7190885543823242
1761315933384075500,1.231075439453125,0.2980194091796875,-0.06037425994873047,0.679832935333252
1761315933402997800,1.249997802734375,0.11406469345092773,0.1687641143798828,0.35611724853515625
1761315933421920000,1.268919921875,-0.06200122833251953,-0.04412698745727539,0.16207122802734375
1761315933440842200,1.28784228515625,0.14780616760253906,-0.010682106018066406,-0.09814119338989258
1761315933459764500,1.306764404296875,0.600715160369873,-0.09082269668579102,-0.04687356948852539
1761315933478686700,1.325686767578125,0.3776111602783203,-0.3918490409851074,0.31452178955078125
1761315933497609000,1.34460888671875,-0.4306316375732422,-0.5422987937927246,0.6088495254516602
1761315933516531200,1.36353125,-0.8067145347595215,-0.30686521530151367,0.5441064834594727
1761315933535453400,1.382453369140625,-0.48169565200805664,-0.14719247817993164,0.3777155876159668
1761315933554375700,1.401375732421875,-0.041432857513427734,-0.01822948455810547,0.24565744400024414
1761315933573298000,1.4202978515625,-0.26335716247558594,0.10231637954711914,-0.0785527229309082
1761315933592220400,1.439220458984375,-0.7904655933380127,0.1214284896850586,-0.20032119750976562
1761315933611142700,1.458142578125,-1.4082520008087158,0.4948554039001465,-0.5998454093933105
1761315933630065000,1.47706494140625,-1.832977533340454,0.8866395950317383,-0.9742670059204102
1761315933648987100,1.495987060546875,-2.1623828411102295,1.1956934928894043,-0.9540328979492188
1761315933667909400,1.514909423828125,-1.4231417179107666,0.7685370445251465,-0.8441805839538574
1761315933686831600,1.53383154296875,0.324537992477417,1.4397077560424805,-1.3541078567504883
1761315933705753900,1.55275390625,2.5417935848236084,1.7049603462219238,-0.9290485382080078
1761315933724676000,1.571676025390625,3.318270206451416,2.1298184394836426,-1.045844554901123
1761315933743598300,1.590598388671875,1.040132761001587,1.806544303894043,-1.517777442932129
1761315933762520600,1.6095205078125,-2.8882572650909424,-0.10421466827392578,2.562997817993164
1761315933781442800,1.62844287109375,-1.703803539276123,-0.3252854347229004,0.012794971466064453
1761315933800365000,1.647364990234375,2.948577880859375,-0.48995161056518555,-0.9972615242004395
1761315933819287300,1.666287353515625,1.3051576614379883,-0.14852428436279297,3.4155588150024414
1761315933838209500,1.68520947265625,-0.383165568113327,1.0284767150878906,3.1407880783081055
1761315933857131800,1.7041318359375,-1.4364349842071533,0.7701520919799805,4.452775955200195
1761315933876054300,1.72305419921875,1.2775276899337769,1.5543766021728516,3.8178560733795166
1761315933894976500,1.7419765625,2.9493680000305176,2.177196979522705,3.3596649169921875
1761315933913898800,1.760898681640625,-2.1254281997680664,3.568120241165161,6.104393005371094
1761315933932821000,1.779821044921875,-3.6273036003112793,2.5985982418060303,7.976569652557373
1761315933951743200,1.7987431640625,-3.058670997619629,0.7617297172546387,8.025946617126465
1761315933970665500,1.81766552734375,-0.32331812381744385,-3.485093116760254,4.045853137969971
1761315933989587700,1.836587646484375,-1.0435161590576172,-4.842532157897949,0.8954634666442871
1761315934008510000,1.855510009765625,4.210078716278076,-11.068835258483887,-7.486204624176025
1761315934027432200,1.87443212890625,2.170712947845459,-9.564002990722656,-10.4720458984375
1761315934046354400,1.8933544921875,3.4670188426971436,-5.294715881347656,-8.052864074707031
1761315934065276700,1.912276611328125,1.698728322982788,-1.928389549255371,-2.6600804328918457
1761315934084199000,1.931198974609375,-0.7422009110450745,-0.38812923431396484,1.9010353088378906
1761315934103121200,1.95012109375,0.285863995552063,-0.609858512878418,1.615006446838379
1761315934122043400,1.96904345703125,-0.0318303108215332,1.4305272102355957,-0.41956186294555664
1761315934140966000,1.9879658203125,0.24663203954696655,1.582747459411621,-1.386385440826416
1761315934159888100,2.00688818359375,0.6742281317710876,1.3440256118774414,-0.12614083290100098
1761315934178810400,2.025810302734375,-0.38485226035118103,0.5532321929931641,0.4263451099395752
1761315934197732600,2.044732666015625,-0.5777869820594788,-0.7329587936401367,0.5636115074157715
1761315934216654800,2.06365478515625,1.1925729513168335,8.675676345825195,0.7881593704223633
1761315934235577000,2.0825771484375,0.5752197504043579,11.130744934082031,-0.5014796257019043
1761315934254499300,2.101499267578125,-1.010602355003357,13.902055740356445,3.962700605392456
1761315934273421600,2.120421630859375,-4.624711990356445,8.886004447937012,3.9858744144439697
1761315934292343800,2.13934375,-3.9136173725128174,5.85597038269043,4.253194332122803
1761315934311266000,2.15826611328125,7.233841896057129,3.042123317718506,4.165824890136719
1761315934330188300,2.177188232421875,12.046732902526855,-31.20128631591797,4.0697855949401855
1761315934349110500,2.196110595703125,3.289764642715454,-17.529264450073242,-1.30502188205719
1761315934368032800,2.21503271484375,8.237600326538086,5.434959888458252,-12.182989120483398
1761315934386955300,2.233955322265625,3.98581862449646,0.4006919860839844,-13.023026466369629
1761315934405877500,2.25287744140625,0.10719013214111328,-2.2488536834716797,-2.0701305866241455
1761315934424799700,2.2717998046875,-4.217075347900391,-4.188668251037598,2.8902642726898193
1761315934443722000,2.290721923828125,-6.238271713256836,-3.3599185943603516,6.798429489135742
1761315934462644200,2.309644287109375,-4.8213582038879395,-1.4581594467163086,11.274554252624512
1761315934481566500,2.32856640625,4.417936325073242,-6.268491744995117,15.918303489685059
1761315934500488700,2.34748876953125,-3.155600070953369,-19.720714569091797,9.716423034667969
1761315934519411000,2.366410888671875,-3.9310808181762695,-24.04950714111328,-3.4461495876312256
1761315934538333200,2.385333251953125,-0.7682662010192871,-17.73154640197754,-6.18988561630249
1761315934557255400,2.40425537109375,1.2927589416503906,-8.833688735961914,-6.762454986572266
1761315934576177700,2.423177734375,-0.4977908730506897,-1.7218198776245117,-4.968406677246094
1761315934595100000,2.442099853515625,0.4902152121067047,4.099282264709473,-3.0177435874938965
1761315934614022100,2.461022216796875,0.7564013600349426,7.298092842102051,0.47417569160461426
1761315934632944400,2.4799443359375,3.3294429779052734,9.48591136932373,1.5154094696044922
1761315934651867000,2.498866943359375,7.540538787841797,10.75069522857666,1.7241363525390625
1761315934670789000,2.5177890625,8.155227661132812,10.265048027038574,1.1977181434631348
1761315934689711400,2.53671142578125,4.955358982086182,9.686026573181152,-1.4244579076766968
1761315934708633600,2.555633544921875,2.4088187217712402,8.12834644317627,-4.755312442779541
1761315934727555800,2.574555908203125,0.3972589671611786,7.724452972412109,-5.429327011108398
1761315934746478000,2.59347802734375,-1.5131694078445435,8.67495059967041,-4.365095615386963
1761315934765400300,2.612400390625,-2.321613311767578,8.755884170532227,-2.9243829250335693
1761315934784322600,2.631322509765625,-1.4811559915542603,8.666885375976562,-2.665018320083618
1761315934803244800,2.650244873046875,-0.30364808440208435,8.487046241760254,-2.6292731761932373
1761315934822167000,2.6691669921875,-1.0310773849487305,8.024247169494629,-1.18129301071167
1761315934841089300,2.68808935546875,-2.170921564102173,8.823835372924805,-1.1432377099990845
1761315934860011500,2.707011474609375,-0.09097111225128174,9.340538024902344,-1.0592045783996582
1761315934878933800,2.725933837890625,12.995882034301758,6.208261013031006,-0.019533991813659668
1761315934897856300,2.744856201171875,-0.3704420328140259,2.529629707336426,1.2470935583114624
1761315934916778500,2.763778564453125,-9.827774047851562,2.3908820152282715,-0.7991103529930115
1761315934935700700,2.78270068359375,-2.8408560752868652,-6.321599006652832,0.44267594814300537
1761315934954623000,2.801623046875,6.282693386077881,-29.46051788330078,6.85545539855957
1761315934973545200,2.820545166015625,6.725399971008301,-29.293437957763672,2.653170585632324
1761315934992467500,2.839467529296875,7.107308387756348,-15.750712394714355,3.073028802871704
1761315935011389700,2.8583896484375,-0.9425010681152344,-16.1414852142334,9.729513168334961
1761315935030312000,2.87731201171875,-1.3572914600372314,-12.631900787353516,6.339029788970947
1761315935049234200,2.896234130859375,0.12056303024291992,-14.64238452911377,4.854859828948975
1761315935068156400,2.915156494140625,1.495363712310791,-14.613927841186523,1.2809059619903564
1761315935087078700,2.93407861328125,-0.25721240043640137,-10.64955997467041,-1.1170909404754639
1761315935106001000,2.9530009765625,-0.5976417660713196,-4.182734489440918,-2.1064748764038086
1761315935124923400,2.97192333984375,0.08871108293533325,1.4397163391113281,-2.605595588684082
1761315935143845600,2.990845703125,-0.3620716631412506,5.894930362701416,-1.7162690162658691
1761315935162768000,3.009767822265625,-0.4997856914997101,9.275579452514648,-1.1593456268310547
1761315935181690000,3.028690185546875,1.4486167430877686,10.903385162353516,-1.6238312721252441
1761315935200612400,3.0476123046875,4.043834209442139,11.469868659973145,-1.9452719688415527
1761315935219534600,3.06653466796875,6.593235969543457,11.957901000976562,-2.2267680168151855
1761315935238456800,3.085456787109375,7.577719211578369,12.109946250915527,-1.7516095638275146
1761315935257379000,3.104379150390625,3.3954854011535645,9.148458480834961,-1.446695327758789
1761315935276301300,3.12330126953125,0.4577261507511139,7.770866394042969,-2.7294068336486816
1761315935295223600,3.1422236328125,0.9074557423591614,7.567955017089844,-3.1443262100219727
1761315935314145800,3.161145751953125,1.706750512123108,7.039234161376953,-3.0338358879089355
1761315935333068000,3.180068115234375,1.3728053569793701,7.8377814292907715,-3.2870147228240967
1761315935351990500,3.198990478515625,0.22819772362709045,8.515000343322754,-3.3752684593200684
1761315935370912800,3.217912841796875,-0.05194514989852905,8.468409538269043,-3.771749973297119
1761315935389835000,3.2368349609375,1.0051095485687256,8.130661010742188,-3.861156463623047
1761315935408757200,3.25575732421875,1.797856330871582,7.893831253051758,-3.6166508197784424
1761315935427679500,3.274679443359375,1.4366824626922607,7.460070610046387,-2.7777037620544434
1761315935446601700,3.293601806640625,1.9399622678756714,6.101017475128174,-2.3844730854034424
1761315935465524000,3.31252392578125,-0.7707538604736328,2.6605191230773926,-0.9017638564109802
1761315935484446200,3.3314462890625,0.7018439769744873,0.7075700759887695,0.16650724411010742
1761315935503368400,3.350368408203125,9.461405754089355,-15.192243576049805,5.513177871704102
1761315935522290700,3.369290771484375,-7.572751998901367,-25.410297393798828,2.21101713180542
1761315935541213000,3.388212890625,5.170322895050049,-26.51755142211914,-0.8698769807815552
1761315935560135200,3.40713525390625,0.883720874786377,-14.915349960327148,5.426407814025879
1761315935579057700,3.4260576171875,8.859735488891602,-17.749557495117188,13.043553352355957
1761315935597980000,3.44497998046875,2.9304471015930176,-17.03792953491211,7.305948257446289
1761315935616902100,3.463902099609375,0.1427779197692871,-14.960439682006836,3.8089702129364014
1761315935635824400,3.482824462890625,-0.10895085334777832,-11.103906631469727,1.643244981765747
1761315935654746600,3.50174658203125,-1.1176851987838745,-6.8110246658325195,1.4948270320892334
1761315935673668900,3.5206689453125,-0.5545709133148193,-1.7889347076416016,2.112304449081421
1761315935692591000,3.539591064453125,0.03921538591384888,3.5187625885009766,1.4654767513275146
1761315935711513300,3.558513427734375,0.5562066435813904,7.372798919677734,-0.24250221252441406
1761315935730435600,3.577435546875,0.3729102313518524,9.940924644470215,-1.5150253772735596
1761315935749357800,3.59635791015625,1.4586235284805298,10.780167579650879,-2.6330525875091553
1761315935768280000,3.615280029296875,2.3881218433380127,10.590020179748535,-3.309816598892212
1761315935787202300,3.634202392578125,2.87827205657959,10.199052810668945,-3.4289000034332275
1761315935806124800,3.653124755859375,5.016310691833496,10.275430679321289,-4.302985668182373
1761315935825047000,3.672047119140625,7.578159332275391,8.979141235351562,-4.151021480560303
1761315935843969300,3.69096923828125,5.101239204406738,7.883753299713135,-3.0257210731506348
1761315935862891500,3.7098916015625,1.1846485137939453,7.6194167137146,-2.5750739574432373
1761315935881813800,3.728813720703125,-0.5129522681236267,8.330242156982422,-2.257478952407837
1761315935900736000,3.747736083984375,-1.3724473714828491,8.662875175476074,-2.3230769634246826
1761315935919658200,3.766658203125,0.057343557476997375,8.601702690124512,-2.78865909576416
1761315935938580500,3.78558056640625,0.5945852994918823,9.05429744720459,-4.207810401916504
1761315935957502700,3.804502685546875,-0.06890469789505005,9.401786804199219,-3.6052260398864746
1761315935976425000,3.823425048828125,0.006302475929260254,8.50129222869873,-2.8665499687194824
1761315935995347200,3.84234716796875,2.2939064502716064,6.173781394958496,-0.3415558338165283
1761315936014269700,3.861269775390625,-0.8788273334503174,3.667858600616455,3.5215983390808105
1761315936033192000,3.88019189453125,-1.7616119384765625,0.12976360321044922,2.99391508102417
1761315936052114200,3.8991142578125,9.24767780303955,-25.132431030273438,5.203561305999756
1761315936071036400,3.918036376953125,1.6766059398651123,-34.243797302246094,0.320232629776001
1761315936089958700,3.936958740234375,-3.244577169418335,-17.22991371154785,-5.2633771896362305
1761315936108881000,3.955880859375,4.979820251464844,-11.723344802856445,5.098603248596191
1761315936127803100,3.97480322265625,3.4547295570373535,-15.24181842803955,12.410765647888184
1761315936146725400,3.993725341796875,3.6499836444854736,-16.5685977935791,11.035895347595215
1761315936165647600,4.012647705078125,3.1503355503082275,-15.488598823547363,6.559956073760986
1761315936184569900,4.03156982421875,0.5544997453689575,-11.30887508392334,1.6010820865631104
1761315936203492000,4.0504921875,-1.3409062623977661,-6.5940351486206055,-0.8213608264923096
1761315936222414600,4.06941455078125,0.4300617575645447,-1.3050622940063477,-0.7472567558288574
1761315936241336800,4.0883369140625,1.7027177810668945,3.644580841064453,-1.4258153438568115
1761315936260259000,4.107259033203125,0.5009992122650146,6.773597240447998,-2.250406265258789
1761315936279181300,4.126181396484375,0.3709295690059662,9.130443572998047,-2.8390016555786133
1761315936298103600,4.145103515625,2.003514051437378,10.436595916748047,-3.381207227706909
1761315936317025800,4.16402587890625,2.5771865844726562,10.367725372314453,-3.476649284362793
1761315936335948000,4.182947998046875,2.7913260459899902,10.207929611206055,-3.350823402404785
1761315936354870300,4.201870361328125,5.6946306228637695,10.319011688232422,-4.818630695343018
1761315936373792500,4.22079248046875,6.275328636169434,9.186219215393066,-4.192749977111816
1761315936392714800,4.23971484375,2.5831151008605957,8.758376121520996,-2.439512014389038
1761315936411637000,4.258636962890625,-1.0358901023864746,9.40151596069336,-1.849165916442871
1761315936430559500,4.2775595703125,-3.382416248321533,9.460648536682129,-1.1724735498428345
1761315936449481700,4.296481689453125,-2.6123743057250977,8.925265312194824,-2.0671842098236084
1761315936468404000,4.315404052734375,-0.3722829222679138,8.687556266784668,-2.747252941131592
1761315936487326200,4.334326171875,1.003357172012329,8.56991195678711,-2.9611618518829346
1761315936506248400,4.35324853515625,3.010575294494629,7.988478660583496,-3.085890293121338
1761315936525170700,4.372170654296875,4.604983329772949,7.017097473144531,-3.0960378646850586
1761315936544093000,4.391093017578125,6.568675994873047,3.924131393432617,-3.049199104309082
1761315936563015200,4.41001513671875,-9.763341903686523,3.2192068099975586,3.716869831085205
1761315936581937400,4.4289375,-8.704395294189453,4.714167594909668,-0.6481615900993347
1761315936600859600,4.447859619140625,4.752758026123047,-13.531827926635742,4.5358123779296875
1761315936619782000,4.466781982421875,6.153212547302246,-33.818702697753906,7.826212406158447
1761315936638704000,4.4857041015625,-0.23177742958068848,-24.449237823486328,-6.002416610717773
1761315936657626600,4.504626708984375,8.810064315795898,-15.067464828491211,5.055572509765625
1761315936676548900,4.523548828125,4.389065742492676,-13.709205627441406,11.951338768005371
1761315936695471000,4.54247119140625,-1.1494321823120117,-11.968844413757324,9.586954116821289
1761315936714393300,4.561393310546875,-1.5484174489974976,-13.065767288208008,4.484421730041504
1761315936733315600,4.580315673828125,-0.2329416275024414,-11.926121711730957,-0.28305864334106445
1761315936752237800,4.59923779296875,-0.7003638744354248,-8.702817916870117,-2.1903719902038574
1761315936771160000,4.61816015625,-1.1195688247680664,-3.8038082122802734,-3.4087767601013184
1761315936790082300,4.637082275390625,-0.0020424723625183105,0.8821878433227539,-3.243805408477783
1761315936809004500,4.656004638671875,-0.1513884961605072,4.917073726654053,-1.5757373571395874
1761315936827926800,4.6749267578125,0.0039197951555252075,8.095237731933594,0.5105457305908203
1761315936846849000,4.69384912109375,1.7728360891342163,10.378314971923828,0.3727538585662842
1761315936865771500,4.712771484375,4.691007137298584,11.540483474731445,-0.27969837188720703
1761315936884693800,4.73169384765625,7.240625858306885,11.990764617919922,-0.8939934968948364
1761315936903616000,4.750615966796875,8.543275833129883,11.515730857849121,-0.563209056854248
1761315936922538200,4.769538330078125,5.673454284667969,7.80546760559082,-1.168382167816162
1761315936941460500,4.78846044921875,1.99573814868927,6.222360610961914,-3.442131996154785
1761315936960382700,4.8073828125,2.0567758083343506,6.059373378753662,-4.670828819274902
1761315936979305000,4.826304931640625,2.5928916931152344,8.293577194213867,-3.9718708992004395
1761315936998227200,4.845227294921875,1.7305711507797241,9.131675720214844,-3.2640695571899414
1761315937017149400,4.8641494140625,-0.2599915862083435,9.121682167053223,-4.085724830627441
1761315937036071700,4.88307177734375,-0.7362509369850159,8.69158935546875,-4.752893447875977
1761315937054994000,4.901993896484375,-0.8025882244110107,8.584866523742676,-3.6596179008483887
1761315937073916400,4.92091650390625,-1.654361605644226,8.325395584106445,-1.703168272972107
1761315937092838700,4.939838623046875,-1.6507772207260132,6.445394515991211,2.227719306945801
1761315937111761000,4.958760986328125,-3.8834657669067383,4.3206963539123535,2.6824069023132324
1761315937130683100,4.97768310546875,7.211648464202881,-1.6015243530273438,4.604233741760254
1761315937149605400,4.99660546875,2.2167327404022217,-15.548966407775879,2.3212947845458984
1761315937168527600,5.015527587890625,5.099742412567139,-24.864147186279297,-3.417452335357666
1761315937187449900,5.034449951171875,0.30681562423706055,-19.27013397216797,-5.130876541137695
1761315937206372000,5.0533720703125,9.402158737182617,-15.295957565307617,3.6793694496154785
1761315937225294300,5.07229443359375,1.5997235774993896,-18.13994598388672,10.21163558959961
1761315937244216600,5.091216552734375,2.5684854984283447,-14.966025352478027,10.146699905395508
1761315937263138800,5.110138916015625,0.33687472343444824,-11.27970027923584,5.847311973571777
1761315937282061000,5.12906103515625,0.3541898727416992,-11.630043983459473,3.972381830215454
1761315937300983300,5.1479833984375,0.45731520652770996,-9.935370445251465,1.829298973083496
1761315937319905800,5.16690576171875,0.3122631311416626,-4.9388628005981445,0.7182033061981201
1761315937338828000,5.185828125,1.4047131538391113,0.877558708190918,0.04794645309448242
1761315937357750300,5.204750244140625,0.7049239277839661,4.980660915374756,-0.9868813753128052
1761315937376672500,5.223672607421875,-0.18092158436775208,8.034812927246094,-1.1594092845916748
1761315937395594800,5.2425947265625,0.08474111557006836,9.568357467651367,-1.8407886028289795
1761315937414517000,5.26151708984375,1.356703758239746,10.055309295654297,-2.550941228866577
1761315937433439200,5.280439208984375,2.236537218093872,10.193236351013184,-2.8239188194274902
1761315937452361500,5.299361572265625,4.545539379119873,10.63753604888916,-3.6721410751342773
1761315937471283700,5.31828369140625,7.626962661743164,10.963770866394043,-4.951203346252441
1761315937490206000,5.3372060546875,5.602281093597412,9.138374328613281,-1.7123743295669556
1761315937509128200,5.356128173828125,1.2098402976989746,8.467208862304688,-0.10859918594360352
1761315937528050400,5.375050537109375,-0.9112542271614075,8.489006996154785,0.4991285800933838
1761315937546973000,5.393972900390625,-3.291868209838867,9.017732620239258,-0.6356725692749023
1761315937565895200,5.412895263671875,-3.679056167602539,9.331635475158691,-3.7247512340545654
1761315937584817400,5.4318173828125,-1.6270642280578613,8.824528694152832,-4.3205246925354
1761315937603739600,5.45073974609375,0.029450833797454834,8.4298095703125,-4.82778263092041
1761315937622662000,5.469661865234375,3.470900535583496,7.421159267425537,-5.995268821716309
1761315937641584000,5.488584228515625,2.428490161895752,6.151844024658203,-6.2692975997924805
1761315937660506400,5.50750634765625,0.0936201810836792,4.549240589141846,-4.853071212768555
1761315937679428600,5.5264287109375,0.2918264865875244,-1.6480607986450195,0.2759394645690918
1761315937698350800,5.545350830078125,3.5036022663116455,-11.772238731384277,4.947509288787842
1761315937717273000,5.564273193359375,2.332484006881714,-23.340167999267578,5.686124801635742
1761315937736195300,5.5831953125,1.375270128250122,-26.268720626831055,-2.3337242603302
1761315937755117600,5.60211767578125,-0.3102915287017822,-12.334955215454102,1.4947059154510498
1761315937774039800,5.621039794921875,3.3349289894104004,-12.906886100769043,9.346075057983398
1761315937792962300,5.63996240234375,3.2218191623687744,-14.773727416992188,9.334501266479492
1761315937811884500,5.658884521484375,2.204972505569458,-16.76290512084961,7.144901752471924
1761315937830806800,5.677806884765625,1.2927746772766113,-13.670475006103516,2.1012425422668457
1761315937849729000,5.69672900390625,0.156638503074646,-9.553528785705566,-0.055722713470458984
1761315937868651300,5.7156513671875,-0.31503307819366455,-4.605739593505859,-0.48338890075683594
1761315937887573500,5.734573486328125,-0.2757294178009033,0.5766162872314453,-0.11605870723724365
1761315937906495700,5.753495849609375,-0.8568647503852844,5.002960205078125,0.006838083267211914
1761315937925418000,5.77241796875,0.0410761833190918,8.221922874450684,-1.1283161640167236
1761315937944340200,5.79134033203125,0.642482578754425,10.163688659667969,-2.38435959815979
1761315937963262500,5.810262451171875,1.6807821989059448,10.809980392456055,-2.7717387676239014
1761315937982184700,5.829184814453125,2.2071473598480225,10.530263900756836,-3.053546905517578
1761315938001107000,5.84810693359375,2.756321430206299,10.356513977050781,-3.197300672531128
1761315938020029200,5.867029296875,4.262913703918457,10.346145629882812,-4.0185651779174805
1761315938038951700,5.88595166015625,5.365937232971191,8.46571159362793,-3.4803214073181152
1761315938057874000,5.9048740234375,3.2708048820495605,7.748279571533203,-2.8597140312194824
1761315938076796200,5.923796142578125,1.5014452934265137,7.451027870178223,-2.8958497047424316
1761315938095718400,5.942718505859375,0.5492238998413086,7.90440559387207,-2.997718572616577
1761315938114640600,5.961640625,-0.7587393522262573,8.314886093139648,-3.0509700775146484
1761315938133563000,5.98056298828125,-0.8938870429992676,8.48387336730957,-3.1268301010131836
1761315938152485000,5.999485107421875,-0.8679978251457214,8.597549438476562,-2.331112861633301
1761315938171407400,6.018407470703125,-1.6170141696929932,8.594461441040039,-1.7648591995239258
1761315938190329600,6.03732958984375,1.7945294380187988,7.475090980529785,-1.0205869674682617
1761315938209251800,6.056251953125,11.885821342468262,2.407214641571045,0.6678661108016968
1761315938228174000,6.075174072265625,4.703359603881836,-6.737150192260742,5.327080249786377
1761315938247096300,6.094096435546875,1.1230037212371826,-16.931175231933594,3.650721311569214
1761315938266018600,6.1130185546875,-8.75629711151123,-25.670333862304688,1.281050682067871
1761315938284940800,6.13194091796875,0.23584675788879395,-14.893378257751465,-4.413662433624268
1761315938303863300,6.15086328125,1.644657850265503,-6.883640289306641,0.5434741973876953
1761315938322785500,6.16978564453125,5.190755367279053,-12.264325141906738,11.04701042175293
1761315938341707800,6.188707763671875,7.060722351074219,-17.16181755065918,8.571378707885742
1761315938360630000,6.207630126953125,3.2177298069000244,-15.36772632598877,2.8811826705932617
1761315938379552300,6.22655224609375,0.282973051071167,-11.857854843139648,1.7230031490325928
1761315938398474500,6.245474609375,-0.429002046585083,-8.596539497375488,2.1981217861175537
1761315938417396700,6.264396728515625,-1.3827952146530151,-4.677410125732422,2.0592832565307617
1761315938436319000,6.283319091796875,-1.3508260250091553,0.3390026092529297,1.7593352794647217
1761315938455241200,6.3022412109375,-0.6774822473526001,5.353439807891846,-0.20505499839782715
1761315938474163500,6.32116357421875,-0.33227044343948364,8.506437301635742,-2.232465982437134
1761315938493085700,6.340085693359375,-0.23979534208774567,9.935647010803223,-3.7847843170166016
1761315938512008000,6.359008056640625,1.6400681734085083,10.336125373840332,-3.9558699131011963
1761315938530930200,6.37793017578125,2.323362350463867,10.089132308959961,-3.624880313873291
1761315938549852400,6.396852294921875,2.4402832984924316,9.613384246826172,-3.9107587337493896
1761315938568774700,6.415774658203125,4.465002536773682,8.711873054504395,-4.794201850891113
1761315938587697200,6.434697265625,8.89014720916748,6.469557762145996,-4.100028991699219
1761315938606619400,6.453619384765625,6.732635021209717,6.02708625793457,-3.099754571914673
1761315938625541600,6.472541748046875,3.5304200649261475,7.4160261154174805,-2.7539637088775635
1761315938644463900,6.4914638671875,0.23607772588729858,8.49411392211914,-2.515350818634033
1761315938663386000,6.51038623046875,-1.727384328842163,8.848864555358887,-2.3548429012298584
1761315938682308400,6.529308349609375,-4.393586158752441,9.1906099319458,-1.718017816543579
1761315938701230600,6.548230712890625,-5.822838306427002,8.956981658935547,-1.5449132919311523
1761315938720152800,6.56715283203125,-6.032434463500977,8.35543441772461,-1.1362015008926392
1761315938739075000,6.586074951171875,-5.389803886413574,7.422071933746338,-0.20718789100646973
1761315938757997300,6.604997314453125,-5.847135543823242,5.883299827575684,-0.4384993314743042
1761315938776919600,6.62391943359375,-1.1073790788650513,0.8947744369506836,2.8006668090820312
1761315938795841800,6.642841796875,18.667015075683594,-22.9615478515625,12.64218807220459
1761315938814764000,6.661763916015625,5.8628668785095215,-30.150314331054688,2.1033055782318115
1761315938833686300,6.680686279296875,-0.07538199424743652,-14.6792631149292,-4.957108974456787
1761315938852608500,6.6996083984375,9.456439971923828,-15.181721687316895,3.4171206951141357
1761315938871530800,6.71853076171875,3.411989450454712,-18.22441864013672,1.3281044960021973
1761315938890453200,6.737453369140625,-1.0773390531539917,-13.065049171447754,2.077129602432251
1761315938909375500,6.75637548828125,-1.1672755479812622,-9.917728424072266,4.005294322967529
1761315938928297700,6.775297607421875,-0.07014226913452148,-8.794449806213379,5.705862998962402
1761315938947220000,6.794219970703125,0.7027918100357056,-7.53315544128418,4.8337931632995605
1761315938966142200,6.81314208984375,1.5471885204315186,-3.380129814147949,1.8666746616363525
1761315938985064400,6.832064453125,0.902746319770813,1.9476194381713867,-0.28735804557800293
1761315939003986700,6.850986572265625,0.7289943695068359,5.526482105255127,-1.2321088314056396
1761315939022909000,6.869908935546875,1.0090038776397705,8.238441467285156,-2.2888567447662354
1761315939041831200,6.8888310546875,2.0373730659484863,9.934525489807129,-3.680861234664917
1761315939060753400,6.90775341796875,3.737865686416626,10.459938049316406,-4.566135406494141
1761315939079675600,6.926675537109375,6.975661754608154,10.746484756469727,-6.581199645996094
1761315939098598000,6.945597900390625,6.538341522216797,8.735565185546875,-6.640131950378418
1761315939117520100,6.96452001953125,2.6408934593200684,7.416040897369385,-4.560914516448975
1761315939136442400,6.9834423828125,0.3829402029514313,7.363886833190918,-2.9315121173858643
1761315939155364600,7.002364501953125,-1.0682194232940674,7.904054164886475,-1.0619477033615112
1761315939174286800,7.021286865234375,-2.1449780464172363,8.451879501342773,0.07207655906677246
1761315939193209000,7.040208984375,-2.3354272842407227,8.35934066772461,-0.7635226249694824
1761315939212131600,7.059131591796875,-0.6161811351776123,9.508567810058594,-1.1643606424331665
1761315939231053800,7.0780537109375,3.702157974243164,8.670080184936523,0.2493438720703125
1761315939249976000,7.09697607421875,3.1922450065612793,7.3467864990234375,0.14494729042053223
1761315939268898300,7.115898193359375,-0.6739606857299805,6.728219032287598,-0.8081964254379272
1761315939287820500,7.134820556640625,-0.8590599298477173,4.942667484283447,-1.0199881792068481
1761315939306742800,7.15374267578125,-4.347953796386719,2.6786160469055176,1.063267469406128
1761315939325665000,7.1726650390625,2.800084114074707,-2.737423896789551,3.4798431396484375
1761315939344587300,7.191587158203125,8.979547500610352,-19.344097137451172,7.387566566467285
1761315939363509500,7.210509521484375,2.8520565032958984,-25.65176010131836,4.900938034057617
1761315939382431700,7.229431640625,3.825735569000244,-10.601441383361816,-4.28657341003418
1761315939401354000,7.24835400390625,6.61145544052124,-9.947770118713379,4.673956394195557
1761315939420276200,7.267276123046875,3.621185779571533,-13.875723838806152,7.0111565589904785
1761315939439198500,7.286198486328125,2.1359384059906006,-11.321514129638672,3.705673933029175
1761315939458120700,7.30512060546875,1.1020843982696533,-11.212173461914062,3.6303491592407227
1761315939477043000,7.32404296875,-0.007626771926879883,-10.105507850646973,1.8688580989837646
1761315939495965200,7.342965087890625,-0.9151886701583862,-8.678061485290527,0.8271355628967285
1761315939514887400,7.361887451171875,-1.0360956192016602,-5.2266950607299805,0.018645286560058594
1761315939533809700,7.3808095703125,-0.05669820308685303,-0.1396932601928711,-1.2042405605316162
1761315939552732000,7.39973193359375,-0.8544938564300537,4.491323471069336,-1.0277005434036255
1761315939571654400,7.418654296875,-0.7861661911010742,7.958147048950195,-1.4118094444274902
1761315939590576600,7.43757666015625,0.7127333879470825,9.7532958984375,-2.4219393730163574
1761315939609499000,7.456498779296875,2.564944267272949,10.281367301940918,-3.153764486312866
1761315939628421000,7.475421142578125,3.4470746517181396,10.257905006408691,-3.8197379112243652
1761315939647343400,7.49434326171875,5.731013298034668,10.048124313354492,-4.287044525146484
1761315939666265600,7.513265625,6.093247413635254,7.565943717956543,-2.0556700229644775
1761315939685187800,7.532187744140625,4.69159460067749,6.294744968414307,-1.072803020477295
1761315939704110000,7.551110107421875,3.2602198123931885,6.150858402252197,-1.2996633052825928
1761315939723032300,7.5700322265625,2.3333797454833984,7.665581226348877,-2.023134469985962
1761315939741954600,7.58895458984375,0.5737215280532837,9.249889373779297,-2.4237751960754395
1761315939760876800,7.607876708984375,-1.0608090162277222,9.415033340454102,-2.5677638053894043
1761315939779799000,7.626799072265625,-2.8666725158691406,9.391019821166992,-3.76955509185791
1761315939798721300,7.64572119140625,-1.7666370868682861,9.2744722366333,-4.748378753662109
1761315939817643500,7.6646435546875,-1.4683433771133423,8.18636703491211,-3.605816602706909
1761315939836565800,7.683565673828125,1.5293904542922974,5.976338863372803,-2.781597137451172
1761315939855488000,7.702488037109375,4.904568672180176,0.5862417221069336,-1.3841192722320557
1761315939874410200,7.72141015625,2.2078475952148438,-7.429082870483398,3.4557271003723145
1761315939893332500,7.74033251953125,5.237008094787598,-25.461036682128906,4.808294773101807
1761315939912254700,7.759254638671875,0.5113427639007568,-24.83650779724121,-0.880499005317688
1761315939931177200,7.77817724609375,-0.11983990669250488,-8.74779224395752,-0.549229621887207
1761315939950099500,7.797099365234375,2.967801094055176,-9.131237030029297,11.544554710388184
1761315939969021700,7.816021728515625,3.2699570655822754,-13.299663543701172,13.912886619567871
1761315939987944000,7.83494384765625,2.0272045135498047,-12.773054122924805,5.462978363037109
1761315940006866200,7.8538662109375,1.9877548217773438,-13.413902282714844,0.5453890562057495
1761315940025788400,7.872788330078125,0.4731485843658447,-11.24378490447998,-0.6044042110443115
1761315940044710700,7.891710693359375,-0.6626304388046265,-8.381129264831543,0.04729723930358887
1761315940063633000,7.9106328125,0.9517375230789185,-4.845553398132324,0.45819091796875
1761315940082555100,7.92955517578125,1.389480471611023,0.07242393493652344,0.4281461238861084
1761315940101477400,7.948477294921875,0.5711905360221863,4.383205890655518,0.024663925170898438
1761315940120399600,7.967399658203125,-0.22442355751991272,7.824624061584473,-0.8953204154968262
1761315940139321900,7.98632177734375,0.47031518816947937,9.521660804748535,-1.4059313535690308
1761315940158244000,8.005244140625,1.972576379776001,9.934213638305664,-2.678574323654175
1761315940177166300,8.024166259765625,2.6840760707855225,9.800141334533691,-3.8031716346740723
1761315940196088600,8.043088623046875,3.849055528640747,9.86070728302002,-4.225682258605957
1761315940215010800,8.0620107421875,5.216840744018555,9.623800277709961,-3.7277426719665527
1761315940233933000,8.08093310546875,3.8052890300750732,7.582298278808594,-1.9616519212722778
1761315940252855300,8.099855224609374,2.1231272220611572,7.097627639770508,-1.464375615119934
1761315940271777500,8.118777587890625,2.336501121520996,7.344449996948242,-0.8325057029724121
1761315940290700000,8.137699951171875,3.0704245567321777,7.949528694152832,-0.5352687835693359
1761315940309622300,8.156622314453125,1.5590386390686035,8.477961540222168,-0.9810425043106079
1761315940328544500,8.17554443359375,-0.3652496337890625,9.21884536743164,-2.438311815261841
1761315940347466800,8.194466796875,-5.634404182434082,9.880830764770508,-3.61765193939209
1761315940366389000,8.213388916015624,-6.152961254119873,8.785070419311523,-3.09855580329895
1761315940385311200,8.232311279296875,-4.9378509521484375,6.74316930770874,-2.0705373287200928
1761315940404233500,8.2512333984375,3.116238832473755,2.9959206581115723,3.536423921585083
1761315940423155700,8.27015576171875,2.6927337646484375,-6.8815107345581055,3.1190013885498047
1761315940442078000,8.289077880859375,5.792789459228516,-24.16582489013672,-1.1109734773635864
1761315940461000200,8.308000244140626,-1.7038202285766602,-32.94209671020508,-1.0962551832199097
1761315940479922400,8.32692236328125,3.8870270252227783,-10.731982231140137,-3.361215114593506
1761315940498844700,8.3458447265625,5.150659561157227,-15.247649192810059,14.469655990600586
1761315940517767000,8.364766845703125,-0.06234622001647949,-13.770528793334961,11.229711532592773
1761315940536689200,8.383689208984375,2.289957046508789,-13.530357360839844,7.2990546226501465
1761315940555611400,8.402611328125,1.5786359310150146,-11.895883560180664,2.7713263034820557
1761315940574533600,8.42153369140625,1.129152536392212,-10.569881439208984,0.2990236282348633
1761315940593455900,8.440455810546876,-1.4264172315597534,-5.61533260345459,-1.7812702655792236
1761315940612378000,8.459378173828124,0.01588261127471924,0.4066734313964844,-2.051351547241211
1761315940631300400,8.47830029296875,1.0589900016784668,4.999472141265869,-1.787280797958374
1761315940650222800,8.497222900390625,0.6063156127929688,7.7288384437561035,-1.4149290323257446
1761315940669145000,8.51614501953125,0.7941797375679016,9.863518714904785,-1.703446865081787
1761315940688067300,8.5350673828125,2.281120538711548,10.47734546661377,-2.260877847671509
1761315940706989600,8.553989501953126,3.663684129714966,10.743461608886719,-3.0993289947509766
1761315940725911800,8.572911865234374,4.546841144561768,10.681550979614258,-3.704249382019043
1761315940744834000,8.591833984375,5.130580425262451,9.205124855041504,-2.8534669876098633
1761315940763756300,8.61075634765625,4.631978511810303,8.004976272583008,-1.9810357093811035
1761315940782678500,8.629678466796875,3.6413462162017822,7.464735984802246,-2.138075828552246
1761315940801600800,8.648600830078125,2.4972641468048096,7.763866424560547,-2.9983386993408203
1761315940820523000,8.66752294921875,0.5136228799819946,8.110118865966797,-3.084585666656494
1761315940839445200,8.6864453125,-2.546783685684204,8.288435935974121,-3.7957727909088135
1761315940858367500,8.705367431640624,-2.570512294769287,8.36014461517334,-3.9503159523010254
1761315940877289700,8.724289794921875,-1.4213589429855347,8.869359016418457,-2.7823402881622314
1761315940896212000,8.7432119140625,-1.4560370445251465,8.743873596191406,-1.7838046550750732
1761315940915134200,8.76213427734375,0.5791788101196289,7.7137956619262695,-0.22491395473480225
1761315940934056400,8.781056396484376,-0.2272028923034668,5.400325298309326,2.0936083793640137
1761315940952978700,8.799978759765626,-5.466941833496094,4.456810474395752,0.4573911428451538
1761315940971901000,8.81890087890625,14.389362335205078,-9.735186576843262,6.249933242797852
1761315940990823200,8.8378232421875,10.981405258178711,-33.169464111328125,5.26210355758667
1761315941009745400,8.856745361328125,-2.5779881477355957,-29.61414909362793,-2.9330673217773438
1761315941028667600,8.875667724609375,1.0194952487945557,-11.411121368408203,2.8527913093566895
1761315941047590000,8.89458984375,3.236680507659912,-10.795371055603027,11.366682052612305
1761315941066512400,8.913512451171876,1.2056329250335693,-11.950942039489746,5.907797813415527
1761315941085434600,8.9324345703125,2.63954496383667,-15.103513717651367,2.8059792518615723
1761315941104356900,8.95135693359375,1.1508970260620117,-13.907910346984863,-0.26537394523620605
1761315941123279000,8.970279052734375,-0.2027289867401123,-10.380470275878906,-1.2616937160491943
1761315941142201300,8.989201416015625,-0.6815791726112366,-4.727707862854004,-1.0190297365188599
1761315941161123600,9.00812353515625,-0.984657347202301,1.1860084533691406,-0.27707338333129883
1761315941180045800,9.0270458984375,0.004276841878890991,5.541930198669434,0.29473328590393066
1761315941198968000,9.045968017578126,0.5710606575012207,7.672192573547363,0.6274847984313965
1761315941217890300,9.064890380859374,1.4298053979873657,9.359850883483887,-0.5495843887329102
1761315941236812500,9.0838125,2.420198678970337,10.451449394226074,-1.1058753728866577
1761315941255734800,9.10273486328125,4.127453804016113,10.600698471069336,-1.7494871616363525
1761315941274657000,9.121656982421875,7.345579147338867,9.370552062988281,-1.438999056816101
1761315941293579300,9.140579345703125,5.880382537841797,7.517258644104004,-1.0168038606643677
1761315941312501500,9.15950146484375,3.548022747039795,7.38905143737793,-1.602009654045105
1761315941331423700,9.178423828125,1.8691450357437134,8.086210250854492,-2.145951747894287
1761315941350346000,9.197345947265624,0.7380222082138062,9.042139053344727,-2.3740482330322266
1761315941369268200,9.216268310546875,-0.1418095827102661,9.31910514831543,-2.8607654571533203
1761315941388190500,9.2351904296875,-1.5279526710510254,8.623634338378906,-4.252893924713135
1761315941407112700,9.25411279296875,-1.3517045974731445,8.196503639221191,-5.087953090667725
1761315941426035200,9.27303515625,-0.714109480381012,8.188419342041016,-5.308337211608887
1761315941444957400,9.29195751953125,0.27248406410217285,8.243249893188477,-4.683257102966309
1761315941463879700,9.310879638671874,1.1434528827667236,7.135547637939453,-4.216699600219727
1761315941482802000,9.329802001953125,6.412988185882568,3.928457736968994,-4.364632606506348
1761315941501724200,9.34872412109375,-5.144078731536865,1.133237361907959,0.11238265037536621
1761315941520646400,9.367646484375,-5.049921989440918,-0.9361295700073242,0.6834055185317993
1761315941539568600,9.386568603515625,20.540555953979492,-27.278263092041016,8.184260368347168
1761315941558491000,9.405490966796876,-2.6395516395568848,-31.38992691040039,5.872764587402344
1761315941577413000,9.4244130859375,-2.2790098190307617,-10.953316688537598,0.12112033367156982
1761315941596335400,9.44333544921875,2.1506266593933105,-9.960102081298828,9.193717956542969
1761315941615257600,9.462257568359375,5.102905750274658,-14.916577339172363,12.696481704711914
1761315941634179800,9.481179931640625,5.115479946136475,-16.126615524291992,5.98588752746582
1761315941653102000,9.50010205078125,2.873934745788574,-15.567816734313965,1.8064067363739014
1761315941672024300,9.5190244140625,0.43204545974731445,-10.751502990722656,0.3471832275390625
1761315941690946600,9.537946533203124,-0.013117671012878418,-5.513744354248047,-0.05809760093688965
1761315941709868800,9.556868896484374,-1.1875871419906616,-0.0023374557495117188,0.8680920600891113
1761315941728791000,9.575791015625,0.3090800642967224,4.449109077453613,0.2652406692504883
1761315941747713300,9.59471337890625,0.7446469068527222,6.99545431137085,-1.1708332300186157
1761315941766635800,9.6136357421875,1.205700397491455,8.74629020690918,-2.257896900177002
1761315941785558000,9.63255810546875,1.7589712142944336,9.761341094970703,-2.8335769176483154
1761315941804480300,9.651480224609376,2.2249438762664795,10.026607513427734,-2.9908394813537598
1761315941823402500,9.670402587890624,3.854865550994873,10.400850296020508,-3.021148681640625
1761315941842324700,9.68932470703125,6.679775238037109,9.762399673461914,-2.0181288719177246
1761315941861247000,9.7082470703125,6.3412766456604,7.627288818359375,-1.8042705059051514
1761315941880169200,9.727169189453125,4.47070837020874,7.399998664855957,-2.840590000152588
1761315941899091500,9.746091552734375,1.5289206504821777,7.208629608154297,-3.4990479946136475
1761315941918013700,9.765013671875,-2.4424376487731934,7.909958362579346,-3.7105026245117188
1761315941936936000,9.78393603515625,-3.579030752182007,8.219127655029297,-4.010209560394287
1761315941955858200,9.802858154296874,-2.314436435699463,8.818971633911133,-3.841766357421875
1761315941974780400,9.821780517578125,-1.6911215782165527,9.456356048583984,-3.7216079235076904
1761315941993702700,9.84070263671875,-2.4291205406188965,9.479146957397461,-2.3357443809509277
1761315942012625000,9.859625,-2.408181667327881,9.15293025970459,-0.8475654125213623
1761315942031547100,9.878547119140626,2.6777167320251465,6.591937065124512,0.28127896785736084
1761315942050469400,9.897469482421876,1.9329228401184082,1.8715167045593262,3.0476255416870117
1761315942069391600,9.9163916015625,2.5094313621520996,-8.361870765686035,2.544668197631836
1761315942088313900,9.93531396484375,5.913786888122559,-24.062057495117188,2.256377935409546
1761315942107236000,9.954236083984375,-3.494997024536133,-27.37567710876465,-0.22731280326843262
1761315942126158300,9.973158447265625,2.9320168495178223,-17.683841705322266,-1.263451337814331
1761315942145080800,9.992080810546875,7.901922225952148,-19.0577449798584,12.944879531860352
1761315942164003000,10.011003173828126,4.550568580627441,-12.393023490905762,13.566261291503906
1761315942182925300,10.02992529296875,3.2032291889190674,-12.799976348876953,10.618204116821289
1761315942201847600,10.04884765625,1.2220039367675781,-14.500669479370117,4.052364349365234
1761315942220769800,10.067769775390625,-0.3498166799545288,-12.48117733001709,-1.3137494325637817
1761315942239692000,10.086692138671875,-1.2341467142105103,-6.348508834838867,-3.149914026260376
1761315942258614300,10.1056142578125,-0.9599568247795105,0.1634368896484375,-2.9343724250793457
1761315942277536500,10.12453662109375,-0.012818992137908936,4.850305557250977,-3.0658273696899414
1761315942296458800,10.143458740234376,0.44129619002342224,7.471963882446289,-2.920569896697998
1761315942315381000,10.162381103515624,0.649082601070404,9.716012954711914,-2.9774086475372314
1761315942334303200,10.18130322265625,2.5465281009674072,10.610042572021484,-3.2671632766723633
1761315942353225500,10.2002255859375,4.9794158935546875,10.523263931274414,-4.010804176330566
1761315942372147700,10.219147705078125,5.991964817047119,9.755195617675781,-4.268264293670654
1761315942391070000,10.238070068359375,5.895102500915527,8.385384559631348,-2.849522352218628
1761315942409992200,10.2569921875,2.4081368446350098,8.65867805480957,-2.1926653385162354
1761315942428914400,10.27591455078125,-1.3183348178863525,9.441912651062012,-2.28226900100708
1761315942447836700,10.294836669921875,-3.022993803024292,10.07791805267334,-1.975868582725525
1761315942466759000,10.313759033203125,-1.8641916513442993,9.990848541259766,-1.3960679769515991
1761315942485681200,10.33268115234375,-1.5040388107299805,9.366888046264648,-1.449899673461914
1761315942504603400,10.351603271484375,-1.8373056650161743,8.414494514465332,-1.6961147785186768
1761315942523526000,10.37052587890625,-1.0509215593338013,8.132843971252441,-1.6795891523361206
1761315942542448000,10.3894482421875,2.153916358947754,7.709229469299316,-1.5963549613952637
1761315942561370400,10.408370361328124,5.148529052734375,6.969205856323242,-1.8919258117675781
1761315942580292600,10.427292724609375,8.380179405212402,5.576681137084961,-2.6601035594940186
1761315942599214800,10.44621484375,9.055581092834473,1.8086957931518555,-4.455479621887207
1761315942618137000,10.46513720703125,-5.596763610839844,-2.010552406311035,-4.530060768127441
1761315942637059300,10.484059326171876,-6.4002227783203125,-4.3894805908203125,-3.0474612712860107
1761315942655981600,10.502981689453126,7.334893703460693,-35.93428421020508,6.27301549911499
1761315942674903800,10.52190380859375,3.174748182296753,-28.944061279296875,0.9710190296173096
1761315942693826000,10.540825927734375,5.0874528884887695,-11.840051651000977,4.6858673095703125
1761315942712748300,10.559748291015625,4.864009857177734,-15.389647483825684,16.603273391723633
1761315942731670500,10.57867041015625,4.566152572631836,-13.79166030883789,11.153687477111816
1761315942750592800,10.5975927734375,1.8006525039672852,-14.068442344665527,5.4191389083862305
1761315942769515000,10.616514892578126,1.1553220748901367,-11.826041221618652,0.2566204071044922
1761315942788437200,10.635437255859374,1.413177728652954,-7.3080854415893555,-1.4701354503631592
1761315942807359500,10.654359375,0.0214308500289917,-0.9321184158325195,-2.1991171836853027
1761315942826281700,10.67328173828125,-0.8346666097640991,4.263598918914795,-2.120734214782715
1761315942845204000,10.692203857421875,-1.0366981029510498,7.2907795906066895,-2.7175028324127197
1761315942864126200,10.711126220703125,-0.1063404232263565,9.565817832946777,-2.836500644683838
1761315942883048400,10.73004833984375,1.2480629682540894,10.153154373168945,-2.748670816421509
1761315942901970700,10.748970703125,2.357222318649292,10.279107093811035,-3.1861376762390137
1761315942920893000,10.767892822265624,4.280625820159912,10.70510482788086,-3.9127326011657715
1761315942939815200,10.786815185546875,5.208208084106445,10.615791320800781,-4.72014045715332
1761315942958737700,10.805737548828125,2.1945910453796387,9.518427848815918,-4.321897029876709
1761315942977660000,10.824659912109375,-1.2565975189208984,9.126336097717285,-3.24013352394104
1761315942996582100,10.84358203125,-2.368386745452881,8.947711944580078,-2.2951433658599854
1761315943015504400,10.86250439453125,-1.7158957719802856,8.858091354370117,-1.5928460359573364
1761315943034426600,10.881426513671874,-1.0093121528625488,8.257041931152344,-1.27117121219635
1761315943053348900,10.900348876953124,-0.651578962802887,7.340824127197266,-1.0667479038238525
1761315943072271000,10.91927099609375,0.8654996752738953,7.4912638664245605,-0.8929828405380249
1761315943091193300,10.938193359375,1.159582495689392,8.132441520690918,-1.8148876428604126
1761315943110115600,10.957115478515625,4.273074150085449,7.088720321655273,-1.1480381488800049
1761315943129037800,10.976037841796876,15.026762962341309,1.292954921722412,1.9230372905731201
1761315943147960000,10.9949599609375,1.8523273468017578,-6.943833351135254,2.73978853225708
1761315943166882300,11.01388232421875,-5.468063831329346,-10.080414772033691,-7.686190605163574
1761315943185804500,11.032804443359375,2.876824378967285,-27.214733123779297,-3.068091869354248
1761315943204726800,11.051726806640625,5.706748962402344,-25.884986877441406,-1.3184583187103271
1761315943223649000,11.07064892578125,-1.5082659721374512,-5.992323875427246,0.4938310384750366
1761315943242571300,11.0895712890625,-0.07855939865112305,-0.012777328491210938,10.274767875671387
1761315943261493500,11.108493408203126,-1.7136876583099365,2.3464794158935547,10.452176094055176
1761315943280415700,11.127415771484374,-0.8619301319122314,0.4041919708251953,10.041999816894531
1761315943299338000,11.146337890625,-0.08686971664428711,-3.0781383514404297,5.597841262817383
1761315943318260200,11.16526025390625,0.49814653396606445,-5.737293243408203,-0.18229234218597412
1761315943337182500,11.184182373046875,-1.2531306743621826,-6.615385055541992,-5.004820823669434
1761315943356104700,11.203104736328125,-1.2594609260559082,-4.532470703125,-3.8948922157287598
1761315943375027000,11.22202685546875,-0.9603912830352783,-0.6956262588500977,-1.7471367120742798
1761315943393949400,11.240949462890624,-2.048309326171875,1.4021310806274414,0.8234972953796387
1761315943412871700,11.25987158203125,-2.4814188480377197,2.5527825355529785,1.165234088897705
1761315943431794000,11.2787939453125,-2.181612491607666,3.0293588638305664,1.0663771629333496
1761315943450716200,11.297716064453125,-2.3595151901245117,2.497159481048584,1.191654920578003
1761315943469638400,11.316638427734375,-1.530941128730774,1.3641095161437988,1.0850961208343506
1761315943488560600,11.335560546875,-0.33473706245422363,1.0288467407226562,-0.18338823318481445
1761315943507483000,11.35448291015625,-0.2164919376373291,0.2902822494506836,-0.4024181365966797
1761315943526405000,11.373405029296874,0.9440827369689941,1.7497882843017578,-4.420647621154785
1761315943545327400,11.392327392578125,0.5286288261413574,1.5796332359313965,-3.458308696746826
1761315943564249600,11.41124951171875,0.9437823295593262,0.032566070556640625,-1.8140764236450195
1761315943583171800,11.430171875,3.3612356185913086,-1.1769323348999023,-1.811733365058899
1761315943602094000,11.449093994140625,2.2733967304229736,-0.7245035171508789,1.09735107421875
1761315943621016300,11.468016357421876,1.0442140102386475,0.5104036331176758,0.07828283309936523
1761315943639938600,11.4869384765625,0.5781447887420654,0.21445274353027344,0.8402316570281982
1761315943658860800,11.50586083984375,0.4213898181915283,0.8675479888916016,1.2501227855682373
1761315943677783000,11.524782958984375,-0.6837399005889893,-1.176264762878418,0.0016050338745117188
1761315943696705300,11.543705322265625,0.2929821014404297,-0.6070308685302734,-0.7345439195632935
1761315943715627500,11.56262744140625,3.288402795791626,1.6879854202270508,-2.168938636779785
1761315943734549800,11.5815498046875,1.412283182144165,1.3230085372924805,-1.889047622680664
1761315943753472000,11.600471923828126,-1.2958561182022095,-1.0754585266113281,-0.3149782419204712
1761315943772394200,11.619394287109374,-2.3031842708587646,-0.9666233062744141,0.34461545944213867
1761315943791316500,11.63831640625,-0.25657033920288086,-0.4350118637084961,1.121366262435913
1761315943810238700,11.65723876953125,1.399503231048584,-0.13169002532958984,0.41196393966674805
1761315943829161200,11.6761611328125,0.9441184997558594,-0.013135910034179688,-0.6371315717697144
1761315943848083500,11.69508349609375,0.48039984703063965,-0.031371116638183594,0.5636894702911377
1761315943867005700,11.714005615234376,0.14461112022399902,0.10960006713867188,1.370417594909668
1761315943885928000,11.732927978515624,0.39368557929992676,-0.03789329528808594,1.144364833831787
1761315943904850200,11.75185009765625,1.046659231185913,0.5578498840332031,-0.38485050201416016
1761315943923772400,11.7707724609375,1.0327515602111816,0.5001020431518555,-0.8571388721466064
1761315943942694700,11.789694580078125,0.3464481830596924,-0.2514934539794922,0.24552702903747559
1761315943961617000,11.808616943359375,-0.07082629203796387,-0.123504638671875,1.2656348943710327
1761315943980539100,11.8275390625,-0.3286244869232178,0.08602142333984375,1.0472688674926758
1761315943999461400,11.84646142578125,-0.3621833324432373,0.7369184494018555,0.16629481315612793
1761315944018383600,11.865383544921874,-0.7930737733840942,2.167386531829834,-0.34715133905410767
1761315944037305900,11.884305908203125,-0.6198701858520508,1.7512950897216797,-1.1828194856643677
1761315944056228000,11.90322802734375,0.34754645824432373,0.22739028930664062,-0.9939233064651489
1761315944075150300,11.922150390625,0.5140781402587891,-0.6375274658203125,-0.3217335343360901
1761315944094072600,11.941072509765625,0.6785587072372437,-0.6591453552246094,-0.6077637076377869
1761315944112994800,11.959994873046876,0.02716076374053955,0.14580249786376953,0.4946780204772949
1761315944131917000,11.9789169921875,-0.3446749448776245,-0.04217720031738281,0.8836654424667358
1761315944150839300,11.99783935546875,-0.05531442165374756,-0.3941946029663086,0.2893486022949219
1761315944169761500,12.016761474609375,0.3650929927825928,0.012418746948242188,-0.010542750358581543
1761315944188683800,12.035683837890625,0.4375525712966919,0.4373140335083008,0.25345587730407715
1761315944207606000,12.05460595703125,0.6877131462097168,0.28808021545410156,0.7301996946334839
1761315944226528300,12.0735283203125,-0.3039945363998413,0.6222267150878906,0.30248188972473145
1761315944245450800,12.09245068359375,2.006234645843506,0.9277276992797852,0.46180886030197144
1761315944264373000,12.111373046875,-2.571873188018799,0.7591762542724609,0.9930918216705322
1761315944283295200,12.130295166015625,-1.704409122467041,-0.3497438430786133,0.5607470870018005
1761315944302217500,12.149217529296875,0.4806244373321533,-0.5019807815551758,0.13565275073051453
1761315944321139700,12.1681396484375,0.6939808130264282,-0.2721424102783203,-0.8780643939971924
1761315944340062000,12.18706201171875,-0.4409114122390747,-0.17665576934814453,-1.1341696977615356
1761315944358984200,12.205984130859376,0.1499425172805786,-0.07384395599365234,-0.07881233096122742
1761315944377906400,12.224906494140624,-1.1279088258743286,-0.5851230621337891,0.8509414196014404
1761315944396828700,12.24382861328125,0.4058903455734253,-1.3039064407348633,-0.009312629699707031
1761315944415751000,12.2627509765625,-0.25794899463653564,0.05341911315917969,0.05980616807937622
1761315944434673200,12.281673095703125,-0.4193155765533447,0.8174467086791992,-0.2154099941253662
1761315944453595400,12.300595458984375,-0.5671350955963135,0.6005754470825195,0.42635035514831543
1761315944472517600,12.319517578125,-0.06909835338592529,0.23797607421875,1.2491145133972168
1761315944491439900,12.33843994140625,0.7008684873580933,0.18906497955322266,1.150221586227417
1761315944510362000,12.357362060546874,0.8021101951599121,0.9765329360961914,-1.397987723350525
1761315944529284400,12.376284423828125,-0.20556926727294922,-1.1180334091186523,-0.35223302245140076
1761315944548206600,12.39520654296875,0.22403359413146973,-0.16248035430908203,0.9379621744155884
1761315944567128800,12.41412890625,-0.03851664066314697,-0.25792694091796875,0.5525562167167664
1761315944586051000,12.433051025390625,0.31595027446746826,-0.3320741653442383,0.5574846863746643
1761315944604973300,12.451973388671876,0.5791053771972656,-0.6865625381469727,0.6977468729019165
1761315944623895600,12.4708955078125,-0.2129065990447998,0.38744068145751953,0.36017754673957825
1761315944642817800,12.48981787109375,-0.7131361961364746,0.9251527786254883,-0.27518677711486816
1761315944661740300,12.508740234375,-1.1834454536437988,0.358978271484375,-0.2901446223258972
1761315944680662500,12.52766259765625,-0.41595470905303955,-0.3652992248535156,0.5076833963394165
1761315944699584800,12.546584716796875,0.01820230484008789,-0.7851448059082031,0.5487346053123474
1761315944718507000,12.565507080078126,0.1415386199951172,0.08332633972167969,0.5211148858070374
1761315944737429200,12.58442919921875,0.020821571350097656,-0.1798858642578125,0.23276345431804657
1761315944756351500,12.6033515625,0.15452837944030762,-0.42451953887939453,0.3869873881340027
1761315944775273700,12.622273681640625,0.2799365520477295,0.5914249420166016,-0.5926441550254822
1761315944794196000,12.641196044921875,-0.09605121612548828,0.3103618621826172,-0.6953811049461365
1761315944813118200,12.6601181640625,0.04602241516113281,-0.6030950546264648,-0.15272319316864014
1761315944832040400,12.67904052734375,-0.12354516983032227,0.41118621826171875,0.3843402862548828
1761315944850962700,12.697962646484376,-0.06810688972473145,-0.23633384704589844,0.5500074028968811
1761315944869885000,12.716885009765624,0.12519240379333496,0.18699169158935547,-0.060822248458862305
1761315944888807200,12.73580712890625,-0.22304964065551758,0.4535198211669922,-0.1448836326599121
1761315944907729400,12.7547294921875,0.15533161163330078,-0.5717611312866211,-0.6145063638687134
1761315944926651600,12.773651611328125,-0.7212109565734863,-0.06557464599609375,-0.987653374671936
1761315944945574000,12.792573974609375,-0.4514896869659424,-0.3956012725830078,0.2978386878967285
1761315944964496100,12.81149609375,0.24089622497558594,0.04666328430175781,1.6803531646728516
1761315944983418400,12.83041845703125,0.07870936393737793,-0.1017904281616211,1.2624367475509644
1761315945002340600,12.849340576171874,0.1453709602355957,0.9083652496337891,0.4913763999938965
1761315945021262800,12.868262939453125,0.06913924217224121,-0.3052520751953125,-0.5992653369903564
1761315945040185300,12.887185302734375,0.030371904373168945,-0.12797164916992188,-0.5210068225860596
1761315945059107600,12.906107666015625,0.05146670341491699,-0.14185333251953125,-0.02805018424987793
1761315945078029800,12.92502978515625,0.47175145149230957,-0.30077362060546875,0.669719934463501
1761315945096952000,12.9439521484375,1.046440601348877,-0.7777700424194336,0.4891996383666992
1761315945115874300,12.962874267578124,0.3545496463775635,0.2746105194091797,-0.33232569694519043
1761315945134796500,12.981796630859375,0.4716057777404785,-0.8147916793823242,-0.34418630599975586
1761315945153718800,13.00071875,0.4638702869415283,-1.4212656021118164,0.7938874959945679
1761315945172641000,13.01964111328125,0.3473355770111084,-0.8464679718017578,1.2450276613235474
1761315945191563300,13.038563232421875,0.5299866199493408,-0.11959552764892578,0.2809467315673828
1761315945210485500,13.057485595703126,0.4955263137817383,-0.9542226791381836,1.2543842792510986
1761315945229407700,13.07640771484375,-1.028508186340332,-0.7398872375488281,1.2478505373001099
1761315945248330000,13.095330078125,-0.22255969047546387,-0.9642763137817383,0.9195897579193115
1761315945267252200,13.114252197265625,-0.5921194553375244,-1.287186622619629,1.2537778615951538
1761315945286174500,13.133174560546875,-1.1971471309661865,-1.3732242584228516,0.576223611831665
1761315945305096700,13.1520966796875,-1.1169443130493164,0.49558448791503906,-0.9727210998535156
1761315945324019000,13.17101904296875,-0.12755322456359863,0.1426544189453125,-1.0731220245361328
1761315945342941200,13.189941162109376,0.1105644702911377,-0.6089706420898438,-0.9804930686950684
1761315945361863400,13.208863525390624,-0.5682220458984375,0.24373435974121094,-0.9932653903961182
1761315945380785700,13.22778564453125,-2.34963321685791,0.3067169189453125,-0.8842101097106934
1761315945399708200,13.246708251953125,-2.599487781524658,0.6307392120361328,-0.8634259700775146
1761315945418630400,13.26563037109375,0.6979396343231201,-1.4404430389404297,1.1264386177062988
1761315945437552600,13.284552734375,3.1410322189331055,-1.729095458984375,-0.8387889862060547
1761315945456475000,13.303474853515626,1.1343958377838135,0.0023345947265625,-1.48130464553833
1761315945475397000,13.322397216796874,-0.926992654800415,1.3756203651428223,-2.029541492462158
1761315945494319400,13.3413193359375,-2.0524988174438477,-0.0036382675170898438,-0.9583823680877686
1761315945513241600,13.36024169921875,-0.38477444648742676,-0.4407930374145508,-0.18638920783996582
1761315945532163800,13.379163818359375,1.109492540359497,-0.5834741592407227,-0.9440836906433105
1761315945551086000,13.398086181640625,0.3123793601989746,-2.6167449951171875,-1.80714750289917
1761315945570008300,13.41700830078125,0.010750532150268555,1.6936345100402832,-2.086756706237793
1761315945588930600,13.4359306640625,0.3158726692199707,-0.2960643768310547,-0.38468432426452637
1761315945607852800,13.454852783203124,-0.17840242385864258,-0.8536520004272461,-0.5102214813232422
1761315945626775000,13.473775146484375,-0.24533319473266602,0.29932212829589844,-0.3997321128845215
1761315945645697300,13.492697265625,0.3191831111907959,0.9722609519958496,-1.0973305702209473
1761315945664619500,13.51161962890625,0.4572288990020752,1.1035103797912598,0.9472479820251465
1761315945683541800,13.530541748046875,-0.6803689002990723,3.0351943969726562,1.692845344543457
1761315945702464000,13.549464111328126,-0.18254470825195312,5.4928436279296875,2.2590537071228027
1761315945721386200,13.56838623046875,-0.14153695106506348,6.678248405456543,4.589385509490967
1761315945740308500,13.58730859375,0.029434919357299805,-0.9443302154541016,-1.052635669708252
1761315945759230700,13.606230712890625,0.5805909633636475,-0.0012350082397460938,0.07906723022460938
1761315945778153000,13.625153076171875,0.5430617332458496,1.1733789443969727,1.1644313335418701
1761315945797075200,13.6440751953125,0.7175805568695068,0.18049860000610352,1.2097868919372559
1761315945815997400,13.66299755859375,-0.3224666118621826,-0.303189754486084,0.6543402671813965
1761315945834919700,13.681919677734374,0.2751963138580322,-0.20537710189819336,0.03200054168701172
1761315945853842000,13.700842041015624,0.6466221809387207,-0.28064680099487305,-0.1787123680114746
1761315945872764400,13.719764404296875,0.5405967235565186,-1.005678653717041,-0.07268762588500977
1761315945891686700,13.738686767578125,0.5103969573974609,-0.5040178298950195,-0.06742620468139648
1761315945910609000,13.75760888671875,-0.1644291877746582,-0.3666219711303711,0.34333038330078125
1761315945929531100,13.77653125,-0.2869255542755127,-0.39850902557373047,0.5108194351196289
1761315945948453400,13.795453369140626,-0.03304338455200195,0.09479999542236328,0.6397666931152344
1761315945967375600,13.814375732421874,-0.1021883487701416,0.051827430725097656,0.12665843963623047
1761315945986297900,13.8332978515625,0.13717198371887207,0.08073949813842773,-0.0198211669921875
1761315946005220000,13.85222021484375,0.08640575408935547,0.002692699432373047,0.11393499374389648
1761315946024142300,13.871142333984375,-0.014725446701049805,0.09511470794677734,0.3681039810180664
1761315946043064600,13.890064697265625,-0.36923742294311523,0.03122997283935547,0.33948707580566406
1761315946061986800,13.90898681640625,-0.11458253860473633,0.023908138275146484,0.31223058700561523
1761315946080909000,13.927908935546874,0.10530948638916016,0.03684425354003906,0.1171116828918457
1761315946099831300,13.946831298828124,-0.005938053131103516,-0.0016231536865234375,0.08239412307739258
1761315946118753500,13.96575341796875,0.18635916709899902,0.18760156631469727,-0.1850137710571289
1761315946137675800,13.98467578125,0.034709930419921875,-0.007500648498535156,0.03259897232055664
1761315946156598000,14.003597900390625,-0.017319679260253906,-0.11553478240966797,0.1511702537536621
1761315946175520300,14.022520263671876,-0.04171943664550781,-0.08396673202514648,0.12139463424682617
1761315946194442500,14.0414423828125,-0.0531611442565918,-0.025547027587890625,-0.07577657699584961
1761315946213364700,14.06036474609375,0.03799629211425781,-0.045458316802978516,-0.04578685760498047
1761315946232287000,14.079286865234375,-0.008464813232421875,-0.08813095092773438,0.042439937591552734
1761315946251209200,14.098209228515625,-0.046113014221191406,0.1226043701171875,0.0030164718627929688
1761315946270131700,14.117131591796875,0.035424232482910156,0.13506507873535156,-0.03910207748413086
1761315946289054000,14.136053955078125,0.09579062461853027,0.10173892974853516,-0.15591716766357422
1761315946307976200,14.15497607421875,0.0506587028503418,0.1002650260925293,-0.11034107208251953
1761315946326898400,14.1738984375,0.09879660606384277,0.01703023910522461,0.008011817932128906
1761315946345820700,14.192820556640624,0.11131930351257324,0.05219888687133789,-0.003033161163330078
1761315946364743000,14.211742919921875,0.06458306312561035,0.045622825622558594,0.03919553756713867
1761315946383665200,14.2306650390625,0.0007643699645996094,-0.00008153915405273438,0.08474063873291016
1761315946402587400,14.24958740234375,0.06424903869628906,0.04405355453491211,0.035811424255371094
1761315946421509600,14.268509521484376,0.03356289863586426,0.04667091369628906,0.04618406295776367
1761315946440431900,14.287431884765626,-0.0023698806762695312,-0.016397953033447266,0.04548931121826172
1761315946459354000,14.30635400390625,-0.0070836544036865234,-0.09198141098022461,0.07381629943847656
1761315946478276400,14.3252763671875,-0.013369083404541016,-0.06924152374267578,0.02243518829345703
1761315946497198600,14.344198486328125,-0.048184871673583984,0.01361083984375,0.047611236572265625
1761315946516120800,14.363120849609375,-0.005284309387207031,0.008864402770996094,0.014592647552490234
1761315946535043000,14.38204296875,-0.3030858039855957,0.07940196990966797,0.03977012634277344
1761315946553965300,14.40096533203125,-0.09387445449829102,0.07079696655273438,0.12566041946411133
1761315946572887600,14.419887451171874,0.2823929786682129,-0.04010725021362305,0.08620023727416992
1761315946591809800,14.438809814453125,0.31322503089904785,-0.08632516860961914,0.006453990936279297
1761315946610732000,14.45773193359375,0.0039212703704833984,-0.015851974487304688,-0.09807109832763672
1761315946629654300,14.476654296875,-0.31522345542907715,0.06458044052124023,-0.053066253662109375
