time,seconds_elapsed,z,y,x
1761315932402618000,0.2496181640625,8.879764556884766,0.15074782073497772,1.5744773149490356
1761315932421540400,0.268540283203125,7.082755088806152,1.0408778190612793,-0.1339980661869049
1761315932440462600,0.287462646484375,8.015955924987793,1.277767300605774,-1.4380863904953003
1761315932459384800,0.306384765625,7.061219692230225,0.698704183101654,-2.225325107574463
1761315932478307000,0.32530712890625,8.827122688293457,1.8807586431503296,-0.8422735929489136
1761315932497229600,0.3442294921875,7.9968132972717285,0.20817556977272034,-0.24406790733337402
1761315932516151800,0.36315185546875,5.37906551361084,-0.3900300860404968,-1.2059825658798218
1761315932535073800,0.38207373046875,7.0923261642456055,-0.5288137793540955,-0.04785645380616188
1761315932553996300,0.400996337890625,3.091526746749878,-0.13639089465141296,-1.2921242713928223
1761315932572918500,0.41991845703125,1.0001999139785767,-3.13220477104187,-1.9764715433120728
1761315932591840800,0.4388408203125,3.6634113788604736,-4.230510234832764,-1.0097711086273193
1761315932610763000,0.457762939453125,2.9359934329986572,-6.666403770446777,-2.1583259105682373
1761315932629685200,0.476685302734375,4.1491546630859375,-7.872386455535889,-3.6610186100006104
1761315932648607500,0.495607421875,6.367300987243652,-7.594819068908691,-7.288537979125977
1761315932667529700,0.51452978515625,8.556734085083008,-7.403393268585205,-10.552348136901855
1761315932686452000,0.533451904296875,10.066604614257812,-7.054041385650635,-12.390035629272461
1761315932705374200,0.552374267578125,9.93260669708252,-6.951149940490723,-13.031311988830566
1761315932724296400,0.57129638671875,8.303094863891602,-7.025327205657959,-14.318650245666504
1761315932743218700,0.59021875,7.802994728088379,-6.120840549468994,-12.301501274108887
1761315932762141000,0.609140869140625,9.882357597351074,-5.173282623291016,-9.980463027954102
1761315932781063200,0.628063232421875,13.430913925170898,-5.4173502922058105,-7.657032489776611
1761315932799985400,0.6469853515625,13.854443550109863,-4.960321426391602,-8.415556907653809
1761315932818907600,0.66590771484375,13.47159194946289,-3.9385859966278076,-8.97787094116211
1761315932837830100,0.684830078125,11.743973731994629,-3.7256247997283936,-7.410571575164795
1761315932856752400,0.70375244140625,7.386643409729004,-4.084548473358154,-6.446264266967773
1761315932875674600,0.722674560546875,3.981656789779663,-5.563312530517578,-7.276573657989502
1761315932894596900,0.741596923828125,7.015756130218506,-6.278766632080078,-9.554540634155273
1761315932913519000,0.76051904296875,10.272387504577637,-6.405586242675781,-10.238887786865234
1761315932932441300,0.77944140625,13.256237030029297,-6.1710896492004395,-8.489734649658203
1761315932951363600,0.798363525390625,12.873385429382324,-5.288137912750244,-3.352344512939453
1761315932970285800,0.817285888671875,9.131011009216309,-6.3601226806640625,-2.5076780319213867
1761315932989208000,0.8362080078125,8.09970474243164,-6.216553211212158,-4.938786029815674
1761315933008130300,0.85513037109375,6.467799663543701,-6.654439926147461,-5.749952793121338
1761315933027052500,0.874052490234375,5.154139995574951,-5.838487148284912,-6.546762943267822
1761315933045974800,0.892974853515625,5.568098068237305,-5.97727108001709,-6.4701924324035645
1761315933064897000,0.91189697265625,6.135197162628174,-6.211767673492432,-5.9198431968688965
1761315933083819300,0.9308193359375,5.218746185302734,-6.072983741760254,-5.66620397567749
1761315933102741500,0.949741455078125,4.089334011077881,-5.79063081741333,-5.2115678787231445
1761315933121663700,0.968663818359375,4.4243292808532715,-5.38624382019043,-4.230510234832764
1761315933140586200,0.987586181640625,4.658825874328613,-5.850451469421387,-4.264009952545166
1761315933159508500,1.006508544921875,5.0225348472595215,-6.154339790344238,-4.536791801452637
1761315933178430700,1.0254306640625,4.742574691772461,-6.029912948608398,-4.859822750091553
1761315933197353000,1.04435302734375,3.706482172012329,-6.6352972984313965,-4.7473602294921875
1761315933216275200,1.063275146484375,3.768695592880249,-6.625725746154785,-5.350351333618164
1761315933235197400,1.082197509765625,4.388436794281006,-6.9822564125061035,-5.467599868774414
1761315933254119700,1.10111962890625,4.969892501831055,-6.853044033050537,-5.560919761657715
1761315933273042000,1.1200419921875,5.383851051330566,-6.671189308166504,-5.687739372253418
1761315933291964200,1.138964111328125,5.98444938659668,-6.259624004364014,-6.013163089752197
1761315933310886400,1.157886474609375,6.620940208435059,-6.281159400939941,-6.285944938659668
1761315933329808600,1.17680859375,6.099305152893066,-6.429514408111572,-5.8959150314331055
1761315933348731000,1.19573095703125,5.201996326446533,-6.400800704956055,-5.6446685791015625
1761315933367653000,1.214653076171875,5.304887771606445,-6.376872539520264,-5.520241737365723
1761315933386575400,1.233575439453125,5.072783946990967,-6.254838466644287,-5.680561065673828
1761315933405497600,1.25249755859375,4.835894584655762,-6.226124286651611,-6.0538411140441895
1761315933424420000,1.271420166015625,4.790431022644043,-6.376872539520264,-6.276373863220215
1761315933443342300,1.29034228515625,5.168497085571289,-6.386443614959717,-6.424728870391846
1761315933462264600,1.3092646484375,5.312066078186035,-6.654439926147461,-6.087340831756592
1761315933481186800,1.328186767578125,4.833501815795898,-6.898507595062256,-5.752345561981201
1761315933500109000,1.347109130859375,4.07258415222168,-6.8554368019104,-5.553741455078125
1761315933519031300,1.36603125,4.1419758796691895,-6.685546398162842,-5.632704734802246
1761315933537953500,1.38495361328125,4.536791801452637,-6.498906135559082,-5.843272686004639
1761315933556875800,1.403875732421875,4.737788677215576,-6.484549522399902,-5.994020938873291
1761315933575798000,1.422798095703125,4.304687976837158,-6.300302028656006,-6.273981094360352
1761315933594720300,1.44172021484375,3.586841106414795,-6.254838466644287,-6.474977970123291
1761315933613642500,1.460642578125,2.895315408706665,-5.869594097137451,-7.073183536529541
1761315933632564700,1.479564697265625,2.4095723628997803,-5.522634506225586,-7.283751964569092
1761315933651487000,1.498487060546875,2.132004976272583,-5.623133182525635,-7.2430739402771
1761315933670409200,1.5174091796875,3.046063184738159,-5.7858452796936035,-7.652246952056885
1761315933689331500,1.53633154296875,4.4243292808532715,-5.146961688995361,-7.901100158691406
1761315933708254000,1.55525390625,6.994220733642578,-5.190032482147217,-7.70967435836792
1761315933727176200,1.57417626953125,4.572684288024902,-4.555934429168701,-8.559126853942871
1761315933746098400,1.593098388671875,1.887937068939209,-5.469992637634277,-7.6666035652160645
1761315933765020700,1.612020751953125,-1.1724830865859985,-6.802794933319092,-5.257031440734863
1761315933783943000,1.63094287109375,2.926422119140625,-3.730410575866699,-11.499905586242676
1761315933802865200,1.649865234375,3.5126636028289795,-7.51585578918457,-5.7786664962768555
1761315933821787400,1.668787353515625,1.1054840087890625,-5.795416355133057,-4.3788652420043945
1761315933840709600,1.687709716796875,-0.5144568681716919,-5.5106706619262695,-3.9361932277679443
1761315933859631900,1.7066318359375,-0.7657032608985901,-4.431507587432861,-3.4887354373931885
1761315933878554000,1.72555419921875,3.7160534858703613,-5.546562671661377,-4.340580463409424
1761315933897476400,1.744476318359375,1.4213366508483887,-2.7397818565368652,-2.9168508052825928
1761315933916398600,1.763398681640625,-2.581855535507202,-2.9312076568603516,-0.08614161610603333
1761315933935320800,1.78232080078125,-3.1274192333221436,-4.677968502044678,1.179661512374878
1761315933954243000,1.8012431640625,-0.8949156403541565,-7.628318786621094,0.08853443711996078
1761315933973165600,1.82016552734375,1.6079767942428589,-12.258430480957031,-5.0703911781311035
1761315933992087800,1.839087890625,2.7804598808288574,-16.792829513549805,-9.253045082092285
1761315934011010000,1.858010009765625,4.051048755645752,-18.355342864990234,-15.175281524658203
1761315934029932300,1.876932373046875,4.1730828285217285,-16.08455467224121,-13.421341896057129
1761315934048854500,1.8958544921875,4.35254430770874,-12.387642860412598,-10.470992088317871
1761315934067776800,1.91477685546875,1.031306505203247,-10.052248001098633,-3.9218363761901855
1761315934086699000,1.933698974609375,0.5742774605751038,-9.638289451599121,-2.1415762901306152
1761315934105621200,1.952621337890625,0.8327022790908813,-8.338987350463867,-3.90987229347229
1761315934124543500,1.97154345703125,0.6795616149902344,-7.683353424072266,-4.790431022644043
1761315934143465700,1.9904658203125,1.184447169303894,-7.712067604064941,-4.960321426391602
1761315934162388000,2.009387939453125,0.97148597240448,-8.437092781066895,-3.7232320308685303
1761315934181310200,2.028310302734375,0.14835500717163086,-9.32722282409668,-3.3475589752197266
1761315934200232400,2.047232421875,1.2705888748168945,-2.957528829574585,-3.304488182067871
1761315934219154700,2.06615478515625,1.9405791759490967,0.5048855543136597,-3.4265220165252686
1761315934238077200,2.0850771484375,0.5383850932121277,4.082155227661133,-4.280759811401367
1761315934256999400,2.10399951171875,-1.34476637840271,2.194218397140503,1.0671988725662231
1761315934275921700,2.122921630859375,-2.5603201389312744,-2.187039852142334,0.9906286001205444
1761315934294844000,2.141843994140625,-2.392822742462158,-4.493721008300781,2.2325034141540527
1761315934313766100,2.16076611328125,15.1417818069458,-21.18126678466797,-2.012363910675049
1761315934332688400,2.1796884765625,4.584648132324219,-37.16292953491211,5.434100151062012
1761315934351610600,2.198610595703125,6.403193473815918,-17.190038681030273,-8.183453559875488
1761315934370532900,2.217532958984375,8.559126853942871,-4.319045066833496,-15.78545093536377
1761315934389455000,2.236455078125,5.343173027038574,-10.50209903717041,-4.012763500213623
1761315934408377300,2.25537744140625,0.9667003750801086,-12.263216018676758,1.6271194219589233
1761315934427299600,2.274299560546875,0.08135596662759781,-12.78485107421875,6.422336101531982
1761315934446221800,2.293221923828125,-2.5746772289276123,-12.823136329650879,8.980263710021973
1761315934465144000,2.31214404296875,1.3160524368286133,-11.365907669067383,13.270594596862793
1761315934484066300,2.33106640625,7.910671710968018,-24.308685302734375,18.781265258789062
1761315934502988800,2.34998876953125,-2.2755744457244873,-32.013572692871094,3.0652058124542236
1761315934521911000,2.3689111328125,-1.8089739084243774,-33.169307708740234,-1.6390835046768188
1761315934540833300,2.387833251953125,3.3020951747894287,-23.042882919311523,-4.570291042327881
1761315934559755500,2.406755615234375,0.9308080077171326,-15.524633407592773,-3.2781670093536377
1761315934578677800,2.425677734375,0.7417750358581543,-8.784051895141602,-1.789831280708313
1761315934597600000,2.44460009765625,0.9475577473640442,-4.275974273681641,0.9595218896865845
1761315934616522200,2.463522216796875,1.648654818534851,-1.7922241687774658,3.594019651412964
1761315934635444500,2.482444580078125,5.278566837310791,0.1459621787071228,4.177868366241455
1761315934654366700,2.50136669921875,8.061419486999512,0.672383189201355,4.249652862548828
1761315934673289000,2.5202890625,6.398407936096191,0.12921242415905,2.581855535507202
1761315934692211200,2.539211181640625,3.3547372817993164,-1.031306505203247,-0.519242525100708
1761315934711133400,2.558133544921875,1.3758729696273804,-2.084148406982422,-2.861815929412842
1761315934730055700,2.5770556640625,-0.7561319470405579,-1.5314065217971802,-2.3258235454559326
1761315934748978200,2.595978271484375,-2.0793628692626953,-0.8207381963729858,-1.0648061037063599
1761315934767900400,2.614900390625,-2.179861545562744,-0.914058268070221,0.02392822690308094
1761315934786822700,2.63382275390625,-0.727418065071106,-0.8111668825149536,-0.34217363595962524
1761315934805745000,2.652744873046875,-0.28235307335853577,-1.3639088869094849,0.48813581466674805
1761315934824667100,2.671667236328125,-1.1700903177261353,-1.2418749332427979,1.1413763761520386
1761315934843589400,2.69058935546875,-1.399801254272461,-0.10049854964017868,0.7872386574745178
1761315934862511600,2.70951171875,9.856036186218262,-1.0432707071304321,1.0049854516983032
1761315934881433900,2.728433837890625,12.136396408081055,-5.333601474761963,1.8951154947280884
1761315934900356000,2.747356201171875,-6.498906135559082,-6.357729911804199,2.007578134536743
1761315934919278300,2.7662783203125,-3.6849467754364014,-8.997013092041016,0.33738797903060913
1761315934938200600,2.78520068359375,6.453442573547363,-27.201608657836914,4.3788652420043945
1761315934957122800,2.804122802734375,11.784651756286621,-44.39643096923828,11.839686393737793
1761315934976045000,2.823045166015625,6.486942291259766,-28.22812843322754,-0.08374879509210587
1761315934994967600,2.841967529296875,8.731410026550293,-26.65125846862793,10.552348136901855
1761315935013889800,2.860889892578125,1.129412293434143,-22.84427833557129,8.80798053741455
1761315935032812000,2.87981201171875,1.801795482635498,-23.35394859313965,7.7216386795043945
1761315935051734300,2.898734375,3.955335855484009,-24.947568893432617,5.3934221267700195
1761315935070656500,2.917656494140625,2.557927370071411,-23.095523834228516,2.1128623485565186
1761315935089578800,2.936578857421875,0.5886343717575073,-17.6159610748291,0.8398807644844055
1761315935108501000,2.9555009765625,0.9355936646461487,-11.344371795654297,-0.038285162299871445
1761315935127423200,2.97442333984375,0.27756741642951965,-6.463014125823975,0.14835500717163086
1761315935146345500,2.993345458984375,-0.6963114142417908,-2.5363919734954834,1.1629117727279663
1761315935165267700,3.012267822265625,-0.16749759018421173,0.2727817893028259,1.069591760635376
1761315935184190000,3.03118994140625,2.1990039348602295,1.1581261157989502,0.7848458290100098
1761315935203112200,3.0501123046875,4.481756687164307,1.7730815410614014,0.4259224236011505
1761315935222034700,3.06903466796875,6.896114826202393,2.3162522315979004,0.5527420043945312
1761315935240957000,3.08795703125,4.989035129547119,1.3830515146255493,1.3280165195465088
1761315935259879200,3.106879150390625,1.1868400573730469,-1.5601203441619873,0.48574298620224
1761315935278801400,3.125801513671875,-0.02392822690308094,-1.9310078620910645,-0.16031911969184875
1761315935297723600,3.1447236328125,1.1700903177261353,-2.227717876434326,-0.2967100143432617
1761315935316646000,3.16364599609375,1.6007983684539795,-2.400001049041748,-0.1459621787071228
1761315935335568100,3.182568115234375,0.8470591902732849,-1.0839486122131348,-0.4211367964744568
1761315935354490400,3.201490478515625,-0.014356935396790504,-0.882951557636261,-0.8422735929489136
1761315935373412600,3.22041259765625,0.9332008361816406,-1.0791629552841187,-1.215553879737854
1761315935392334800,3.2393349609375,2.225325107574463,-1.2658032178878784,-1.31365966796875
1761315935411257000,3.258257080078125,2.7828526496887207,-1.576870083808899,-0.7657032608985901
1761315935430179300,3.277179443359375,2.9623143672943115,-2.2755744457244873,-0.2392822653055191
1761315935449101800,3.296101806640625,5.350351333618164,-4.7952165603637695,-0.32542386651039124
1761315935468024000,3.315024169921875,-1.5314065217971802,-7.1162543296813965,1.1748759746551514
1761315935486946300,3.3339462890625,13.519448280334473,-13.773087501525879,4.261617183685303
1761315935505868500,3.35286865234375,-5.223531723022461,-29.55853843688965,3.8883368968963623
1761315935524790800,3.371790771484375,7.0755767822265625,-40.31188201904297,2.5603201389312744
1761315935543713000,3.390713134765625,3.366701364517212,-25.93580436706543,0.4785645306110382
1761315935562635300,3.40963525390625,8.666803359985352,-26.258834838867188,13.658231735229492
1761315935581557500,3.4285576171875,9.355937004089355,-27.373891830444336,12.473784446716309
1761315935600479700,3.447479736328125,3.744767427444458,-25.897520065307617,7.09711217880249
1761315935619402000,3.466402099609375,2.50289249420166,-22.939990997314453,4.5200419425964355
1761315935638324200,3.48532421875,1.373480200767517,-19.13300895690918,4.1036906242370605
1761315935657246500,3.50424658203125,-0.14835500717163086,-14.337793350219727,4.211368083953857
1761315935676169000,3.5231689453125,0.9212366938591003,-9.133403778076172,4.527220249176025
1761315935695091200,3.54209130859375,0.5431707501411438,-4.453042984008789,3.1441688537597656
1761315935714013400,3.561013427734375,0.605384111404419,-1.2586246728897095,1.6390835046768188
1761315935732935700,3.579935791015625,0.5312066078186035,0.605384111404419,0.5288137793540955
1761315935751858000,3.59885791015625,1.4620146751403809,0.8135597109794617,-0.37806597352027893
1761315935770780200,3.6177802734375,2.029113531112671,0.5264210104942322,-0.7034898400306702
1761315935789702400,3.636702392578125,2.706282377243042,0.397208571434021,-0.8733802437782288
1761315935808624600,3.655624755859375,6.190232276916504,0.28953152894973755,-2.1296122074127197
1761315935827547000,3.674546875,6.510870456695557,-1.5098711252212524,-0.7345965504646301
1761315935846469000,3.69346923828125,2.56510591506958,-1.9334007501602173,-0.064606212079525
1761315935865391400,3.712391357421875,0.14835500717163086,-1.6917256116867065,0.2584248483181
1761315935884313900,3.73131396484375,-1.3495519161224365,-0.9284151792526245,0.45224347710609436
1761315935903236000,3.750236083984375,-0.3900300860404968,-0.8757730722427368,0.11964113265275955
1761315935922158300,3.769158447265625,0.6364908218383789,-0.6532405614852905,-1.0791629552841187
1761315935941080600,3.78808056640625,0.7776673436164856,0,-1.459621787071228
1761315935960002800,3.8070029296875,1.1509476900100708,-0.2153540402650833,-1.4691931009292603
1761315935978925000,3.825925048828125,2.3952155113220215,-1.5720844268798828,0.1339980661869049
1761315935997847300,3.844847412109375,4.208974838256836,-4.711467742919922,3.565305709838867
1761315936016769500,3.86376953125,-1.0145567655563354,-6.106483459472656,4.996213912963867
1761315936035691800,3.88269189453125,9.686145782470703,-19.712072372436523,7.345965385437012
1761315936054614000,3.901614013671875,1.0169496536254883,-38.0865592956543,3.7232320308685303
1761315936073536300,3.920536376953125,0.9284151792526245,-39.223148345947266,-1.1461620330810547
1761315936092458800,3.939458740234375,4.773681163787842,-19.666608810424805,-2.053041934967041
1761315936111381000,3.958381103515625,8.405985832214355,-23.70330047607422,12.52164077758789
1761315936130303200,3.97730322265625,6.2189459800720215,-25.430919647216797,12.789636611938477
1761315936149225500,3.9962255859375,6.697510719299316,-26.268407821655273,10.782058715820312
1761315936168147700,4.015147705078125,3.4911282062530518,-23.334806442260742,6.063412666320801
1761315936187070000,4.034070068359375,1.4093725681304932,-19.140188217163086,2.581855535507202
1761315936205992200,4.0529921875,0.10767702013254166,-13.902299880981445,1.373480200767517
1761315936224914400,4.07191455078125,2.2325034141540527,-8.889336585998535,1.8711873292922974
1761315936243836700,4.090836669921875,1.7252250909805298,-4.666004180908203,0.4666004180908203
1761315936262759000,4.109759033203125,0.14356936514377594,-1.9645073413848877,0.07417750358581543
1761315936281681200,4.12868115234375,1.1174482107162476,-0.038285162299871445,-0.5527420043945312
1761315936300603400,4.147603271484375,2.194218397140503,0.5910272002220154,-0.9068797826766968
1761315936319526000,4.16652587890625,2.273181438446045,0.4163511395454407,-0.7322037220001221
1761315936338448100,4.1854482421875,3.4337005615234375,0.4833501875400543,-1.2538390159606934
1761315936357370400,4.204370361328125,6.350551128387451,0.1459621787071228,-2.4837498664855957
1761315936376292600,4.223292724609375,4.570291042327881,-0.9403793215751648,-0.698704183101654
1761315936395214800,4.24221484375,0.9667003750801086,-0.6125625967979431,0.16510476171970367
1761315936414137000,4.26113720703125,-2.012363910675049,-0.07417750358581543,0.7800601720809937
1761315936433059300,4.280059326171875,-3.0077781677246094,-0.4307080805301666,0.9116654396057129
1761315936451981600,4.298981689453125,-0.9690931439399719,-0.7393822073936462,-0.25363919138908386
1761315936470903800,4.31790380859375,1.0169496536254883,-0.8877372145652771,-0.6436693072319031
1761315936489826000,4.336825927734375,2.5986053943634033,-1.0480563640594482,-1.0217353105545044
1761315936508748300,4.355748291015625,5.3455657958984375,-1.8472590446472168,-0.973878800868988
1761315936527670800,4.3746708984375,9.588040351867676,-3.352344512939453,-2.100898265838623
1761315936546593000,4.393593017578125,1.0719845294952393,-6.616154670715332,2.912065267562866
1761315936565515300,4.412515380859375,-8.219346046447754,-4.462614059448242,2.1367905139923096
1761315936584437500,4.4314375,-1.3160524368286133,-8.975478172302246,1.9262222051620483
1761315936603359700,4.45035986328125,11.212766647338867,-36.92604064941406,10.229316711425781
1761315936622282000,4.469281982421875,15.043676376342773,-45.138206481933594,2.8522446155548096
1761315936641204200,4.488204345703125,6.8410797119140625,-25.48356056213379,-3.0891339778900146
1761315936660126500,4.50712646484375,12.77767276763916,-24.614967346191406,12.835101127624512
1761315936679048700,4.526048583984375,4.07258415222168,-21.49951171875,12.098111152648926
1761315936697971000,4.544970947265625,1.069591760635376,-21.985254287719727,9.34875774383545
1761315936716893200,4.56389306640625,2.2372891902923584,-22.671995162963867,3.87876558303833
1761315936735815700,4.582815673828125,1.6965112686157227,-20.12603187561035,1.1030912399291992
1761315936754738000,4.601738037109375,0.5647061467170715,-16.3046932220459,-0.31824541091918945
1761315936773660200,4.62066015625,0.7776673436164856,-11.294122695922852,-1.0121639966964722
1761315936792582400,4.63958251953125,0.760917603969574,-7.046862602233887,-0.11964113265275955
1761315936811504600,4.658504638671875,0.20338992774486542,-3.507878065109253,1.9357935190200806
1761315936830427000,4.677427001953125,0.45942193269729614,-0.5551348328590393,3.053241729736328
1761315936849349000,4.69634912109375,2.9551360607147217,1.0600204467773438,2.4430718421936035
1761315936868271400,4.715271240234375,5.221138954162598,1.954936146736145,1.7324036359786987
1761315936887193600,4.734193603515625,7.616354465484619,2.2205393314361572,1.5840486288070679
1761315936906115800,4.75311572265625,6.833901405334473,-0.09092725813388824,1.9597218036651611
1761315936925038000,4.7720380859375,3.10109806060791,-2.9479575157165527,0.4139583110809326
1761315936943960300,4.790960205078125,1.301695466041565,-3.601198196411133,-1.3639088869094849
1761315936962882800,4.8098828125,2.3306093215942383,-2.4741785526275635,-1.7467604875564575
1761315936981805000,4.82880517578125,2.5220351219177246,-0.5479564070701599,-0.7824530005455017
1761315937000727300,4.847727294921875,1.0791629552841187,-0.2584248483181,-0.8015955686569214
1761315937019649500,4.8666494140625,0.031106693670153618,-0.550349235534668,-1.9860427379608154
1761315937038571800,4.88557177734375,0.02871387079358101,-0.8350951075553894,-2.0745773315429688
1761315937057494000,4.904493896484375,0.37806597352027893,-0.6915257573127747,-1.0767701864242554
1761315937076416300,4.923416259765625,-0.7513462901115417,-1.5912270545959473,2.2061824798583984
1761315937095338500,4.94233837890625,0.4570291340351105,-4.271188259124756,4.840680122375488
1761315937114260700,4.9612607421875,-0.16271193325519562,-6.276373863220215,4.584648132324219
1761315937133183000,4.980182861328125,19.523040771484375,-18.90090560913086,6.783652305603027
1761315937152105200,4.999105224609375,-0.6675975322723389,-28.890939712524414,0.9451649188995361
1761315937171027700,5.01802783203125,4.508078098297119,-33.62873077392578,-1.6773686408996582
1761315937189950000,5.036949951171875,8.46341323852539,-23.947368621826172,-1.3710874319076538
1761315937208872200,5.0558720703125,9.513862609863281,-26.029125213623047,9.351150512695312
1761315937227794400,5.07479443359375,5.678168296813965,-27.55574607849121,13.02652645111084
1761315937246716700,5.093716552734375,3.8428730964660645,-21.93739891052246,9.858428955078125
1761315937265639000,5.112638916015625,3.005385160446167,-21.32244300842285,7.149754047393799
1761315937284561200,5.13156103515625,2.1750757694244385,-21.06401824951172,4.960321426391602
1761315937303483400,5.1504833984375,1.801795482635498,-17.568103790283203,2.861815929412842
1761315937322405600,5.169405517578125,1.9908283948898315,-12.045469284057617,3.160918712615967
1761315937341328000,5.188327880859375,1.8472590446472168,-7.1473612785339355,1.5744773149490356
1761315937360250000,5.20725,0.6269195079803467,-3.3547372817993164,1.2035897970199585
1761315937379172400,5.22617236328125,-0.17706887423992157,-1.031306505203247,0.8231309652328491
1761315937398094600,5.245094482421875,0.641276478767395,-0.07417750358581543,0.07178468257188797
1761315937417017000,5.26401708984375,1.4835500717163086,0.19381862878799438,-0.36610186100006104
1761315937435939300,5.282939208984375,2.50289249420166,0.41874396800994873,-0.6580262184143066
1761315937454861600,5.301861572265625,6.460621356964111,1.2442678213119507,-2.421536445617676
1761315937473783800,5.32078369140625,6.843472957611084,0.24885354936122894,-1.0600204467773438
1761315937492706000,5.3397060546875,3.273381471633911,-1.1222338676452637,1.6941183805465698
1761315937511628300,5.358628173828125,-0.0023928226437419653,-1.2993026971817017,2.620140790939331
1761315937530550500,5.377550537109375,-1.856830358505249,-0.8398807644844055,2.526820659637451
1761315937549472800,5.39647265625,-3.8979079723358154,-0.20578274130821228,0.6460621356964111
1761315937568395000,5.41539501953125,-1.9884356260299683,-0.41874396800994873,-1.8903298377990723
1761315937587317200,5.434317138671875,-0.30149564146995544,-0.7657032608985901,-1.8616160154342651
1761315937606239500,5.453239501953125,2.251646041870117,-1.3232308626174927,-2.830709218978882
1761315937625161700,5.47216162109375,4.548755645751953,-2.6057839393615723,-3.972085475921631
1761315937644084200,5.491084228515625,2.5052852630615234,-3.720839262008667,-3.94097900390625
1761315937663006500,5.51000634765625,1.332802176475525,-6.905686378479004,-0.8997012972831726
1761315937681928700,5.5289287109375,6.273981094360352,-16.455440521240234,4.175475597381592
1761315937700851000,5.547850830078125,8.149953842163086,-26.541189193725586,7.264609336853027
1761315937719773200,5.566773193359375,0.7417750358581543,-36.20819091796875,5.465207099914551
1761315937738695400,5.5856953125,5.151747226715088,-26.713472366333008,-1.576870083808899
1761315937757617700,5.60461767578125,2.9718856811523438,-21.707687377929688,7.410571575164795
1761315937776540000,5.623539794921875,7.377072334289551,-23.48076820373535,11.169695854187012
1761315937795462100,5.642462158203125,5.343173027038574,-26.210979461669922,10.124032974243164
1761315937814384400,5.66138427734375,4.108476638793945,-25.318456649780273,5.917450428009033
1761315937833306600,5.680306640625,2.8522446155548096,-21.58325958251953,2.3856441974639893
1761315937852228900,5.699228759765625,1.5936198234558105,-17.242679595947266,1.5840486288070679
1761315937871151000,5.718151123046875,0.973878800868988,-12.126825332641602,1.7156537771224976
1761315937890073600,5.737073486328125,-0.10767702013254166,-7.216753005981445,2.218146562576294
1761315937908995800,5.755995849609375,0.3445664644241333,-3.3930225372314453,1.825723648071289
1761315937927918000,5.77491796875,0.4331009089946747,-0.6675975322723389,0.5096712112426758
1761315937946840300,5.79384033203125,1.1748759746551514,0.698704183101654,-0.3900300860404968
1761315937965762600,5.812762451171875,1.7778671979904175,0.8566305041313171,-0.5694918036460876
1761315937984684800,5.831684814453125,2.0961127281188965,0.5647061467170715,-0.6747759580612183
1761315938003607000,5.85060693359375,3.0101709365844727,0.6149554252624512,-1.1198409795761108
1761315938022529300,5.869529296875,4.890929698944092,-0.11246266216039658,-1.674975872039795
1761315938041451500,5.888451416015625,4.515256404876709,-1.5960127115249634,-0.7034898400306702
1761315938060373800,5.907373779296875,2.1032910346984863,-2.038684844970703,-0.4043870270252228
1761315938079296000,5.9262958984375,1.3399807214736938,-2.0099709033966064,-0.5120640397071838
1761315938098218200,5.94521826171875,0.13160525262355804,-1.3567304611206055,-0.6005984544754028
1761315938117140500,5.964140380859375,-0.30149564146995544,-1.1629117727279663,-1.0097711086273193
1761315938136063000,5.98306298828125,-0.01196411345154047,-0.849452018737793,-0.6699903607368469
1761315938154985200,6.001985107421875,-0.08135596662759781,-0.794417142868042,0.24167509377002716
1761315938173907500,6.020907470703125,0.1986042857170105,-1.1676974296569824,0.4785645306110382
1761315938192829700,6.03982958984375,9.982855796813965,-3.730410575866699,1.2658032178878784
1761315938211752000,6.058751953125,12.622138977050781,-11.047661781311035,3.9457645416259766
1761315938230674200,6.077674072265625,1.856830358505249,-20.262422561645508,9.05444049835205
1761315938249596400,6.096596435546875,1.2562319040298462,-31.779077529907227,2.2683959007263184
1761315938268518700,6.1155185546875,-2.2636101245880127,-34.14558029174805,0.6532405614852905
1761315938287441000,6.13444091796875,4.027120590209961,-18.625730514526367,0.638883650302887
1761315938306363100,6.153363037109375,7.877171993255615,-18.369699478149414,8.118846893310547
1761315938325285400,6.172285400390625,10.679167747497559,-24.7824649810791,13.15813159942627
1761315938344207600,6.19120751953125,8.042277336120605,-26.66800880432129,7.611568927764893
1761315938363129900,6.2101298828125,4.687539577484131,-23.023738861083984,3.9864425659179688
1761315938382052000,6.229052001953125,2.531606435775757,-19.917856216430664,4.2209391593933105
1761315938400974300,6.247974365234375,1.5242279767990112,-16.599010467529297,4.701896667480469
1761315938419896800,6.266896728515625,0.2799602448940277,-11.992827415466309,4.60857629776001
1761315938438819000,6.285819091796875,0.11485548317432404,-7.11146879196167,3.6681971549987793
1761315938457741300,6.3047412109375,0.33738797903060913,-2.720639228820801,1.4739787578582764
1761315938476663600,6.32366357421875,-0.059820566326379776,-0.5670989751815796,-0.3924229145050049
1761315938495585800,6.342585693359375,0.8015955686569214,0.42831525206565857,-1.1629117727279663
1761315938514508000,6.361508056640625,2.062613010406494,0.47617170214653015,-1.0504491329193115
1761315938533430300,6.38043017578125,2.139183521270752,0.15074782073497772,-0.9068797826766968
1761315938552352500,6.3993525390625,2.6368906497955322,-0.35413774847984314,-1.454836130142212
1761315938571274800,6.418274658203125,6.7070817947387695,-2.029113531112671,-2.163111686706543
1761315938590197000,6.437197021484375,8.666803359985352,-3.5988051891326904,-0.6915257573127747
1761315938609119200,6.456119140625,5.221138954162598,-2.847458839416504,-0.3445664644241333
1761315938628041500,6.47504150390625,2.1439690589904785,-1.4572290182113647,0.0526420995593071
1761315938646963700,6.493963623046875,-0.14356936514377594,-0.7369893789291382,0.14356936514377594
1761315938665886000,6.512885986328125,-1.5649060010910034,-0.4378865361213684,0.43549370765686035
1761315938684808400,6.531808349609375,-4.01754903793335,-0.26081767678260803,0.8111668825149536
1761315938703730700,6.550730712890625,-4.153940200805664,-0.5647061467170715,0.916451096534729
1761315938722653000,6.56965283203125,-3.5581271648406982,-1.2418749332427979,1.5290136337280273
1761315938741575200,6.5885751953125,-3.4672000408172607,-2.3234307765960693,1.1150553226470947
1761315938760497400,6.607497314453125,-2.768495798110962,-4.979464054107666,2.581855535507202
1761315938779419600,6.626419677734375,21.169301986694336,-19.377077102661133,8.97787094116211
1761315938798342000,6.645341796875,9.499505996704102,-36.26801300048828,10.045069694519043
1761315938817264000,6.66426416015625,-0.04546362906694412,-34.47578811645508,1.306481122970581
1761315938836186400,6.683186279296875,8.556734085083008,-20.611774444580078,-0.11724831163883209
1761315938855108600,6.702108642578125,12.42832088470459,-28.405197143554688,7.247859954833984
1761315938874030800,6.72103076171875,2.8905298709869385,-24.74178695678711,3.0245277881622314
1761315938892953000,6.739953125,1.5936198234558105,-20.702701568603516,5.2977094650268555
1761315938911875300,6.758875244140625,1.7228323221206665,-18.750158309936523,7.477570533752441
1761315938930797600,6.777797607421875,2.431107759475708,-18.326627731323242,8.149953842163086
1761315938949719800,6.7967197265625,2.56510591506958,-15.534204483032227,6.135197162628174
1761315938968642000,6.81564208984375,2.5363919734954834,-10.64088249206543,3.3236305713653564
1761315938987564300,6.834564208984375,1.3591232299804688,-5.998806476593018,1.8807586431503296
1761315939006486500,6.853486572265625,0.9595218896865845,-2.9048867225646973,1.1892328262329102
1761315939025409000,6.872408935546875,1.3040883541107178,-0.5599204897880554,-0.2871387302875519
1761315939044331300,6.891331298828125,2.517249345779419,0.4785645306110382,-1.2083754539489746
1761315939063253500,6.91025341796875,4.666004180908203,1.0217353105545044,-2.423929452896118
1761315939082175700,6.92917578125,7.499105930328369,0.4570291340351105,-4.599005222320557
1761315939101098000,6.948097900390625,4.235296249389648,-1.7467604875564575,-2.830709218978882
1761315939120020200,6.967020263671875,1.3710874319076538,-2.3401806354522705,-0.97148597240448
1761315939138942500,6.9859423828125,0.1052841991186142,-2.0817556381225586,0.31824541091918945
1761315939157864700,7.00486474609375,-1.1318050622940063,-1.2179467678070068,2.392822742462158
1761315939176787000,7.023786865234375,-1.7012969255447388,-1.1413763761520386,2.5052852630615234
1761315939195709200,7.042709228515625,-0.9643075466156006,-0.729810893535614,0.8087740540504456
1761315939214631400,7.06163134765625,2.761317253112793,0.04546362906694412,2.3569302558898926
1761315939233553700,7.0805537109375,6.010770320892334,-1.552941918373108,2.4598217010498047
1761315939252476000,7.099475830078125,3.2279176712036133,-2.414358139038086,1.9357935190200806
1761315939271398100,7.118398193359375,1.8783657550811768,-2.823530673980713,0.5335994362831116
1761315939290320400,7.1373203125,-0.23210379481315613,-5.113461971282959,2.084148406982422
1761315939309242600,7.15624267578125,0.6364908218383789,-7.6498541831970215,3.955335855484009
1761315939328164900,7.175164794921875,18.525232315063477,-20.145174026489258,10.461421012878418
1761315939347087400,7.19408740234375,1.2299108505249023,-31.343584060668945,7.04925537109375
1761315939366009600,7.213009521484375,4.914857864379883,-28.455446243286133,3.9385859966278076
1761315939384931800,7.231931884765625,10.336994171142578,-17.503498077392578,1.8855443000793457
1761315939403854000,7.25085400390625,9.954142570495605,-21.939790725708008,10.095318794250488
1761315939422776300,7.2697763671875,6.405586242675781,-21.097517013549805,6.843472957611084
1761315939441698600,7.288698486328125,5.812166213989258,-20.4897403717041,6.551548480987549
1761315939460620800,7.307620849609375,3.957728624343872,-19.95135498046875,5.371886730194092
1761315939479543000,7.32654296875,2.266003131866455,-18.91765594482422,3.955335855484009
1761315939498465300,7.34546533203125,1.3160524368286133,-17.00339698791504,3.297309637069702
1761315939517387500,7.364387451171875,1.1461620330810547,-12.349357604980469,1.9932212829589844
1761315939536309800,7.383309814453125,0.8949156403541565,-7.5086774826049805,1.4165509939193726
1761315939555232000,7.40223193359375,-0.08135596662759781,-3.4552359580993652,1.9645073413848877
1761315939574154200,7.421154296875,0.1986042857170105,-0.7704889178276062,0.7824530005455017
1761315939593076500,7.440076416015625,1.7515461444854736,0.3086741268634796,-0.04785645380616188
1761315939611998700,7.458998779296875,2.6488547325134277,0.5599204897880554,-0.7537391185760498
1761315939630921000,7.4779208984375,3.8117663860321045,0.5790630578994751,-1.3567304611206055
1761315939649843200,7.49684326171875,5.714060306549072,-0.8111668825149536,-0.519242525100708
1761315939668765400,7.515765380859375,4.886143684387207,-2.799602508544922,1.3280165195465088
1761315939687687700,7.534687744140625,3.4791641235351562,-3.500699520111084,1.6510475873947144
1761315939706610000,7.55360986328125,2.5603201389312744,-2.794816732406616,1.2035897970199585
1761315939725532400,7.572532470703125,1.5314065217971802,-0.8733802437782288,0.5407779216766357
1761315939744454700,7.59145458984375,-0.1818545162677765,0.02153540402650833,0.47617170214653015
1761315939763377000,7.610376953125,-1.4021940231323242,-0.009571290574967861,-0.009571290574967861
1761315939782299100,7.629299072265625,-1.8305093050003052,0.20338992774486542,-1.947757601737976
1761315939801221400,7.648221435546875,-0.4498506486415863,-0.5407779216766357,-1.7395820617675781
1761315939820143600,7.6671435546875,0.7752745151519775,-2.076970100402832,-0.5982056856155396
1761315939839065900,7.68606591796875,8.312665939331055,-5.563312530517578,-1.00259268283844
1761315939857988000,7.704988037109375,3.0795626640319824,-11.85165023803711,2.313859462738037
1761315939876910300,7.723910400390625,9.745966911315918,-25.107887268066406,7.267002582550049
1761315939895832600,7.74283251953125,4.823930263519287,-39.62274932861328,4.335794448852539
1761315939914754800,7.7617548828125,3.9936211109161377,-23.624338150024414,-4.436293125152588
1761315939933677000,7.780677001953125,5.685346603393555,-15.101103782653809,5.335994720458984
1761315939952599300,7.799599365234375,7.788637638092041,-21.028125762939453,16.25922966003418
1761315939971521500,7.818521484375,5.565705299377441,-22.016361236572266,10.243673324584961
1761315939990443800,7.83744384765625,5.735595703125,-22.84188461303711,4.716253280639648
1761315940009366000,7.856365966796875,4.4961137771606445,-22.253250122070312,1.5696916580200195
1761315940028288300,7.875288330078125,2.2851455211639404,-19.5278263092041,1.8592232465744019
1761315940047210500,7.89421044921875,1.8640087842941284,-16.627723693847656,2.730210542678833
1761315940066132700,7.9131328125,2.9455647468566895,-12.42832088470459,2.7110681533813477
1761315940085055200,7.93205517578125,1.9860427379608154,-7.520641803741455,2.801995277404785
1761315940103977500,7.9509775390625,0.8757730722427368,-3.5988051891326904,2.1607189178466797
1761315940122899700,7.969899658203125,0.1746760457754135,-1.057627558708191,1.2323036193847656
1761315940141822000,7.988822021484375,1.5194423198699951,-0.11724831163883209,0.7082754969596863
1761315940160744200,8.007744140625,2.4095723628997803,0.05503492057323456,-0.8327022790908813
1761315940179666400,8.02666650390625,3.022135019302368,0.004785645287483931,-1.5433706045150757
1761315940198588700,8.045588623046875,4.7473602294921875,0.20099709928035736,-1.7730815410614014
1761315940217511000,8.064510986328125,4.778466701507568,-1.2275179624557495,-0.33020952343940735
1761315940236433200,8.08343310546875,3.067598581314087,-2.431107759475708,0.6125625967979431
1761315940255355400,8.10235546875,2.431107759475708,-2.548356056213379,1.3399807214736938
1761315940274277600,8.121277587890624,3.510270833969116,-2.00518536567688,1.7371892929077148
1761315940293200000,8.140199951171875,3.428914785385132,-1.2562319040298462,1.7922241687774658
1761315940312122000,8.1591220703125,1.8807586431503296,-0.6364908218383789,0.7417750358581543
1761315940331044400,8.17804443359375,-1.1389836072921753,0.1818545162677765,-0.5742774605751038
1761315940349966600,8.196966552734375,-5.127819061279297,0.6101697683334351,-1.7515461444854736
1761315940368888800,8.215888916015626,-3.2207393646240234,-1.6869399547576904,-0.6867401003837585
1761315940387811000,8.23481103515625,-1.2203395366668701,-3.665804386138916,0.8398807644844055
1761315940406733300,8.2537333984375,11.794222831726074,-11.258230209350586,7.223931789398193
1761315940425655800,8.27265576171875,3.460021495819092,-22.571495056152344,3.82373046875
1761315940444578000,8.291578125,10.28195858001709,-44.77688980102539,0.9523434042930603
1761315940463500300,8.310500244140625,3.9457645416259766,-27.558137893676758,-5.13021183013916
1761315940482422500,8.329422607421876,7.238288402557373,-22.231714248657227,9.42772102355957
1761315940501344800,8.3483447265625,5.570491313934326,-24.466611862182617,15.28774356842041
1761315940520267000,8.36726708984375,3.9672999382019043,-23.14816665649414,11.093125343322754
1761315940539189200,8.386189208984375,4.419543266296387,-22.310678482055664,6.936792850494385
1761315940558111500,8.405111572265625,3.7495529651641846,-21.19562339782715,3.6466617584228516
1761315940577033700,8.42403369140625,1.1653046607971191,-18.348163604736328,1.5625132322311401
1761315940595956000,8.4429560546875,0.19381862878799438,-12.425928115844727,0.35413774847984314
1761315940614878200,8.461878173828126,1.4572290182113647,-7.10429048538208,0.6580262184143066
1761315940633800400,8.480800537109374,1.3663017749786377,-3.565305709838867,0.7417750358581543
1761315940652722700,8.49972265625,0.5455635786056519,-1.0241280794143677,0.9355936646461487
1761315940671645000,8.51864501953125,1.337587833404541,0.35413774847984314,0.605384111404419
1761315940690567200,8.537567138671875,2.7278177738189697,0.8015955686569214,-0.15314064919948578
1761315940709489400,8.556489501953125,3.7328033447265625,1.0121639966964722,-0.8949156403541565
1761315940728411600,8.57541162109375,4.42193603515625,0.5383850932121277,-1.1509476900100708
1761315940747334000,8.594333984375,4.95074987411499,-1.222732424736023,0.3326023519039154
1761315940766256000,8.613256103515624,3.862015724182129,-1.9621145725250244,0.6795616149902344
1761315940785178600,8.6321787109375,3.3643085956573486,-2.0961127281188965,0.05503492057323456
1761315940804100900,8.651100830078125,1.7443677186965942,-1.5026925802230835,-0.46420758962631226
1761315940823023000,8.670023193359375,-0.2225325107574463,-1.3232308626174927,-0.5120640397071838
1761315940841945300,8.6889453125,-2.548356056213379,-1.0217353105545044,-1.8855443000793457
1761315940860867600,8.70786767578125,-0.914058268070221,-0.7728816866874695,-1.057627558708191
1761315940879789800,8.726789794921874,0.4259224236011505,-0.35413774847984314,0.19142581522464752
1761315940898712000,8.745712158203125,-0.12921242415905,-0.885344386100769,0.7441678643226624
1761315940917634300,8.76463427734375,4.752145767211914,-2.531606435775757,2.6799614429473877
1761315940936556500,8.783556640625,-1.797009825706482,-4.488935470581055,3.704089403152466
1761315940955478800,8.802478759765625,1.8352949619293213,-7.302894592285156,2.5914268493652344
1761315940974401000,8.821401123046876,13.320843696594238,-31.345975875854492,9.765109062194824
1761315940993323300,8.8403232421875,11.736795425415039,-49.22514724731445,5.613562107086182
1761315941012245500,8.85924560546875,3.634697675704956,-24.122045516967773,-1.7395820617675781
1761315941031167700,8.878167724609375,7.0755767822265625,-20.87019920349121,13.445270538330078
1761315941050090000,8.897090087890625,4.922036170959473,-19.90828514099121,10.750951766967773
1761315941069012200,8.91601220703125,5.733202934265137,-23.09313201904297,6.745367050170898
1761315941087934500,8.9349345703125,4.517649173736572,-24.361328125,3.94097900390625
1761315941106856700,8.953856689453126,3.1034910678863525,-21.81775665283203,1.7730815410614014
1761315941125779000,8.972779052734374,1.5936198234558105,-17.613567352294922,1.648654818534851
1761315941144701400,8.991701416015625,0.2847459018230438,-11.7056884765625,2.1415762901306152
1761315941163623700,9.010623779296875,0.3278166949748993,-6.288337707519531,2.9599215984344482
1761315941182546000,9.0295458984375,0.5670989751815796,-3.2279176712036133,3.1034910678863525
1761315941201468200,9.04846826171875,1.0552347898483276,-1.4261223077774048,2.6560330390930176
1761315941220390400,9.067390380859376,1.5002998113632202,0.2153540402650833,1.674975872039795
1761315941239312600,9.086312744140624,2.313859462738037,0.7345965504646301,1.2705888748168945
1761315941258235000,9.10523486328125,5.690132141113281,0.7704889178276062,0.849452018737793
1761315941277157000,9.1241572265625,5.9916276931762695,-1.4979069232940674,1.454836130142212
1761315941296079400,9.143079345703125,4.1730828285217285,-2.3090739250183105,1.6103696823120117
1761315941315001600,9.162001708984375,2.196611166000366,-1.852044701576233,0.9403793215751648
1761315941333923800,9.180923828125,1.1198409795761108,-0.8925228714942932,0.5527420043945312
1761315941352846000,9.19984619140625,0.672383189201355,-0.2392822653055191,0.45224347710609436
1761315941371768300,9.218768310546874,-1.1676974296569824,-0.1052841991186142,-0.9810572862625122
1761315941390690600,9.237690673828125,-1.124626636505127,-1.031306505203247,-1.8616160154342651
1761315941409612800,9.25661279296875,-0.4737788736820221,-1.25144624710083,-2.524427890777588
1761315941428535000,9.27553515625,0.5048855543136597,-1.0169496536254883,-2.3808584213256836
1761315941447457300,9.294457275390625,2.225325107574463,-1.3184453248977661,-2.1774685382843018
1761315941466379500,9.313379638671876,6.20219612121582,-3.1274192333221436,-2.4406790733337402
1761315941485302000,9.332302001953124,4.106083869934082,-7.609176158905029,0.2392822653055191
1761315941504224300,9.351224365234375,-4.086941242218018,-8.090133666992188,2.0985054969787598
1761315941523146200,9.370146240234375,7.408178806304932,-18.379270553588867,4.374079704284668
1761315941542068700,9.38906884765625,4.656432628631592,-41.51786422729492,11.066804885864258
1761315941560991000,9.407990966796875,1.129412293434143,-29.546573638916016,0.973878800868988
1761315941579913200,9.426913330078126,2.715853691101074,-17.087146759033203,5.60399055480957
1761315941598835500,9.44583544921875,5.986842155456543,-22.640888214111328,15.25903034210205
1761315941617757700,9.4647578125,8.46580696105957,-24.897319793701172,11.330015182495117
1761315941636680000,9.483679931640625,6.809973239898682,-25.74677085876465,5.434100151062012
1761315941655602200,9.502602294921875,3.862015724182129,-23.217557907104492,3.352344512939453
1761315941674524400,9.5215244140625,1.9669002294540405,-17.833707809448242,2.4119651317596436
1761315941693446700,9.54044677734375,0.9499505758285522,-12.727423667907715,3.074777126312256
1761315941712369000,9.559368896484376,0.23449662327766418,-7.63310432434082,3.5509488582611084
1761315941731291100,9.578291015625,1.2586246728897095,-4.048655986785889,2.1822543144226074
1761315941750213400,9.59721337890625,1.129412293434143,-2.060220241546631,0.9403793215751648
1761315941769135600,9.616135498046875,1.5194423198699951,-0.4570291340351105,-0.02871387079358101
1761315941788057900,9.635057861328125,1.7874385118484497,0.10049854964017868,-0.23449662327766418
1761315941806980000,9.65397998046875,2.376072883605957,0.37088751792907715,-0.5886343717575073
1761315941825902300,9.67290234375,5.249852657318115,0.7800601720809937,0.1339980661869049
1761315941844824600,9.691824462890626,6.620940208435059,-1.0911271572113037,0.6484549641609192
1761315941863746800,9.710746826171874,5.333601474761963,-2.2923240661621094,0.6101697683334351
1761315941882669000,9.7296689453125,3.5748770236968994,-2.249253273010254,-0.6652047038078308
1761315941901591300,9.74859130859375,-0.5312066078186035,-2.0673987865448,-0.9930213689804077
1761315941920513800,9.767513671875,-2.991028308868408,-1.2394821643829346,-1.4380863904953003
1761315941939436000,9.78643603515625,-2.196611166000366,-1.0193424224853516,-1.550549030303955
1761315941958358300,9.805358154296876,-0.638883650302887,-0.1986042857170105,-1.801795482635498
1761315941977280500,9.824280517578124,-0.7178468108177185,0.13160525262355804,-1.1030912399291992
1761315941996202800,9.84320263671875,-0.973878800868988,0.009571290574967861,0.34695929288864136
1761315942015125000,9.862125,-0.26081767678260803,-0.7585247755050659,1.246660590171814
1761315942034047200,9.881047119140625,7.0061845779418945,-4.960321426391602,3.924229145050049
1761315942052969500,9.899969482421875,1.8759729862213135,-10.480563163757324,4.063013076782227
1761315942071891700,9.9188916015625,8.520841598510742,-26.974288940429688,5.0943193435668945
1761315942090814000,9.93781396484375,6.343372821807861,-36.75375747680664,3.8333017826080322
1761315942109736200,9.956736083984374,1.2323036193847656,-28.895727157592773,-3.4025938510894775
1761315942128658400,9.975658447265625,10.188638687133789,-28.692337036132812,8.575876235961914
1761315942147580700,9.99458056640625,8.50169849395752,-25.095924377441406,15.18724536895752
1761315942166503000,10.0135029296875,7.063612461090088,-21.796220779418945,15.218352317810059
1761315942185425200,10.032425048828125,4.453042984008789,-23.509483337402344,9.396614074707031
1761315942204347400,10.051347412109376,2.462214469909668,-23.636302947998047,3.627519130706787
1761315942223269600,10.07026953125,0.7752745151519775,-19.714466094970703,-0.2727817893028259
1761315942242192000,10.08919189453125,-0.44027936458587646,-12.799208641052246,-0.2799602448940277
1761315942261114000,10.108114013671875,0.3158525824546814,-7.176074981689453,-0.3038884699344635
1761315942280036400,10.127036376953125,0.698704183101654,-3.6993038654327393,-0.35413774847984314
1761315942298958600,10.14595849609375,0.30149564146995544,-1.2131611108779907,-0.2991028428077698
1761315942317881000,10.164881103515626,1.210768222808838,0.397208571434021,-0.46420758962631226
1761315942336803300,10.18380322265625,3.4480574131011963,0.8350951075553894,-1.1365907192230225
1761315942355725600,10.2027255859375,4.797609329223633,0.4498506486415863,-1.423729419708252
1761315942374647800,10.221647705078125,6.032305717468262,-0.7561319470405579,-1.430907964706421
1761315942393570000,10.240570068359375,3.895515203475952,-1.3208380937576294,0.1698904037475586
1761315942412492300,10.2594921875,0.45224347710609436,-0.6484549641609192,0.380458801984787
1761315942431414500,10.27841455078125,-2.7732813358306885,0.20338992774486542,0.3445664644241333
1761315942450336800,10.297336669921876,-2.5914268493652344,0.5335994362831116,0.8614161610603333
1761315942469259000,10.316259033203124,-1.2131611108779907,0.275174617767334,0.8422735929489136
1761315942488181200,10.33518115234375,-1.5194423198699951,-0.7872386574745178,0.8542376756668091
1761315942507103500,10.354103515625,-1.0265209674835205,-1.2538390159606934,0.641276478767395
1761315942526025700,10.373025634765625,0.24167509377002716,-1.4141582250595093,0.6867401003837585
1761315942544948000,10.391947998046875,5.61116886138916,-1.9836499691009521,0.4450650215148926
1761315942563870200,10.4108701171875,7.5086774826049805,-2.967100143432617,0.35892340540885925
1761315942582792400,10.42979248046875,12.174681663513184,-5.089533805847168,-1.3758729696273804
1761315942601714700,10.448714599609374,5.769095420837402,-10.059426307678223,-3.3786656856536865
1761315942620637000,10.467636962890625,-7.106683254241943,-9.686145782470703,-2.287538528442383
1761315942639559200,10.48655908203125,5.955735683441162,-29.470003128051758,0.0933200865983963
1761315942658481400,10.5054814453125,5.84566593170166,-51.94339370727539,13.024133682250977
1761315942677403600,10.524403564453126,3.460021495819092,-25.77309226989746,1.4261223077774048
1761315942696326100,10.543326171875,9.339186668395996,-24.356542587280273,15.232708930969238
1761315942715248400,10.562248291015624,7.513463020324707,-23.751157760620117,14.82832145690918
1761315942734170600,10.581170654296875,6.297909259796143,-23.5980167388916,9.667003631591797
1761315942753092900,10.6000927734375,3.0723843574523926,-23.157737731933594,4.40757942199707
1761315942772015000,10.61901513671875,3.366701364517212,-19.829320907592773,1.2705888748168945
1761315942790937300,10.637937255859375,2.383251428604126,-14.292329788208008,0.4953143000602722
1761315942809859600,10.656859619140626,0.4259224236011505,-7.846065521240234,0.380458801984787
1761315942828781800,10.67578173828125,-0.397208571434021,-4.175475597381592,0.2584248483181
1761315942847704000,10.6947041015625,-0.397208571434021,-1.3280165195465088,-0.11964113265275955
1761315942866626300,10.713626220703125,0.5048855543136597,0.11006984114646912,-0.2153540402650833
1761315942885548500,10.732548583984375,1.7204394340515137,0.36610186100006104,-0.3613162338733673
1761315942904470800,10.751470703125,2.888136863708496,0.641276478767395,-0.8614161610603333
1761315942923393000,10.77039306640625,4.981856822967529,1.1174482107162476,-1.797009825706482
1761315942942315300,10.789315185546876,4.015156269073486,0.4259224236011505,-2.1367905139923096
1761315942961237500,10.808237548828124,0.23210379481315613,-0.39960137009620667,-1.332802176475525
1761315942980159700,10.82715966796875,-2.012363910675049,-0.576670229434967,-0.1579262912273407
1761315942999082000,10.84608203125,-1.978864312171936,-0.5742774605751038,0.5982056856155396
1761315943018004200,10.865004150390625,-0.8350951075553894,-0.8877372145652771,1.0360921621322632
1761315943036926500,10.883926513671875,-0.31345975399017334,-1.6941183805465698,1.2011969089508057
1761315943055848700,10.9028486328125,0.6317051649093628,-2.210968017578125,1.399801254272461
1761315943074771000,10.92177099609375,2.5938198566436768,-1.490728497505188,0.7680960893630981
1761315943093693200,10.940693115234374,2.5052852630615234,-1.3806586265563965,0.48813581466674805
1761315943112615400,10.959615478515625,13.636695861816406,-4.058227062225342,2.0673987865448
1761315943131538000,10.978537841796875,12.703495025634766,-12.19382381439209,5.343173027038574
1761315943150460200,10.997460205078125,-4.48414945602417,-17.001005172729492,-0.11246266216039658
1761315943169382400,11.01638232421875,5.876772403717041,-27.314069747924805,-3.5126636028289795
1761315943188304600,11.0353046875,4.67078971862793,-42.32664108276367,1.730010747909546
1761315943207227000,11.054226806640624,6.034698486328125,-20.472990036010742,-2.4598217010498047
1761315943226149000,11.073149169921875,2.2157537937164307,-11.382657051086426,7.070790767669678
1761315943245071400,11.0920712890625,3.775874137878418,-7.405786037445068,11.93061351776123
1761315943263993600,11.11099365234375,2.280359983444214,-6.8865437507629395,11.267802238464355
1761315943282915800,11.129915771484375,3.9625144004821777,-10.468599319458008,10.112068176269531
1761315943301838000,11.148838134765626,4.498506546020508,-13.383056640625,4.122833251953125
1761315943320760300,11.16776025390625,3.7328033447265625,-15.117853164672852,-1.0504491329193115
1761315943339682600,11.1866826171875,3.208775281906128,-15.349957466125488,-3.38105845451355
1761315943358604800,11.205604736328125,2.9048867225646973,-11.693724632263184,-1.155733346939087
1761315943377527000,11.224527099609375,2.447857618331909,-8.621339797973633,1.8855443000793457
1761315943396449300,11.24344921875,1.2442678213119507,-6.953542709350586,3.014956474304199
1761315943415371500,11.26237158203125,1.430907964706421,-6.252445697784424,3.4791641235351562
1761315943434293800,11.281293701171874,1.1318050622940063,-6.216553211212158,3.1800613403320312
1761315943453216000,11.300216064453124,1.3519448041915894,-7.2095746994018555,3.5748770236968994
1761315943472138200,11.31913818359375,2.967100143432617,-8.042277336120605,2.478964328765869
1761315943491060500,11.338060546875,2.6464617252349854,-8.276773452758789,2.352144718170166
1761315943509982700,11.356982666015625,4.211368083953857,-8.523234367370605,-0.48095735907554626
1761315943528905000,11.375905029296876,3.548556089401245,-7.348358154296875,-1.6510475873947144
1761315943547827200,11.3948271484375,4.043870449066162,-8.188239097595215,-0.9068797826766968
1761315943566749400,11.41374951171875,4.051048755645752,-10.097711563110352,1.210768222808838
1761315943585672000,11.432671875,5.307280540466309,-10.420742988586426,2.289931297302246
1761315943604594200,11.45159423828125,5.041677474975586,-9.284152030944824,3.297309637069702
1761315943623516400,11.470516357421875,3.486342668533325,-8.846264839172363,2.4741785526275635
1761315943642438700,11.489438720703125,3.4576287269592285,-8.745766639709473,3.3954153060913086
1761315943661361000,11.50836083984375,1.9884356260299683,-10.468599319458008,5.26899528503418
1761315943680283100,11.527283203125,1.552941918373108,-10.72702407836914,2.014756679534912
1761315943699205400,11.546205322265624,3.266202926635742,-9.719645500183105,2.100898265838623
1761315943718127600,11.565127685546875,5.26899528503418,-6.8171515464782715,-0.07417750358581543
1761315943737049900,11.5840498046875,2.500499725341797,-9.145368576049805,0.42352959513664246
1761315943755972000,11.60297216796875,0.7178468108177185,-11.251051902770996,2.3976082801818848
1761315943774894300,11.621894287109376,0.24406790733337402,-10.401599884033203,3.768695592880249
1761315943793816600,11.640816650390626,3.428914785385132,-9.547362327575684,2.723032236099243
1761315943812738800,11.65973876953125,3.3619158267974854,-9.80100154876709,2.2205393314361572
1761315943831661000,11.6786611328125,3.0484559535980225,-9.477970123291016,1.8951154947280884
1761315943850583300,11.697583251953125,2.478964328765869,-9.573683738708496,3.2781670093536377
1761315943869505500,11.716505615234375,1.97407865524292,-9.059226989746094,3.2781670093536377
1761315943888427800,11.735427734375,2.8354947566986084,-9.422935485839844,2.1583259105682373
1761315943907350000,11.75435009765625,3.1896326541900635,-8.944371223449707,1.0719845294952393
1761315943926272300,11.773272216796874,1.8544375896453857,-9.741181373596191,1.6606189012527466
1761315943945194500,11.792194580078124,1.9214365482330322,-9.91107177734375,2.5459632873535156
1761315943964116700,11.81111669921875,1.5026925802230835,-9.803394317626953,2.823530673980713
1761315943983039000,11.8300390625,1.2299108505249023,-9.638289451599121,1.8951154947280884
1761315944001961500,11.84896142578125,0.9332008361816406,-8.142775535583496,1.4811571836471558
1761315944020883700,11.8678837890625,0.7513462901115417,-7.829315662384033,0.638883650302887
1761315944039806000,11.886805908203126,1.5098711252212524,-8.740981101989746,0.22971096634864807
1761315944058728200,11.905728271484374,2.218146562576294,-10.12881851196289,0.6867401003837585
1761315944077650400,11.924650390625,2.3880369663238525,-10.62413215637207,1.1198409795761108
1761315944096572700,11.94357275390625,2.2707886695861816,-9.872786521911621,1.373480200767517
1761315944115495000,11.962494873046875,0.9523434042930603,-9.504291534423828,2.4191436767578125
1761315944134417200,11.981417236328125,1.6869399547576904,-9.903892517089844,1.9621145725250244
1761315944153339400,12.00033935546875,1.8376877307891846,-10.02592658996582,1.4333007335662842
1761315944172261600,12.01926171875,2.0315065383911133,-9.497113227844238,1.7874385118484497
1761315944191184000,12.038183837890625,2.715853691101074,-9.300901412963867,2.2779672145843506
1761315944210106000,12.057106201171875,2.1056840419769287,-9.31047248840332,1.8041882514953613
1761315944229028400,12.0760283203125,1.5026925802230835,-9.226723670959473,0.914058268070221
1761315944247950600,12.09495068359375,1.3088740110397339,-8.37966537475586,2.5387847423553467
1761315944266872800,12.113872802734376,-1.0719845294952393,-9.439684867858887,1.0097711086273193
1761315944285795000,12.132795166015624,1.5314065217971802,-10.116853713989258,0.8279166221618652
1761315944304717300,12.15171728515625,2.7589244842529297,-10.327422142028809,0.019142581149935722
1761315944323639600,12.1706396484375,2.486142635345459,-9.78664493560791,-0.6867401003837585
1761315944342561800,12.189561767578125,4.07258415222168,-10.04985523223877,-0.9499505758285522
1761315944361484000,12.208484130859375,0.3086741268634796,-9.8871431350708,1.1772687435150146
1761315944380406300,12.22740625,1.97407865524292,-11.279766082763672,0.9643075466156006
1761315944399328500,12.24632861328125,1.5864413976669312,-10.729416847229004,0.7848458290100098
1761315944418251000,12.2652509765625,1.2921242713928223,-9.116654396057129,0.4211367964744568
1761315944437173200,12.28417333984375,1.0145567655563354,-9.214759826660156,0.8709874153137207
1761315944456095500,12.303095458984375,1.0839486122131348,-9.42054271697998,1.8137595653533936
1761315944475017700,12.322017822265625,1.9956140518188477,-9.67657470703125,1.978864312171936
1761315944493940000,12.34093994140625,2.115255117416382,-8.202595710754395,1.1198409795761108
1761315944512862200,12.3598623046875,1.3160524368286133,-11.006983757019043,-0.38763725757598877
1761315944531784400,12.378784423828124,1.8616160154342651,-10.171889305114746,1.3543375730514526
1761315944550706700,12.397706787109374,1.6295121908187866,-10.047462463378906,1.4931213855743408
1761315944569629000,12.41662890625,1.911865234375,-10.078569412231445,1.2179467678070068
1761315944588551200,12.43555126953125,2.251646041870117,-10.403992652893066,1.2705888748168945
1761315944607473400,12.454473388671875,2.0482561588287354,-10.02592658996582,1.2251251935958862
1761315944626395600,12.473395751953126,1.4141582250595093,-9.068798065185547,0.4211367964744568
1761315944645318000,12.49231787109375,1.4333007335662842,-9.346364974975586,-0.07178468257188797
1761315944664240000,12.511240234375,1.28255295753479,-9.269794464111328,0.3397808074951172
1761315944683162400,12.530162353515625,1.9357935190200806,-10.942378044128418,0.6771687865257263
1761315944702084600,12.549084716796875,2.4502503871917725,-9.774680137634277,0.8566305041313171
1761315944721006800,12.5680068359375,2.6536402702331543,-9.647860527038574,0.1579262912273407
1761315944739929000,12.58692919921875,2.909672260284424,-10.095318794250488,0.1986042857170105
1761315944758851300,12.605851318359376,2.5986053943634033,-9.67657470703125,-0.6436693072319031
1761315944777773600,12.624773681640624,2.864208698272705,-8.901300430297852,-1.2011969089508057
1761315944796695800,12.64369580078125,2.6009981632232666,-10.13599681854248,-0.916451096534729
1761315944815618300,12.662618408203125,2.6871397495269775,-9.497113227844238,-0.8566305041313171
1761315944834540500,12.68154052734375,2.6775684356689453,-9.626325607299805,-0.19621145725250244
1761315944853462800,12.700462890625,2.7732813358306885,-9.456435203552246,-0.9188438653945923
1761315944872385000,12.719385009765626,2.5986053943634033,-9.08554744720459,-1.612762451171875
1761315944891307300,12.738307373046876,2.6775684356689453,-9.34875774383545,-1.8735800981521606
1761315944910229500,12.7572294921875,2.210968017578125,-9.915857315063477,-2.4717857837677
1761315944929151700,12.77615185546875,2.2157537937164307,-9.535398483276367,-2.218146562576294
1761315944948074000,12.795073974609375,2.6177480220794678,-9.487542152404785,-0.8638089895248413
1761315944966996200,12.813996337890625,2.8905298709869385,-10.021141052246094,-0.20099709928035736
1761315944985918500,12.83291845703125,2.9216363430023193,-8.803194046020508,-1.2179467678070068
1761315945004840700,12.8518408203125,3.046063184738159,-8.987442016601562,-2.108076810836792
1761315945023763000,12.870762939453124,2.837887763977051,-9.360722541809082,-2.940778970718384
1761315945042685200,12.889685302734375,2.8498518466949463,-9.33440113067627,-2.6057839393615723
1761315945061607400,12.908607421875,3.266202926635742,-9.66221809387207,-1.9836499691009521
1761315945080529700,12.92752978515625,3.933800458908081,-9.990034103393555,-1.6845471858978271
1761315945099452000,12.946451904296875,3.656233072280884,-9.190832138061523,-2.2157537937164307
1761315945118374100,12.9653740234375,3.610769271850586,-9.734002113342285,-3.014956474304199
1761315945137296400,12.98429638671875,3.4480574131011963,-10.822736740112305,-2.3545374870300293
1761315945156218600,13.003218505859374,3.7471601963043213,-10.210174560546875,-1.5433706045150757
1761315945175140900,13.022140869140625,3.517449378967285,-9.803394317626953,-1.8065811395645142
1761315945194063400,13.0410634765625,4.110869407653809,-9.32722282409668,-1.8185452222824097
1761315945212985600,13.059985595703125,3.1034910678863525,-9.422935485839844,-1.430907964706421
1761315945231907800,13.078907958984376,2.5052852630615234,-9.990034103393555,-1.6582261323928833
1761315945250830000,13.097830078125,3.170490026473999,-10.478170394897461,-1.1198409795761108
1761315945269752300,13.11675244140625,3.6442689895629883,-7.829315662384033,-2.5674986839294434
1761315945288674600,13.135674560546875,2.273181438446045,-9.449256896972656,-2.9838497638702393
1761315945307596800,13.1545966796875,2.933600664138794,-8.489734649658203,-3.431307554244995
1761315945326519000,13.17351904296875,3.775874137878418,-9.69093132019043,-3.625126361846924
1761315945345441300,13.192441162109375,3.3308091163635254,-9.43489933013916,-3.404986619949341
1761315945364363500,13.211363525390626,1.978864312171936,-8.547162055969238,-3.541377544403076
1761315945383285800,13.23028564453125,0.7776673436164856,-9.221938133239746,-3.263810157775879
1761315945402208000,13.2492080078125,1.8305093050003052,-9.332008361816406,-2.794816732406616
1761315945421130200,13.268130126953125,5.718846321105957,-11.303693771362305,-2.9048867225646973
1761315945440052500,13.287052490234375,5.362315654754639,-9.370293617248535,-4.931607246398926
1761315945458974700,13.305974609375,3.0867412090301514,-7.939385414123535,-5.496313571929932
1761315945477897000,13.32489697265625,1.7180466651916504,-8.02791976928711,-5.398207664489746
1761315945496819200,13.343819091796876,1.9908283948898315,-9.17886734008789,-4.1659040451049805
1761315945515741400,13.362741455078124,3.783052682876587,-8.910871505737305,-4.388436794281006
1761315945534663700,13.38166357421875,4.122833251953125,-11.296515464782715,-4.675575256347656
1761315945553586200,13.400586181640625,2.730210542678833,-8.46341323852539,-6.412764549255371
1761315945572508400,13.41950830078125,3.720839262008667,-8.066205024719238,-4.780859470367432
1761315945591430700,13.4384306640625,3.1202406883239746,-10.612168312072754,-3.759124279022217
1761315945610353000,13.457352783203126,2.912065267562866,-9.061619758605957,-4.40757942199707
1761315945629275100,13.476275146484374,0.4498506486415863,-9.717252731323242,-4.780859470367432
1761315945648197400,13.495197265625,4.015156269073486,-7.530212879180908,-4.4410786628723145
1761315945667119600,13.51411962890625,2.981456995010376,-6.527620315551758,-2.9455647468566895
1761315945686041900,13.533041748046875,-0.009571290574967861,-5.276174068450928,-3.263810157775879
1761315945704964000,13.551964111328125,4.567898273468018,-0.672383189201355,-1.222732424736023
1761315945723886300,13.57088623046875,2.2157537937164307,-7.3052873611450195,-5.515456199645996
1761315945742808600,13.58980859375,3.500699520111084,-8.834300994873047,-4.934000492095947
1761315945761730800,13.608730712890624,3.7782669067382812,-7.283751964569092,-4.4721856117248535
1761315945780653000,13.627653076171875,4.146761417388916,-7.027719974517822,-3.768695592880249
1761315945799575300,13.6465751953125,3.5222349166870117,-8.178668022155762,-4.256831645965576
1761315945818497500,13.66549755859375,3.2374889850616455,-7.970492362976074,-4.852644443511963
1761315945837419800,13.684419677734375,3.8285162448883057,-8.030312538146973,-5.446064472198486
1761315945856342000,13.703342041015626,3.996013879776001,-8.13081169128418,-5.637490272521973
1761315945875264300,13.72226416015625,3.9768712520599365,-8.530412673950195,-5.675775527954102
1761315945894186500,13.7411865234375,3.4983067512512207,-8.147561073303223,-5.036891460418701
1761315945913108700,13.760108642578125,3.0412776470184326,-8.305487632751465,-4.756931304931641
1761315945932031000,13.779031005859375,3.2231321334838867,-7.82692289352417,-4.754538536071777
1761315945950953500,13.797953369140625,3.3092737197875977,-7.786244869232178,-4.776073932647705
1761315945969875700,13.816875732421876,3.4193434715270996,-7.704888820648193,-5.26181697845459
1761315945988798000,13.8357978515625,3.562912940979004,-7.802994728088379,-5.144568920135498
1761315946007720200,13.85472021484375,3.4025938510894775,-7.77188777923584,-4.960321426391602
1761315946026642400,13.873642333984375,3.273381471633911,-7.743174076080322,-5.07517671585083
1761315946045564700,13.892564697265625,3.091526746749878,-7.788637638092041,-4.7712883949279785
1761315946064487000,13.91148681640625,3.436093330383301,-7.788637638092041,-4.941178798675537
1761315946083409200,13.9304091796875,3.4408788681030273,-7.77188777923584,-5.163711071014404
1761315946102331400,13.949331298828126,3.500699520111084,-7.759923934936523,-5.142175674438477
1761315946121253600,13.968253662109374,3.579662561416626,-7.6737823486328125,-5.048855781555176
1761315946140176000,13.98717578125,3.3786656856536865,-7.934599876403809,-5.020142078399658
1761315946159098000,14.00609814453125,3.4504501819610596,-7.893921852111816,-5.027320384979248
1761315946178020400,14.025020263671875,3.3164522647857666,-7.858029365539551,-5.1876397132873535
1761315946196942600,14.043942626953125,3.483949661254883,-7.824530124664307,-5.319244861602783
1761315946215864800,14.06286474609375,3.397808074951172,-7.913064479827881,-5.197210788726807
1761315946234787000,14.081787109375,3.38105845451355,-7.776673793792725,-5.154139995574951
1761315946253709300,14.100709228515624,3.4265220165252686,-7.664210796356201,-5.26181697845459
1761315946272631600,14.119631591796875,3.4983067512512207,-7.683353424072266,-5.326423168182373
1761315946291553800,14.1385537109375,3.5054850578308105,-7.659425258636475,-5.3455657958984375
1761315946310476000,14.15747607421875,3.5294134616851807,-7.719245910644531,-5.2737812995910645
1761315946329398300,14.176398193359375,3.5844483375549316,-7.793423175811768,-5.242674350738525
1761315946348320500,14.195320556640626,3.5294134616851807,-7.738388538360596,-5.2043890953063965
1761315946367242800,14.21424267578125,3.4791641235351562,-7.779066562652588,-5.139782905578613
1761315946386165000,14.2331650390625,3.4743785858154297,-7.731209754943848,-5.168497085571289
1761315946405087200,14.252087158203125,3.5126636028289795,-7.712067604064941,-5.1804609298706055
1761315946424009500,14.271009521484375,3.493520975112915,-7.747959613800049,-5.158925533294678
1761315946442932000,14.289931884765625,3.428914785385132,-7.853243827819824,-5.139782905578613
1761315946461854200,14.308854248046876,3.462414264678955,-7.853243827819824,-5.168497085571289
1761315946480776400,14.3277763671875,3.4265220165252686,-7.767102241516113,-5.185246467590332
1761315946499698700,14.34669873046875,3.4815568923950195,-7.750352382659912,-5.190032482147217
1761315946518621000,14.365620849609375,3.4743785858154297,-7.704888820648193,-5.161318302154541
1761315946537543200,14.384543212890625,3.2925238609313965,-7.712067604064941,-5.13021183013916
1761315946556465400,14.40346533203125,3.507878065109253,-7.70249605178833,-5.103890895843506
1761315946575387600,14.4223876953125,3.8668015003204346,-7.8317084312438965,-5.168497085571289
1761315946594310000,14.441309814453126,3.706482172012329,-7.802994728088379,-5.216353416442871
1761315946613232000,14.460232177734374,3.3020951747894287,-7.700103282928467,-5.2737812995910645
1761315946632154400,14.479154296875,3.2303106784820557,-7.652246952056885,-5.213960647583008
