time,seconds_elapsed,z,y,x
1761399789341120500,0.12412060546875,-0.01821862906217575,0.1172342300415039,-0.44336092472076416
1761399789361295400,0.14429541015625,-0.03689735382795334,0.14670753479003906,-0.41951704025268555
1761399789381463300,0.16446337890625,-0.05163255333900452,0.19568920135498047,-0.336017370223999
1761399789401633500,0.184633544921875,-0.03544067218899727,0.14589691162109375,-0.3447684049606323
1761399789421796000,0.204796142578125,0.036462899297475815,0.1514577865600586,-0.3341625928878784
1761399789441958000,0.2249580078125,0.08503101021051407,0.1630544662475586,-0.3284034729003906
1761399789462119700,0.24511962890625,0.14840449392795563,0.14935302734375,-0.34353601932525635
1761399789482271000,0.26527099609375,0.16387870907783508,0.1944751739501953,-0.3518744707107544
1761399789502444300,0.2854443359375,0.1331588178873062,0.21450233459472656,-0.4467202425003052
1761399789522607000,0.305607177734375,0.03508938476443291,0.18967056274414062,-0.4965564012527466
1761399789542766000,0.32576611328125,-0.004830323159694672,0.26036643981933594,-0.36245083808898926
1761399789562928000,0.34592822265625,-0.04522773623466492,0.16475582122802734,-0.3139544725418091
1761399789583080400,0.36608056640625,-0.027341097593307495,0.08852958679199219,-0.3287862539291382
1761399789603223000,0.38622314453125,-0.03312915563583374,0.10062503814697266,-0.41139137744903564
1761399789623414300,0.406414306640625,-0.11093057692050934,0.17022323608398438,-0.4693636894226074
1761399789643577900,0.426577880859375,-0.153685063123703,0.1356363296508789,-0.5452828407287598
1761399789663740400,0.446740478515625,-0.11740925908088684,0.24122047424316406,-0.6495059728622437
1761399789683900400,0.466900390625,-0.13765886425971985,0.22609806060791016,-0.784085750579834
1761399789704064300,0.487064208984375,-0.11293846368789673,0.2142353057861328,-0.8915343284606934
1761399789724213500,0.507213623046875,-0.05101144313812256,0.1855936050415039,-0.8857741355895996
1761399789744388400,0.527388427734375,-0.046022117137908936,0.2137899398803711,-0.9060499668121338
1761399789764539600,0.54753955078125,-0.03145909309387207,0.22952747344970703,-0.989051342010498
1761399789784692500,0.5676923828125,0.004359304904937744,0.23176002502441406,-1.0269718170166016
1761399789804874200,0.587874267578125,0.01977783441543579,0.2689342498779297,-1.0755980014801025
1761399789825036300,0.608036376953125,-0.003382742404937744,0.36850452423095703,-1.110154151916504
1761399789845186300,0.628186279296875,-0.03798675537109375,0.35072898864746094,-1.1014901399612427
1761399789865345300,0.64834521484375,-0.05096930265426636,0.3303213119506836,-0.9529435634613037
1761399789885509000,0.668509033203125,-0.10911476612091064,0.31600284576416016,-0.8803038597106934
1761399789905672000,0.688671875,-0.13155251741409302,0.3572349548339844,-1.0186173915863037
1761399789925846300,0.70884619140625,-0.07171672582626343,0.351226806640625,-1.100805640220642
1761399789945995800,0.728995849609375,-0.02317976951599121,0.2884511947631836,-1.0086694955825806
1761399789966170600,0.749170654296875,0.056524574756622314,0.2062091827392578,-0.7975764274597168
1761399789986344000,0.769343994140625,0.0643584132194519,0.12694263458251953,-0.7125303745269775
1761399790006481700,0.789481689453125,0.04928135871887207,-0.013423919677734375,-0.91554856300354
1761399790026667800,0.809667724609375,0.018303513526916504,-0.32940006256103516,-1.1533684730529785
1761399790046818800,0.82981884765625,0.04626929759979248,-0.33724021911621094,-1.4141160249710083
1761399790066978300,0.849978271484375,0.07651388645172119,-0.08120441436767578,-1.9556622505187988
1761399790087143200,0.87014306640625,0.1506020426750183,0.1747140884399414,-2.463654041290283
1761399790107292000,0.8902919921875,0.15340924263000488,0.2672462463378906,-2.628429651260376
1761399790127452000,0.910451904296875,0.05127078294754028,0.2456197738647461,-2.7061080932617188
1761399790147629000,0.930629150390625,-0.4995635747909546,-0.2542753219604492,-3.214505672454834
1761399790167779000,0.950779052734375,-1.0337936878204346,-1.583456039428711,-3.3152642250061035
1761399790187953200,0.970953125,-0.0826912522315979,-1.2813196182250977,-2.0613505840301514
1761399790208112600,0.991112548828125,1.334467887878418,-0.5794878005981445,-0.8299652338027954
1761399790228279300,1.011279296875,2.1227309703826904,-1.1886539459228516,-0.3365597724914551
1761399790248438500,1.0314384765625,1.7471227645874023,-1.393916130065918,-0.23986029624938965
1761399790268600600,1.0516005859375,1.1144959926605225,-0.5376520156860352,0.6590683460235596
1761399790288751400,1.07175146484375,1.0059696435928345,-0.47580909729003906,1.603750228881836
1761399790308912000,1.091912109375,2.1319355964660645,-1.3009214401245117,2.865466833114624
1761399790329087200,1.112087158203125,1.673214316368103,-1.8874597549438477,4.200192451477051
1761399790349214200,1.132214111328125,-0.0554426908493042,-1.7189998626708984,3.547917127609253
1761399790369398300,1.152398193359375,0.12344956398010254,-1.559234619140625,2.4249486923217773
1761399790389570600,1.172570556640625,0.08738064765930176,-1.1900825500488281,1.205428957939148
1761399790409728500,1.192728515625,-0.3150746822357178,-0.6121149063110352,1.3040740489959717
1761399790429887000,1.212886962890625,-0.9562455415725708,-0.2779350280761719,2.3090991973876953
1761399790450057200,1.23305712890625,-0.9700795412063599,-0.14793109893798828,2.483473300933838
1761399790470211800,1.2532119140625,-0.8409836292266846,-0.4091625213623047,2.3531785011291504
1761399790490369800,1.273369873046875,-0.4624752998352051,-0.2959613800048828,2.4227778911590576
1761399790510543000,1.293543212890625,-0.09918403625488281,0.20461463928222656,2.575809955596924
1761399790530706000,1.313705810546875,0.12213659286499023,0.9800224304199219,2.9957704544067383
1761399790550869800,1.333869873046875,-0.0909578800201416,2.2065982818603516,3.1682660579681396
1761399790571031000,1.354031005859375,-0.9094855785369873,3.2497215270996094,3.5500128269195557
1761399790591193000,1.374193115234375,-1.3010483980178833,3.605581283569336,3.5551674365997314
1761399790611355000,1.39435498046875,-0.9729757308959961,3.501858711242676,2.5255126953125
1761399790631504600,1.414504638671875,-0.33953094482421875,3.2218780517578125,0.9026937484741211
1761399790651681500,1.434681640625,0.4587287902832031,3.05344820022583,-0.4391345977783203
1761399790671841000,1.454841064453125,1.3197596073150635,2.5305142402648926,-1.3429718017578125
1761399790692003600,1.475003662109375,2.831943988800049,1.0656490325927734,-2.0817227363586426
1761399790712160500,1.495160400390625,4.942992210388184,-2.61417293548584,-3.0297160148620605
1761399790732327400,1.515327392578125,4.945246696472168,-5.855269432067871,-3.4889516830444336
1761399790752465000,1.53546484375,5.516231060028076,-2.8885602951049805,-1.2155871391296387
1761399790772636700,1.55563671875,3.880063056945801,0.6238183975219727,1.9065792560577393
1761399790792802600,1.575802490234375,2.467028856277466,0.6075029373168945,3.5286452770233154
1761399790812975400,1.595975341796875,2.348414182662964,-3.8615150451660156,2.991511106491089
1761399790833108000,1.61610791015625,0.06057000160217285,-2.877945899963379,2.825580596923828
1761399790853286400,1.636286376953125,-2.8469302654266357,2.0041823387145996,1.10166335105896
1761399790873448700,1.65644873046875,-5.2923383712768555,2.121408462524414,0.34124302864074707
1761399790893611500,1.676611572265625,-3.7813236713409424,-1.750594139099121,1.0215208530426025
1761399790913774600,1.696774658203125,-1.5138412714004517,-1.5309562683105469,1.5146946907043457
1761399790933948000,1.716947998046875,-2.553649425506592,-0.081634521484375,1.4974346160888672
1761399790954109400,1.737109375,-2.9176411628723145,0.0735921859741211,2.156867027282715
1761399790974271500,1.757271484375,-2.44807505607605,-2.349759101867676,1.470529556274414
1761399790994421200,1.777421142578125,-1.2211618423461914,-3.5096349716186523,0.1700904369354248
1761399791014585300,1.79758544921875,-0.13929861783981323,-0.8617935180664062,1.72706937789917
1761399791034742800,1.81774267578125,-0.13393326103687286,0.05829906463623047,3.3853724002838135
1761399791054898400,1.8378984375,-0.7499419450759888,-0.34356021881103516,2.3156535625457764
1761399791075081700,1.858081787109375,-1.3200409412384033,0.2563600540161133,1.218163013458252
1761399791095246600,1.87824658203125,-2.3916192054748535,1.5903825759887695,0.11290788650512695
1761399791115405800,1.89840576171875,-2.70597505569458,1.9517321586608887,-1.5679638385772705
1761399791135561200,1.918561279296875,-0.7535146474838257,1.5811963081359863,-2.7481679916381836
1761399791155722000,1.938721923828125,0.3590052127838135,1.0871610641479492,-2.087698221206665
1761399791175892000,1.95889208984375,0.43115270137786865,0.28086185455322266,-1.2038698196411133
1761399791196053500,1.979053466796875,1.3776582479476929,0.042369842529296875,-1.1355557441711426
1761399791216203300,1.999203369140625,0.8641948699951172,0.2628211975097656,-0.7790985107421875
1761399791236371200,2.01937109375,1.1857709884643555,0.20196151733398438,0.1416633129119873
1761399791256540000,2.039539794921875,1.646926760673523,-0.0995941162109375,0.0736989974975586
1761399791276678400,2.059678466796875,1.609645128250122,0.07316875457763672,-0.6097991466522217
1761399791296851000,2.079850830078125,1.3331074714660645,0.3475074768066406,-1.3286728858947754
1761399791317026000,2.100026123046875,1.5002371072769165,-0.10941314697265625,-2.309208631515503
1761399791337175600,2.120175537109375,1.8131394386291504,-0.6739702224731445,-2.1744277477264404
1761399791357324500,2.140324462890625,1.7210184335708618,-0.5455417633056641,-1.7416496276855469
1761399791377491500,2.160491455078125,2.1041653156280518,-0.52313232421875,-1.2952213287353516
1761399791397674200,2.18067431640625,1.749710202217102,-0.47217559814453125,-1.536247730255127
1761399791417826000,2.200825927734375,2.423441171646118,-0.5156230926513672,-1.283271312713623
1761399791437998600,2.22099853515625,0.322296142578125,-1.5079679489135742,-2.244279384613037
1761399791458134500,2.241134521484375,0.3672736883163452,-1.8092727661132812,-3.019582748413086
1761399791478319900,2.26131982421875,0.1727800965309143,-1.2636871337890625,-1.5129804611206055
1761399791498470100,2.28147021484375,1.4259037971496582,-3.351386070251465,0.9958417415618896
1761399791518646500,2.301646484375,1.2882508039474487,-5.932403564453125,3.6987507343292236
1761399791538806000,2.321805908203125,-0.5132919549942017,-5.799821853637695,5.590966701507568
1761399791558939400,2.341939453125,-1.5795955657958984,-5.795473098754883,3.2107133865356445
1761399791579132000,2.3621318359375,-0.02613586187362671,-2.683849334716797,-0.31482696533203125
1761399791599291400,2.38229150390625,-0.35979390144348145,-1.4400968551635742,-0.9841146469116211
1761399791619466200,2.40246630859375,-0.4688124656677246,-1.528336524963379,0.5898737907409668
1761399791639607600,2.422607666015625,-0.9858480095863342,-1.0124406814575195,2.3787951469421387
1761399791659780000,2.442780029296875,-2.107851266860962,-0.32348060607910156,3.413949966430664
1761399791679942000,2.46294189453125,-2.6354525089263916,0.6485414505004883,4.245335102081299
1761399791700084200,2.483084228515625,-2.233135938644409,1.0340595245361328,4.698141098022461
1761399791720258800,2.5032587890625,-1.651440143585205,0.8187332153320312,4.381363868713379
1761399791740416300,2.523416259765625,-1.5021833181381226,1.2224698066711426,4.0242180824279785
1761399791760587800,2.543587890625,-1.5999518632888794,1.836103916168213,3.9703352451324463
1761399791780752100,2.563752197265625,-2.169365406036377,2.142918109893799,3.911867618560791
1761399791800899300,2.5838994140625,-2.568720817565918,2.0743350982666016,3.9788198471069336
1761399791821059300,2.604059326171875,-1.9649420976638794,1.9367289543151855,3.8060154914855957
1761399791841226000,2.62422607421875,-0.5013303756713867,2.201244354248047,3.0894150733947754
1761399791861368800,2.644368896484375,1.2140519618988037,2.9176902770996094,1.8130011558532715
1761399791881562000,2.66456201171875,3.6281416416168213,1.3054556846618652,-0.49542665481567383
1761399791901712000,2.6847119140625,3.4521117210388184,-2.445758819580078,-2.6377925872802734
1761399791921865500,2.704865478515625,2.3549675941467285,-6.458333492279053,-4.2674031257629395
1761399791942048000,2.725048095703125,1.9287045001983643,-4.125422477722168,-1.5580754280090332
1761399791962210300,2.745210205078125,2.7800605297088623,-0.7650079727172852,0.06098794937133789
1761399791982372000,2.7653720703125,4.1068115234375,1.1289801597595215,1.7374939918518066
1761399792002534400,2.785534423828125,3.5208680629730225,-3.219346046447754,0.1867847442626953
1761399792022678000,2.805677978515625,1.532282829284668,-6.24365758895874,1.729193925857544
1761399792042847500,2.825847412109375,-4.788904190063477,-2.224490165710449,2.331756591796875
1761399792063009500,2.846009521484375,-2.4172720909118652,2.614531993865967,5.120001316070557
1761399792083182000,2.86618212890625,-1.4405922889709473,1.642491340637207,5.493256568908691
1761399792103334000,2.886333984375,-2.260348320007324,-0.8924221992492676,4.930349826812744
1761399792123504600,2.906504638671875,-3.520324230194092,-2.6074113845825195,2.8916215896606445
1761399792143657000,2.926656982421875,-4.071183681488037,-4.132183074951172,1.7545852661132812
1761399792163817500,2.9468173828125,-3.2548651695251465,-4.345241546630859,2.3574953079223633
1761399792183979800,2.966979736328125,-2.36785888671875,-1.9363880157470703,3.2050223350524902
1761399792204154600,2.987154541015625,-1.0489894151687622,-0.8024368286132812,3.282853364944458
1761399792224316400,3.00731640625,0.03294855356216431,-0.8410587310791016,3.1063873767852783
1761399792244476000,3.027475830078125,-0.22424590587615967,-1.1444377899169922,2.9605865478515625
1761399792264640500,3.047640625,-0.8286473155021667,-0.6503047943115234,2.378964424133301
1761399792284802300,3.06780224609375,-1.4036836624145508,0.26320362091064453,1.9132410287857056
1761399792304964400,3.08796435546875,-1.7619264125823975,1.0360913276672363,1.0370101928710938
1761399792325108200,3.108108154296875,-1.7040603160858154,1.429492473602295,-0.15490078926086426
1761399792345275400,3.128275390625,-0.5511258840560913,1.2065143585205078,-1.4343738555908203
1761399792365439000,3.14843896484375,0.4660784602165222,1.0472383499145508,-1.4473772048950195
1761399792385610200,3.1686103515625,0.8291453719139099,0.48868274688720703,-0.6208910942077637
1761399792405762800,3.1887626953125,1.1556226015090942,-0.145965576171875,0.3399217128753662
1761399792425931500,3.208931640625,1.1240932941436768,-0.4611072540283203,0.6501390933990479
1761399792446096100,3.22909619140625,1.2215231657028198,-0.0033359527587890625,-0.06473541259765625
1761399792466260500,3.249260498046875,0.9532364010810852,0.38354015350341797,-1.5697684288024902
1761399792486422300,3.26942236328125,0.4968479871749878,0.48406314849853516,-3.05318284034729
1761399792506582300,3.289582275390625,0.519087016582489,0.6492471694946289,-2.753905773162842
1761399792526746600,3.30974658203125,1.1897341012954712,-0.1367025375366211,-1.7469446659088135
1761399792546908400,3.329908447265625,0.41201603412628174,-0.4186687469482422,-2.2572295665740967
1761399792567045600,3.350045654296875,0.5195698142051697,-0.057163238525390625,-2.4050683975219727
1761399792587207000,3.37020703125,1.363703727722168,-0.058579444885253906,-1.4736237525939941
1761399792607369200,3.390369140625,1.1582834720611572,-0.2127819061279297,-1.6570682525634766
1761399792627528700,3.41052880859375,1.2911748886108398,-0.3803434371948242,-2.0057644844055176
1761399792647702000,3.430701904296875,1.0414608716964722,-0.2904624938964844,-2.343029737472534
1761399792667880400,3.45088037109375,1.0337958335876465,-0.42864036560058594,-1.0264203548431396
1761399792688024300,3.4710244140625,1.8719443082809448,-2.560549736022949,1.3854928016662598
1761399792708204800,3.491204833984375,1.7811566591262817,-6.504343032836914,3.925511121749878
1761399792728366600,3.51136669921875,0.705716609954834,-8.594474792480469,5.864236354827881
1761399792748516600,3.5315166015625,-0.6567709445953369,-4.828433990478516,4.871564865112305
1761399792768690700,3.551690673828125,-0.9505941271781921,-2.453317642211914,1.9962115287780762
1761399792788852200,3.571852294921875,-0.2680354118347168,-1.9361248016357422,-0.5645575523376465
1761399792809014500,3.5920146484375,-0.8219711780548096,-0.38399314880371094,-0.9471068382263184
1761399792829176600,3.612176513671875,-0.5966687202453613,0.6972417831420898,-0.1282334327697754
1761399792849338600,3.632338623046875,-1.387511134147644,1.4247474670410156,1.1156306266784668
1761399792869488400,3.65248828125,-2.30212140083313,1.7569799423217773,2.9521358013153076
1761399792889650400,3.672650390625,-2.5613536834716797,1.480783462524414,3.5815324783325195
1761399792909824500,3.692824462890625,-1.8510982990264893,1.0582356452941895,3.6503307819366455
1761399792929973800,3.712973876953125,-1.1351416110992432,1.243499755859375,4.574077606201172
1761399792950146600,3.733146484375,-0.9429564476013184,2.497959613800049,5.112035274505615
1761399792970310700,3.753310546875,-1.137566328048706,3.121702194213867,4.994700908660889
1761399792990472700,3.77347265625,-1.1215076446533203,2.5371298789978027,4.356613636016846
1761399793010632000,3.7936318359375,-1.3330087661743164,1.9427599906921387,3.4142279624938965
1761399793030784500,3.813784423828125,-0.9070003032684326,1.867218017578125,2.216967821121216
1761399793050945800,3.83394580078125,0.41953253746032715,1.582603931427002,0.7389249801635742
1761399793071120400,3.854120361328125,3.728055000305176,0.15394115447998047,-1.7706503868103027
1761399793091282700,3.87428271484375,4.621596336364746,-3.991030693054199,-4.6262335777282715
1761399793111432200,3.89443212890625,4.6992058753967285,-5.3781938552856445,-5.267408847808838
1761399793131594200,3.91459423828125,4.47332763671875,-1.9318246841430664,-2.659670829772949
1761399793151768300,3.934768310546875,2.895090103149414,0.7440495491027832,-0.43964481353759766
1761399793171930600,3.9549306640625,1.5512266159057617,3.1169142723083496,0.29505252838134766
1761399793192093200,3.97509326171875,1.7998969554901123,0.36518001556396484,0.04211759567260742
1761399793212254700,3.995254638671875,3.395972728729248,-6.597918510437012,2.2513809204101562
1761399793232391000,4.015390869140625,-1.5878005027770996,-6.490757942199707,3.6286258697509766
1761399793252574000,4.035573974609375,-2.6740529537200928,0.000751495361328125,3.4796857833862305
1761399793272739000,4.055739013671875,-3.09967041015625,1.1331911087036133,4.027226448059082
1761399793292874000,4.0758740234375,-2.627303123474121,-0.7046709060668945,4.677725791931152
1761399793313054000,4.096053955078125,-2.7298126220703125,-0.40947628021240234,4.752145767211914
1761399793333223400,4.116223388671875,-3.2768983840942383,-1.638153076171875,2.2349236011505127
1761399793353385700,4.1363857421875,-3.0219805240631104,-2.9150304794311523,0.03266143798828125
1761399793373537800,4.156537841796875,-1.9055042266845703,-1.4281482696533203,-0.06242084503173828
1761399793393720800,4.176720947265625,-0.8544690012931824,-0.07212066650390625,0.5386757850646973
1761399793413861400,4.196861328125,0.13348358869552612,-0.10284805297851562,1.8535451889038086
1761399793434024000,4.21702392578125,-0.18318834900856018,-0.639317512512207,2.8173441886901855
1761399793454198300,4.2371982421875,-0.09669865667819977,-0.6893758773803711,2.6528244018554688
1761399793474360800,4.25736083984375,-0.10927939414978027,0.1867208480834961,1.794698715209961
1761399793494522400,4.2775224609375,-0.7402602434158325,0.7683534622192383,0.3280601501464844
1761399793514684700,4.2976845703125,-1.386204481124878,0.8911571502685547,-0.8319549560546875
1761399793534859000,4.31785888671875,-0.842426598072052,0.953333854675293,-2.111393928527832
1761399793555008300,4.33800830078125,0.5836317539215088,0.6844387054443359,-2.5820789337158203
1761399793575170600,4.358170654296875,1.7625969648361206,0.16841506958007812,-1.3188698291778564
1761399793595317500,4.3783173828125,1.4805940389633179,-0.06319618225097656,-0.2039012908935547
1761399793615483400,4.3984833984375,1.1640138626098633,0.47725963592529297,-0.2605254650115967
1761399793635655200,4.4186552734375,1.0142356157302856,1.0253896713256836,-1.254880428314209
1761399793655816700,4.438816650390625,0.9426242113113403,1.3708100318908691,-1.619091510772705
1761399793675993300,4.458993408203125,0.7324599027633667,1.0827808380126953,-1.7925550937652588
1761399793696142300,4.479142333984375,0.3763664960861206,0.6885995864868164,-2.0043230056762695
1761399793716290000,4.4992900390625,0.6076123714447021,0.07668209075927734,-2.421318769454956
1761399793736449000,4.519448974609375,1.3137072324752808,-0.13875865936279297,-2.281425952911377
1761399793756610000,4.539610107421875,1.7477294206619263,-0.20148658752441406,-1.2010903358459473
1761399793776788500,4.55978857421875,1.7867958545684814,-0.38665771484375,-1.0861921310424805
1761399793796983300,4.5799833984375,1.5845786333084106,0.23952198028564453,-1.2547760009765625
1761399793817114400,4.6001142578125,0.538291871547699,1.130218505859375,-1.4195005893707275
1761399793837277000,4.62027685546875,-1.728830099105835,1.1268548965454102,-2.6469309329986572
1761399793857438200,4.640438232421875,0.6819074153900146,-0.7549457550048828,-4.336953639984131
1761399793877601000,4.66060107421875,-0.2576361894607544,-3.6462583541870117,-2.7797582149505615
1761399793897762800,4.6807626953125,0.49025958776474,-3.624971389770508,1.4036574363708496
1761399793917899000,4.70089892578125,0.11842131614685059,-4.274682998657227,2.5791611671447754
1761399793938082800,4.721082763671875,-3.255171298980713,-4.758803367614746,1.4629416465759277
1761399793958249200,4.741249267578125,-5.212550163269043,-1.9523286819458008,0.40384435653686523
1761399793978411000,4.761410888671875,-3.626128673553467,-0.34673309326171875,-2.5251097679138184
1761399793998547500,4.78154736328125,-2.451528310775757,-0.6394968032836914,-3.311624050140381
1761399794018734800,4.80173486328125,-2.046382188796997,-0.684931755065918,-3.4109506607055664
1761399794038885400,4.821885498046875,-2.1871414184570312,-1.2897214889526367,-2.0257983207702637
1761399794059033000,4.842033203125,-3.6848652362823486,-0.47458934783935547,-0.6296472549438477
1761399794079220200,4.86222021484375,-4.685313701629639,0.8350353240966797,1.1755962371826172
1761399794099379000,4.88237890625,-4.597146987915039,1.6569366455078125,2.123959541320801
1761399794119544300,4.90254443359375,-4.508815288543701,1.1424832344055176,1.7805838584899902
1761399794139706400,4.922706298828125,-4.1807637214660645,0.04168558120727539,0.4827151298522949
1761399794159864300,4.9428642578125,-4.002547264099121,-1.5424823760986328,0.5956430435180664
1761399794180030200,4.9630302734375,-3.540454387664795,-1.1070218086242676,1.5690631866455078
1761399794200170000,4.983169921875,-3.343428134918213,1.0701923370361328,3.1088037490844727
1761399794220354300,5.003354248046875,-2.5020751953125,1.6131162643432617,3.6960935592651367
1761399794240516600,5.0235166015625,-1.9404540061950684,1.4553356170654297,2.611663341522217
1761399794260679200,5.04367919921875,-1.5967271327972412,1.1178131103515625,1.019216537475586
1761399794280841200,5.06384130859375,-1.5653467178344727,0.49063777923583984,-0.3184194564819336
1761399794301002000,5.084001953125,-1.5736925601959229,-0.30777597427368164,-1.5002727508544922
1761399794321164300,5.104164306640625,-1.5422581434249878,-0.8128252029418945,-1.9537353515625
1761399794341327000,5.1243271484375,-1.980959415435791,-0.4400444030761719,-1.6300334930419922
1761399794361484800,5.14448486328125,-2.112977981567383,-0.13177013397216797,-0.7206578254699707
1761399794381618200,5.1646181640625,-1.9087010622024536,-0.046298980712890625,-0.21808624267578125
1761399794401813000,5.18481298828125,-1.637343168258667,-0.6334543228149414,0.912778377532959
1761399794421970000,5.204969970703125,-0.6320712566375732,-2.3814916610717773,1.8950440883636475
1761399794442135800,5.2251357421875,-1.4102051258087158,-8.27581787109375,0.6153564453125
1761399794462299000,5.245298828125,-1.465354561805725,-9.590697288513184,0.4279189109802246
1761399794482456800,5.265456787109375,0.36316049098968506,-0.19989585876464844,1.625495195388794
1761399794502623000,5.285623046875,-1.8467185497283936,5.516458511352539,2.072063684463501
1761399794522760000,5.305760009765625,-2.5330939292907715,5.108149528503418,1.6603095531463623
1761399794542945800,5.32594580078125,-2.9959235191345215,0.9852485656738281,-0.6673388481140137
1761399794563108000,5.346108154296875,-3.667220115661621,-3.5584945678710938,-2.6586923599243164
1761399794583270700,5.366270751953125,-2.0074374675750732,-3.0732479095458984,-0.8002395629882812
1761399794603432400,5.386432373046875,-0.9856293201446533,-0.11638259887695312,0.7028357982635498
1761399794623594200,5.40659423828125,-1.4625334739685059,0.5536012649536133,0.9125046730041504
1761399794643756800,5.4267568359375,-1.347139835357666,0.7894039154052734,0.7415409088134766
1761399794663893200,5.446893310546875,-1.386894941329956,0.42634105682373047,0.6520950794219971
1761399794684056800,5.467056884765625,-1.1885895729064941,-0.1186666488647461,0.45327305793762207
1761399794704237600,5.487237548828125,-0.8768765926361084,-0.1369647979736328,0.62677001953125
1761399794724404200,5.507404296875,-1.3131920099258423,0.48019886016845703,0.14103150367736816
1761399794744567300,5.5275673828125,-1.9574191570281982,0.7867765426635742,-0.5395805835723877
1761399794764728600,5.547728515625,-1.7324779033660889,0.2632789611816406,-0.5553359985351562
1761399794784889900,5.567889892578125,-1.1756672859191895,-0.1510944366455078,-0.6995522975921631
1761399794805053000,5.588052978515625,-0.8052525520324707,-0.19960689544677734,-0.9686732292175293
1761399794825214200,5.608214111328125,-0.9546922445297241,-0.1959209442138672,-1.1973769664764404
1761399794845376000,5.6283759765625,-1.1836276054382324,-0.08947086334228516,-0.7286646366119385
1761399794865538600,5.64853857421875,-1.3341014385223389,0.8412380218505859,-0.4063870906829834
1761399794885701000,5.668701171875,-1.1897648572921753,0.5944337844848633,-0.3444242477416992
1761399794905849000,5.68884912109375,-0.7934970855712891,-0.08369159698486328,-0.6771237850189209
1761399794926024000,5.70902392578125,-0.7999884486198425,-0.010323524475097656,-1.3693881034851074
1761399794946178600,5.729178466796875,-1.276052713394165,0.45361804962158203,-2.070389986038208
1761399794966347800,5.74934765625,-1.760643720626831,0.7228765487670898,-2.0114622116088867
1761399794986510600,5.769510498046875,-1.5770726203918457,0.5010805130004883,-1.631406545639038
1761399795006672400,5.78967236328125,-1.4319452047348022,-0.02515697479248047,-1.456719160079956
1761399795026834200,5.809834228515625,-1.40513277053833,-0.9132165908813477,-1.7606415748596191
1761399795046995500,5.829995361328125,-1.1480928659439087,-1.6425275802612305,-2.1524133682250977
1761399795067132700,5.850132568359375,-0.2141614854335785,-0.4331216812133789,-2.8411316871643066
1761399795087320800,5.87032080078125,0.6301586627960205,0.388458251953125,-3.405595541000366
1761399795107482400,5.890482421875,0.6014047265052795,-0.49125003814697266,-3.4234797954559326
1761399795127645000,5.91064501953125,0.33226197957992554,-0.7275266647338867,-1.9517030715942383
1761399795147806700,5.930806640625,0.4618567228317261,-0.12777328491210938,-0.7040767669677734
1761399795167970000,5.950969970703125,0.38490498065948486,0.03317546844482422,-0.08653473854064941
1761399795188126000,5.9711259765625,-0.26893603801727295,-0.9484386444091797,-0.7944118976593018
1761399795208292400,5.991292236328125,-1.8488757610321045,-2.125552177429199,-1.528954029083252
1761399795228453600,6.01145361328125,-3.470278263092041,-1.8842010498046875,-1.6166653633117676
1761399795248611800,6.03161181640625,-4.0842742919921875,-0.9324131011962891,-1.518648624420166
1761399795268778500,6.051778564453125,-4.656655311584473,-1.313516616821289,-1.1030158996582031
1761399795288940300,6.071940185546875,-4.539431095123291,-1.6924266815185547,-0.9596352577209473
1761399795309070600,6.092070556640625,-2.800048828125,-2.226369857788086,-0.09827423095703125
1761399795329264400,6.112264404296875,-2.1977999210357666,-2.6666030883789062,1.6856648921966553
1761399795349426000,6.132426025390625,-2.910407304763794,-2.558990955352783,2.9285669326782227
1761399795369588500,6.15258837890625,-2.9452219009399414,-1.5343599319458008,2.933493137359619
1761399795389725200,6.17272509765625,-3.210627317428589,-0.6207499504089355,2.6517586708068848
1761399795409912600,6.19291259765625,-3.1210274696350098,-0.0659632682800293,2.2094526290893555
1761399795430075000,6.213074951171875,-2.894587278366089,-0.010777473449707031,1.238624095916748
1761399795450211000,6.233211181640625,-2.8095054626464844,-0.07418298721313477,1.4499235153198242
1761399795470398700,6.253398681640625,-2.4538235664367676,0.5708451271057129,2.352208375930786
1761399795490560500,6.273560546875,-2.005612373352051,1.344165325164795,3.833671808242798
1761399795510718200,6.29371826171875,-1.3767597675323486,2.0070323944091797,4.785187244415283
1761399795530881300,6.31388134765625,-0.8099632263183594,2.0289669036865234,4.774392604827881
1761399795551046000,6.3340458984375,-0.2787191867828369,2.2917861938476562,3.9765830039978027
1761399795571226400,6.354226318359375,0.2733769416809082,2.214458465576172,2.68203067779541
1761399795591350800,6.374350830078125,1.700314998626709,0.9080018997192383,0.7533664703369141
1761399795611532500,6.394532470703125,2.101285457611084,-1.7437729835510254,-2.152845859527588
1761399795631693800,6.41469384765625,1.8099894523620605,-4.612735271453857,-6.303990364074707
1761399795651856000,6.43485595703125,1.462141990661621,-1.6148877143859863,-6.901093006134033
1761399795672017700,6.455017578125,0.5562148094177246,2.500746726989746,-5.199206352233887
1761399795692180200,6.47518017578125,-1.5063824653625488,0.6645989418029785,-4.378844261169434
1761399795712342500,6.495342529296875,-2.288017511367798,-10.095154762268066,-3.8810501098632812
1761399795732504300,6.51550439453125,-1.6479840278625488,-9.53285026550293,-0.6339602470397949
1761399795752665600,6.53566552734375,-0.0349196195602417,0.34503936767578125,3.3756790161132812
1761399795772828400,6.555828369140625,-1.269881010055542,8.403865814208984,6.783797264099121
1761399795792967700,6.5759677734375,-2.5639917850494385,8.489572525024414,10.660686492919922
1761399795813152300,6.59615234375,-4.402592658996582,0.027678489685058594,7.890288829803467
1761399795833288700,6.616288818359375,-9.881940841674805,-7.423698425292969,2.6126158237457275
1761399795853450500,6.636450439453125,-1.2880412340164185,-8.77601146697998,-3.4875524044036865
1761399795873612500,6.656612548828125,-0.7487399578094482,-2.4956254959106445,-2.0670297145843506
1761399795893762800,6.6767626953125,-0.7896040678024292,1.2353448867797852,2.2855982780456543
1761399795913945300,6.6969453125,-0.6503257155418396,-0.00811767578125,1.3670146465301514
1761399795934111700,6.71711181640625,-1.2574738264083862,-0.03647899627685547,0.9148448705673218
1761399795954285600,6.73728564453125,-1.3932609558105469,0.48261070251464844,1.195927619934082
1761399795974448000,6.7574482421875,-1.197589635848999,0.8463144302368164,1.1481051445007324
1761399795994610000,6.77760986328125,-0.24965916574001312,1.2972021102905273,0.44510340690612793
1761399796014771500,6.797771484375,0.5380002856254578,1.5651311874389648,-0.4982774257659912
1761399796034934300,6.817934326171875,0.6048510074615479,1.8454513549804688,-1.0723657608032227
1761399796055095600,6.838095458984375,0.7478755712509155,1.9171733856201172,-0.9455091953277588
1761399796075232800,6.858232666015625,0.46514415740966797,1.821807861328125,-0.822516918182373
1761399796095419600,6.878419677734375,-0.06009185314178467,1.2732372283935547,-1.0606592893600464
1761399796115581400,6.89858154296875,0.41244322061538696,0.013406753540039062,-1.5476040840148926
1761399796135746800,6.918746826171875,1.2763702869415283,-0.9127292633056641,-1.6531484127044678
1761399796155905800,6.93890576171875,1.7040812969207764,-0.7493886947631836,-2.141900062561035
1761399796176043800,6.959043701171875,1.4775707721710205,-0.1730365753173828,-3.6463749408721924
1761399796196230100,6.979230224609375,1.3721051216125488,0.7511215209960938,-5.056361198425293
1761399796216392400,6.999392333984375,1.3612375259399414,0.16520023345947266,-5.168450355529785
1761399796236554200,7.01955419921875,0.45179736614227295,-0.49053096771240234,-4.549997329711914
1761399796256715500,7.039715576171875,1.3211479187011719,-0.8668498992919922,-3.8863940238952637
1761399796276877000,7.059876953125,0.7114356756210327,-0.9133138656616211,-4.813727855682373
1761399796297039400,7.080039306640625,-0.6729785203933716,-1.303354263305664,-6.80844783782959
1761399796317202200,7.1002021484375,-0.13349318504333496,-0.9473581314086914,-6.113596439361572
1761399796337350100,7.12035009765625,1.3494044542312622,-1.1128616333007812,-2.3772735595703125
1761399796357526300,7.1405263671875,2.888218402862549,-4.473564147949219,0.6136679649353027
1761399796377688300,7.160688232421875,0.19861310720443726,-5.380974769592285,2.270188331604004
1761399796397824300,7.18082421875,-2.492541551589966,-3.3300952911376953,2.6247169971466064
1761399796418008600,7.201008544921875,-2.9063830375671387,-1.9272785186767578,0.6503398418426514
1761399796438170600,7.221170654296875,-0.7074769735336304,-1.2705621719360352,-1.9663081169128418
1761399796458335200,7.241335205078125,-0.7260352373123169,-1.5883550643920898,-2.4901177883148193
1761399796478497000,7.2614970703125,-2.075841188430786,-1.1219768524169922,-0.8090226650238037
1761399796498659800,7.281659912109375,-1.916361927986145,-0.4045572280883789,0.709308385848999
1761399796518822100,7.301822265625,-2.838562488555908,0.2656688690185547,1.285539150238037
1761399796538961700,7.321961669921875,-3.147066593170166,1.2647314071655273,1.9609997272491455
1761399796559145000,7.34214501953125,-3.0974104404449463,1.7319016456604004,3.139291763305664
1761399796579307300,7.362307373046875,-3.1675660610198975,1.8296914100646973,3.5593762397766113
1761399796599465700,7.3824658203125,-2.929065465927124,1.6874265670776367,3.5345866680145264
1761399796619631900,7.4026318359375,-2.129823923110962,1.772885799407959,4.201499938964844
1761399796639793700,7.422793701171875,-1.6766616106033325,2.556647300720215,4.307283878326416
1761399796659951000,7.442951171875,-1.2038891315460205,3.36746883392334,5.124454498291016
1761399796680117200,7.4631171875,-0.5056357383728027,3.8672618865966797,5.347670078277588
1761399796700279300,7.483279296875,1.2100872993469238,3.6825528144836426,3.8599703311920166
1761399796720437200,7.503437255859375,3.2061402797698975,1.872420310974121,0.2549619674682617
1761399796740604000,7.52360400390625,0.8037123680114746,-2.752190589904785,-4.720085144042969
1761399796760765400,7.543765380859375,1.5168850421905518,-9.875102996826172,-9.287492752075195
1761399796780902000,7.56390185546875,2.5003480911254883,-5.889614105224609,-5.935945510864258
1761399796801089000,7.584089111328125,2.1718647480010986,1.00972318649292,-2.676544189453125
1761399796821251000,7.6042509765625,0.7935144901275635,5.749373912811279,-1.291703701019287
1761399796841387800,7.6243876953125,-0.03726840019226074,5.04066276550293,-1.433239459991455
1761399796861574700,7.64457470703125,-2.438636064529419,-5.360004425048828,-2.3461766242980957
1761399796881737000,7.664737060546875,-4.5258073806762695,-10.019510269165039,-0.5888504981994629
1761399796901899500,7.6848994140625,-0.3666410446166992,-2.1939687728881836,-0.5052070617675781
1761399796922057000,7.705056884765625,-2.6422133445739746,4.716597557067871,1.9086768627166748
1761399796942223000,7.72522314453125,-5.992796897888184,4.520925045013428,4.259006500244141
1761399796962385400,7.745385498046875,-6.600338459014893,-0.22162723541259766,3.1506383419036865
1761399796982543000,7.765543212890625,-5.175675392150879,-5.235752105712891,1.5504074096679688
1761399797002683100,7.78568310546875,-2.826387882232666,-3.58071231842041,0.1827378273010254
1761399797022871300,7.805871337890625,-1.759158730506897,0.11213111877441406,0.33795642852783203
1761399797042999000,7.8259990234375,-1.0024715662002563,-0.029152870178222656,0.10141611099243164
1761399797063195400,7.8461953125,-0.5675514936447144,-1.2345447540283203,0.3515796661376953
1761399797083357200,7.866357177734375,-0.5179190635681152,-1.068150520324707,1.5747706890106201
1761399797103519200,7.886519287109375,-0.22023475170135498,-0.06534290313720703,1.641940951347351
1761399797123681000,7.906680908203125,-0.037338435649871826,0.7917766571044922,0.9989179372787476
1761399797143842600,7.926842529296875,-0.1932932734489441,1.2770986557006836,0.12697911262512207
1761399797164004900,7.9470048828125,-0.38459375500679016,1.6091270446777344,-0.6468708515167236
1761399797184167000,7.9671669921875,-0.5585682392120361,2.0773677825927734,-1.4054484367370605
1761399797204328700,7.98732861328125,-0.4485912322998047,2.4576973915100098,-1.6644349098205566
1761399797224491500,8.007491455078124,-0.2922511100769043,2.2472987174987793,-1.878157138824463
1761399797244649500,8.0276494140625,-0.10483631491661072,1.5450544357299805,-2.0963821411132812
1761399797264815400,8.0478154296875,0.11620829999446869,0.9012508392333984,-2.0927064418792725
1761399797284976600,8.0679765625,0.17945927381515503,0.39107227325439453,-1.651796817779541
1761399797305139000,8.088138916015625,0.3240736722946167,0.0985860824584961,-1.2984391450881958
1761399797325300500,8.108300537109375,-0.282522976398468,-0.06544017791748047,-2.2188687324523926
1761399797345462800,8.128462890625,-0.8389169573783875,0.056603431701660156,-3.2805123329162598
1761399797365625300,8.148625244140625,-0.254589319229126,-0.4031867980957031,-4.152234077453613
1761399797385761800,8.16876171875,-0.027700304985046387,-1.1927518844604492,-3.9583168029785156
1761399797405923300,8.18892333984375,0.03789091110229492,-0.6849298477172852,-3.8628201484680176
1761399797426110500,8.2091103515625,-0.35860002040863037,-0.1955404281616211,-5.061837196350098
1761399797446273500,8.2292734375,-0.6669888496398926,-0.3092041015625,-6.281463623046875
1761399797466434300,8.249434326171874,-0.4871162176132202,-0.4933891296386719,-5.801364421844482
1761399797486597600,8.26959765625,0.3747871220111847,-0.9853048324584961,-3.8461666107177734
1761399797506759200,8.28975927734375,0.8333258628845215,-1.4748144149780273,-1.2166017293930054
1761399797526921200,8.309921142578125,1.1348648071289062,-0.8648786544799805,1.0075558423995972
1761399797547082500,8.33008251953125,2.1154332160949707,-1.927597999572754,2.847564458847046
1761399797567244300,8.350244384765626,0.42037177085876465,-2.5907459259033203,3.3998913764953613
1761399797587406800,8.37040673828125,-1.5431996583938599,-2.360163688659668,2.046356201171875
1761399797607568600,8.390568603515625,-0.8700971603393555,-2.807509422302246,0.30324673652648926
1761399797627730400,8.41073046875,-0.06940579414367676,-2.7862548828125,-0.41374826431274414
1761399797647892200,8.430892333984374,-0.7562867403030396,-1.5821170806884766,-0.31626224517822266
1761399797668050400,8.451050537109374,-2.6246283054351807,-0.831486701965332,0.14402341842651367
1761399797688214800,8.47121484375,-1.8009741306304932,-0.4257793426513672,0.2875378131866455
1761399797708357400,8.491357421875,-1.1628682613372803,-0.37697696685791016,1.5749015808105469
1761399797728530400,8.511530517578125,-1.4873580932617188,-0.7284154891967773,2.3927361965179443
1761399797748698400,8.531698486328125,-1.2174519300460815,-0.10788154602050781,2.369166374206543
1761399797768865000,8.551864990234375,-1.5451819896697998,0.3425474166870117,3.271780252456665
1761399797789026300,8.5720263671875,-2.0853118896484375,1.5411968231201172,3.5661306381225586
1761399797809184500,8.5921845703125,-2.1664066314697266,2.4448862075805664,3.5932726860046387
1761399797829350100,8.61235009765625,-2.116907835006714,2.830580711364746,3.41549015045166
1761399797849512400,8.632512451171875,-1.8005545139312744,2.92496919631958,3.319302797317505
1761399797869641500,8.652641357421874,-1.1026930809020996,2.8667540550231934,3.368393898010254
1761399797889840000,8.672840087890625,-0.2073802947998047,3.032351493835449,2.6919546127319336
1761399797909998600,8.69299853515625,1.1731667518615723,3.2422995567321777,1.1856927871704102
1761399797930160400,8.713160400390626,1.3153107166290283,2.0814285278320312,-0.9356927871704102
1761399797950322400,8.733322509765625,1.705782413482666,-0.8646726608276367,-3.0124311447143555
1761399797970484200,8.753484130859375,2.6945855617523193,-4.581998825073242,-3.9622530937194824
1761399797990626800,8.773626708984375,3.737740993499756,-4.92216682434082,-3.209218978881836
1761399798010804500,8.793804443359376,3.1952221393585205,-1.4707050323486328,-0.3452572822570801
1761399798030991400,8.813991455078124,2.105029344558716,0.7901334762573242,0.2398848533630371
1761399798051132200,8.834132080078126,1.5801842212677002,1.9332613945007324,0.5553567409515381
1761399798071289300,8.854289306640625,0.8732006549835205,-1.986954689025879,-0.039553165435791016
1761399798091457000,8.87445703125,1.1514673233032227,-7.802292823791504,-0.4105796813964844
1761399798111593200,8.89459326171875,-3.4443511962890625,-3.5923633575439453,-1.5156450271606445
1761399798131776800,8.91477685546875,-2.2953288555145264,1.8790960311889648,0.03863048553466797
1761399798151948300,8.9349482421875,-4.218338966369629,2.576910972595215,2.7493042945861816
1761399798172104400,8.9551044921875,-5.1795549392700195,2.0139074325561523,4.002993106842041
1761399798192265700,8.975265625,-3.652078151702881,-0.4642314910888672,1.5715818405151367
1761399798212428000,8.995427978515625,-1.9250376224517822,-3.8190078735351562,-1.3644442558288574
1761399798232590600,9.015590576171874,-1.0379661321640015,-1.8367843627929688,-0.8528048992156982
1761399798252733400,9.0357333984375,-0.5873968601226807,0.8726406097412109,0.389721155166626
1761399798272887300,9.05588720703125,-0.37174201011657715,0.7753629684448242,0.8388593196868896
1761399798293076700,9.07607666015625,-0.5236554145812988,-0.07631206512451172,0.8472998142242432
1761399798313238000,9.096238037109375,-0.008423686027526855,-0.4019451141357422,0.45073485374450684
1761399798333399800,9.11639990234375,0.31524866819381714,0.39536476135253906,-0.2580876350402832
1761399798353562000,9.13656201171875,0.593777596950531,1.3788352012634277,-0.2496941089630127
1761399798373725000,9.156724853515625,0.6399101614952087,1.3489971160888672,-0.20549464225769043
1761399798393882400,9.17688232421875,0.6254957318305969,0.8813858032226562,-0.695575475692749
1761399798414022700,9.197022705078124,0.39791056513786316,1.0238456726074219,-1.1484370231628418
1761399798434210300,9.217210205078125,0.47255730628967285,1.416121482849121,-1.2436273097991943
1761399798454372000,9.2373720703125,0.5105228424072266,1.3970365524291992,-1.014927625656128
1761399798474533600,9.25753369140625,0.13064979016780853,1.0673599243164062,-0.6378729343414307
1761399798494670600,9.277670654296875,-0.4924241900444031,0.9717550277709961,-0.30797910690307617
1761399798514857700,9.297857666015625,-0.5520709156990051,1.0102519989013672,-0.43350446224212646
1761399798535017000,9.318016845703125,-0.14278554916381836,0.8497486114501953,-0.8119125366210938
1761399798555182300,9.338182373046875,-0.08246850967407227,0.5337066650390625,-1.1212553977966309
1761399798575342300,9.35834228515625,0.05893528461456299,-0.5061073303222656,-1.5868405103683472
1761399798595505700,9.378505615234374,0.3310673236846924,-0.33048439025878906,-2.5562241077423096
1761399798615642600,9.398642578125,0.45221054553985596,-0.25136280059814453,-3.345979690551758
1761399798635804700,9.4188046875,0.19407808780670166,-1.0622501373291016,-3.7675769329071045
1761399798655992000,9.438991943359374,0.3241649866104126,-1.5045585632324219,-3.605530261993408
1761399798676154000,9.459154052734375,0.590465247631073,-1.0184736251831055,-4.187975883483887
1761399798696291300,9.479291259765626,0.18187427520751953,-0.525482177734375,-6.14216947555542
1761399798716477700,9.499477783203124,0.15782678127288818,-0.35923194885253906,-7.155148983001709
1761399798736640500,9.519640625,0.43483418226242065,-0.13011455535888672,-6.176579475402832
1761399798756802000,9.539802001953126,1.8124029636383057,-1.2557897567749023,-3.4501357078552246
1761399798776964600,9.559964599609375,1.220768690109253,-1.6462717056274414,-1.059028148651123
1761399798797100300,9.580100341796875,1.443546175956726,-0.7193307876586914,0.9913652539253235
1761399798817262600,9.6002626953125,1.820544719696045,-1.5704784393310547,1.9428675174713135
1761399798837433600,9.62043359375,-0.07482568919658661,-2.620838165283203,2.436221122741699
1761399798857611500,9.640611572265625,-1.3014020919799805,-3.051144599914551,1.4969396591186523
1761399798877773600,9.660773681640626,-1.3008182048797607,-2.471651077270508,0.6932709217071533
1761399798897935000,9.68093505859375,-0.08021295070648193,-1.8211803436279297,0.13772225379943848
1761399798918093600,9.701093505859374,-0.21811246871948242,-1.0370874404907227,0.018273353576660156
1761399798938260200,9.72126025390625,-1.9310376644134521,-0.25225257873535156,0.9512381553649902
1761399798958417400,9.74141748046875,-1.6884299516677856,0.15985393524169922,1.1407058238983154
1761399798978583800,9.761583740234375,-0.5466835498809814,0.36371517181396484,1.8110008239746094
1761399798998745600,9.78174560546875,-1.6924901008605957,0.2532825469970703,2.3918962478637695
1761399799018908200,9.801908203125,-1.4056639671325684,0.9174871444702148,2.7835640907287598
1761399799039070200,9.8220703125,-1.1083098649978638,1.294743537902832,3.374267578125
1761399799059232000,9.84223193359375,-0.9853205680847168,1.163827896118164,3.9511828422546387
1761399799079379000,9.86237890625,-0.7676299810409546,1.6522083282470703,3.809299945831299
1761399799099530800,9.88253076171875,-0.8857734203338623,2.4713034629821777,3.704713821411133
1761399799119693800,9.90269384765625,-0.7245333194732666,3.3624916076660156,4.244650840759277
1761399799139854600,9.9228544921875,-0.22263121604919434,3.7002620697021484,4.799497604370117
1761399799160022300,9.943022216796875,0.39646852016448975,3.3548879623413086,4.553618907928467
1761399799180187100,9.963187255859374,1.5748183727264404,2.3148531913757324,3.0716114044189453
1761399799200365300,9.983365234375,3.4622256755828857,0.06207466125488281,0.4767160415649414
1761399799220504300,10.00350439453125,4.347076416015625,-3.815274238586426,-3.4086079597473145
1761399799240689200,10.023689208984376,4.4948015213012695,-6.979513168334961,-6.903045177459717
1761399799260851200,10.043851318359375,4.294028282165527,-3.529745101928711,-5.176257133483887
1761399799281009400,10.064009521484374,4.137434005737305,1.3706798553466797,-2.5862951278686523
1761399799301176000,10.084176025390626,3.989112377166748,5.535463333129883,-2.2519803047180176
1761399799321338400,10.10433837890625,2.2636523246765137,6.430851936340332,-1.2572083473205566
1761399799341473500,10.1244736328125,-0.873223066329956,-5.1043806076049805,-1.4604368209838867
1761399799361661700,10.14466162109375,-5.127486228942871,-13.017315864562988,-0.882573127746582
1761399799381823000,10.164822998046875,3.4605026245117188,-4.266031265258789,1.3286075592041016
1761399799401985000,10.184985107421875,1.5536675453186035,2.456695079803467,6.913473129272461
1761399799422146800,10.205146728515626,0.5317486524581909,5.886535167694092,11.774505615234375
1761399799442309000,10.22530908203125,-2.9092233180999756,2.606039047241211,9.698238372802734
1761399799462471400,10.245471435546875,-8.189728736877441,-5.1367998123168945,4.527247905731201
1761399799482629400,10.26562939453125,-2.4825048446655273,-7.824644088745117,-1.3704509735107422
1761399799502778400,10.2857783203125,0.546216607093811,-3.2290287017822266,-2.9286041259765625
1761399799522957300,10.305957275390625,0.4531922936439514,0.42417430877685547,0.6316409111022949
1761399799543108400,10.3261083984375,0.8656147122383118,-0.14522933959960938,2.4841902256011963
1761399799563270100,10.346270263671874,-0.03156638145446777,-0.2170391082763672,3.2552847862243652
1761399799583443000,10.36644287109375,-0.4536784887313843,0.22167205810546875,2.7945756912231445
1761399799603601700,10.3866015625,-0.3931781053543091,0.6269693374633789,0.6401486396789551
1761399799623742200,10.4067421875,0.20799338817596436,1.2518024444580078,-0.9204838275909424
1761399799664091100,10.447091064453126,1.1239302158355713,1.4940271377563477,-0.9865579605102539
1761399799684231700,10.467231689453126,2.0993380546569824,1.3865766525268555,-0.3843269348144531
1761399799704389600,10.4873896484375,2.330345869064331,0.933990478515625,0.028264760971069336
1761399799724577000,10.507576904296876,1.8007287979125977,0.6629295349121094,-0.27390027046203613
1761399799744739000,10.527739013671875,1.8631441593170166,0.37475013732910156,-0.3699798583984375
1761399799764900900,10.54790087890625,2.0123727321624756,0.04328155517578125,-0.5713844299316406
1761399799785063000,10.56806298828125,1.4144986867904663,0.34539031982421875,-1.5509629249572754
1761399799805225700,10.588225830078125,0.36606764793395996,0.5016241073608398,-2.9789164066314697
1761399799825387500,10.608387451171875,0.887737512588501,0.234588623046875,-3.0039775371551514
1761399799845548800,10.628548828125,1.5740424394607544,-0.982600212097168,-1.280916452407837
1761399799865711000,10.648711181640625,0.9057844877243042,-1.2734594345092773,-2.0151774883270264
1761399799885873400,10.668873291015625,1.7826648950576782,-0.797576904296875,-2.463367462158203
1761399799906009900,10.689009765625,2.0468122959136963,-1.2136335372924805,-2.1070053577423096
1761399799926171100,10.709171142578125,0.9463933110237122,-1.1398038864135742,-3.488193988800049
1761399799946333400,10.72933349609375,1.5373793840408325,-0.6462192535400391,-4.519489765167236
1761399799966520300,10.749520263671876,0.8452090620994568,-0.5937004089355469,-2.7329459190368652
1761399799986682600,10.7696826171875,2.7219903469085693,-3.5748281478881836,0.6409602165222168
1761399800006820000,10.789820068359376,1.884650468826294,-7.854663848876953,4.176333904266357
1761399800027007200,10.81000732421875,-0.7240073680877686,-6.426403045654297,6.507852554321289
1761399800047168500,10.83016845703125,-2.5604257583618164,-2.96730899810791,4.350937843322754
1761399800067306000,10.850305908203126,-0.023105859756469727,-1.6681957244873047,-0.14415264129638672
1761399800107629800,10.8906298828125,-0.5464127063751221,-1.2749919891357422,-0.31950807571411133
1761399800127816700,10.910816650390625,-0.7315586805343628,-1.1910552978515625,1.3027305603027344
1761399800147983000,10.930983154296875,-1.4898135662078857,-0.15468120574951172,2.6637887954711914
1761399800168136200,10.95113623046875,-2.6493661403656006,0.5024938583374023,3.6797003746032715
1761399800188302600,10.971302490234375,-2.879272222518921,0.8649249076843262,4.447669506072998
1761399800208465200,10.991465087890624,-2.5010645389556885,1.3057012557983398,4.647164344787598
1761399800228616000,11.011615966796874,-1.8446831703186035,1.4562768936157227,5.537668228149414
1761399800248788500,11.03178857421875,-1.437442421913147,1.712409496307373,6.171961307525635
1761399800268950500,11.051950439453124,-1.694568395614624,2.477081298828125,5.784461975097656
1761399800289112600,11.072112548828125,-2.0326454639434814,3.395932197570801,5.373591899871826
1761399800309270500,11.0922705078125,-1.971328854560852,3.9730968475341797,4.592258930206299
1761399800329436400,11.1124365234375,-0.9671647548675537,3.6899685859680176,3.2931628227233887
1761399800349598700,11.1325986328125,1.6321723461151123,2.253732681274414,1.0752177238464355
1761399800369757000,11.1527568359375,4.707913398742676,-1.286153793334961,-2.240297317504883
1761399800389923000,11.172923095703124,3.3653438091278076,-6.700278282165527,-7.025693893432617
1761399800410059500,11.1930595703125,4.107892036437988,-7.050662040710449,-7.500335693359375
1761399800430246700,11.21324658203125,3.692368268966675,-2.2546205520629883,-3.068650722503662
1761399800450434800,11.233434814453124,2.591525077819824,1.6737699508666992,-0.12336540222167969
1761399800470570800,11.25357080078125,2.412713050842285,4.775940418243408,2.1940176486968994
1761399800490732300,11.273732177734376,2.118727207183838,-2.091188907623291,1.2691035270690918
1761399800510894000,11.29389404296875,1.0802288055419922,-11.807145118713379,1.181002140045166
1761399800531056400,11.314056396484375,-5.197545051574707,-5.537675857543945,0.3353452682495117
1761399800551218200,11.33421826171875,-2.5450191497802734,3.793395519256592,4.310578346252441
1761399800571360500,11.354360595703126,-2.402867555618286,4.181677341461182,7.710003852844238
1761399800591542300,11.374542236328125,-3.097984790802002,1.150282382965088,7.891930103302002
1761399800611699500,11.394699462890625,-5.483709335327148,-3.101552963256836,4.24029016494751
1761399800631862500,11.414862548828125,-4.557985782623291,-6.598459243774414,0.16161489486694336
1761399800652028200,11.435028076171875,-1.4528391361236572,-3.6799325942993164,-0.8461594581604004
1761399800672190200,11.455190185546876,-1.744908332824707,-0.1056060791015625,1.0950121879577637
1761399800692348400,11.475348388671875,-0.13025802373886108,-0.047110557556152344,2.783766746520996
1761399800712491500,11.495491455078126,-0.553292453289032,-0.7819757461547852,3.3824567794799805
1761399800732665300,11.515665283203125,-0.8462486267089844,-0.566014289855957,3.0692269802093506
1761399800752838000,11.535837890625,-1.1758116483688354,-0.1996936798095703,2.149872303009033
1761399800772978700,11.555978759765624,-1.6188061237335205,0.7223854064941406,1.006546974182129
1761399800793163000,11.5761630859375,-1.782213807106018,1.0229616165161133,-0.44922327995300293
1761399800813300700,11.59630078125,-1.0714046955108643,0.9496450424194336,-1.2680835723876953
1761399800833451300,11.616451171875,0.35359370708465576,0.8552322387695312,-1.125687599182129
1761399800853648400,11.6366484375,1.604872465133667,0.5068998336791992,-0.054843902587890625
1761399800873810200,11.65681005859375,1.7491257190704346,0.15288066864013672,0.8470571041107178
1761399800893972000,11.676971923828125,0.8568856120109558,0.41645050048828125,0.9205489158630371
1761399800914112800,11.69711279296875,0.6143401861190796,0.7588996887207031,0.4237370491027832
1761399800934296800,11.717296875,1.2237803936004639,1.019312858581543,0.17438983917236328
1761399800954465500,11.737465576171875,0.7058768272399902,0.8606081008911133,-0.4269983768463135
1761399800974594800,11.7575947265625,0.4667937755584717,0.498321533203125,-1.4337503910064697
1761399800994784300,11.7777841796875,1.0457100868225098,-0.16252708435058594,-1.1357929706573486
1761399801014944000,11.797944091796875,0.8374135494232178,-0.6321220397949219,-0.48904991149902344
1761399801035105800,11.818105712890626,0.11266767978668213,-0.5999116897583008,-1.275449514389038
1761399801055268400,11.838268310546875,0.6642638444900513,-0.7030124664306641,-1.8358252048492432
1761399801075430000,11.858429931640625,1.4606035947799683,-0.8571224212646484,-1.3305110931396484
1761399801095591700,11.878591796875,0.47366809844970703,-1.3749418258666992,-2.436399459838867
1761399801115753500,11.89875341796875,1.6023871898651123,-0.8025627136230469,-3.9285850524902344
1761399801135891000,11.918890869140625,1.406226396560669,-0.5405855178833008,-4.387291431427002
1761399801156078300,11.939078369140624,1.8612561225891113,-2.1885690689086914,-1.900484323501587
1761399801176239900,11.959239990234375,2.6005852222442627,-4.504281044006348,2.5814366340637207
1761399801196402400,11.97940234375,2.1634442806243896,-7.7613525390625,5.976071357727051
1761399801216538600,11.99953857421875,-0.3767319321632385,-7.012054443359375,7.170267105102539
1761399801236715800,12.0197158203125,-1.8097927570343018,-2.501725196838379,3.83651065826416
1761399801256887300,12.03988720703125,0.5429773330688477,-1.388833999633789,-0.03359699249267578
1761399801277049600,12.060049560546876,-0.39426183700561523,-1.3986034393310547,-1.7760233879089355
1761399801297211100,12.080211181640625,-0.7077356576919556,-1.6386747360229492,-0.5341243743896484
1761399801317374200,12.100374267578125,-0.535261869430542,-0.785186767578125,1.315953254699707
1761399801337536500,12.12053662109375,-1.0018181800842285,0.446988582611084,3.0653076171875
1761399801357698800,12.14069873046875,-1.781759262084961,0.9243350028991699,4.128101348876953
1761399801377859600,12.160859619140625,-1.1281142234802246,1.0878496170043945,4.97066593170166
1761399801398018300,12.181018310546875,-0.9633982181549072,1.0946698188781738,4.810301780700684
1761399801418158600,12.20115869140625,-1.1546581983566284,1.3595857620239258,4.544038772583008
1761399801438345700,12.221345703125,-1.3430688381195068,1.9253735542297363,4.655521392822266
1761399801458504200,12.241504150390625,-1.5855364799499512,2.007279396057129,4.9216389656066895
1761399801478669600,12.261669677734375,-1.551885962486267,1.9927449226379395,4.9812116622924805
1761399801498831000,12.2818310546875,-1.0848252773284912,1.861257553100586,4.840604782104492
1761399801518989300,12.3019892578125,-0.5001547336578369,1.5811543464660645,4.439406394958496
1761399801539130400,12.32213037109375,-0.015395045280456543,1.5442867279052734,3.779914379119873
1761399801559318300,12.342318359375,1.1264572143554688,1.2773895263671875,2.535933017730713
1761399801579479800,12.362479736328124,3.0181961059570312,0.092498779296875,0.048933982849121094
1761399801599641600,12.3826416015625,4.053560256958008,-2.7289743423461914,-3.123488426208496
1761399801619803400,12.402803466796875,2.809922456741333,-5.255102157592773,-5.892031192779541
1761399801639965400,12.42296533203125,2.921907424926758,-2.061896324157715,-6.476179599761963
1761399801660113700,12.44311376953125,5.96815299987793,-0.739649772644043,-5.203954696655273
1761399801680289300,12.463289306640625,4.016670227050781,-7.714059829711914,-3.4261574745178223
1761399801700451600,12.48345166015625,2.404651641845703,-8.714035987854004,0.981532096862793
1761399801720609300,12.503609375,-5.35584831237793,-1.5667123794555664,4.9923906326293945
1761399801740775200,12.523775146484375,-1.320317029953003,4.395943641662598,9.337286949157715
1761399801760937500,12.5439375,1.5759402513504028,4.825747489929199,8.981904029846191
1761399801781095400,12.564095458984376,-1.5218602418899536,2.629627227783203,7.912034034729004
1761399801801222100,12.58422216796875,-2.743478298187256,-4.773797988891602,4.82478141784668
1761399801821423000,12.604423095703124,-5.55124568939209,-8.117852210998535,0.637852668762207
1761399801841562000,12.62456201171875,-1.3063795566558838,-5.808366775512695,-2.1649627685546875
1761399801861747700,12.644747802734376,-0.44446825981140137,-1.1694717407226562,0.6637372970581055
1761399801881909500,12.664909423828124,1.198313593864441,-0.6023187637329102,3.141651153564453
1761399801902071800,12.68507177734375,1.1346884965896606,-2.295517921447754,5.119187355041504
1761399801922208300,12.705208251953126,-0.25617659091949463,-2.5803794860839844,3.522707939147949
1761399801942367200,12.7253671875,-0.9047647714614868,-0.9523324966430664,2.053116798400879
1761399801962557000,12.745556884765625,-1.3352177143096924,0.24818992614746094,0.8893909454345703
1761399801982694100,12.765694091796876,-0.3905869722366333,1.1603946685791016,0.15150976181030273
1761399802002881800,12.7858818359375,0.44497132301330566,1.0631074905395508,0.1671772003173828
1761399802023018500,12.8060185546875,1.0407016277313232,0.268096923828125,0.1627352237701416
1761399802043202000,12.8262021484375,1.658020257949829,-0.11180496215820312,0.19945049285888672
1761399802063367700,12.84636767578125,1.2809274196624756,0.012235641479492188,0.04875969886779785
1761399802083529700,12.86652978515625,1.0524351596832275,0.5375041961669922,-0.5418069362640381
1761399802103687200,12.886687255859375,1.383742332458496,1.0811948776245117,-1.287374496459961
1761399802123852800,12.906852783203124,1.8778215646743774,0.9317450523376465,-1.3012864589691162
1761399802144015400,12.927015380859375,1.7348201274871826,0.6533231735229492,-0.31182241439819336
1761399802164173000,12.947173095703125,1.8147133588790894,0.7597637176513672,0.20759201049804688
1761399802184338400,12.96733837890625,1.8869636058807373,0.03465461730957031,-0.21348094940185547
1761399802204491300,12.9874912109375,1.9282410144805908,-0.2810344696044922,-0.8253495693206787
1761399802224663300,13.007663330078126,1.9950249195098877,-0.1876354217529297,-0.9558110237121582
1761399802244825600,13.02782568359375,1.9828909635543823,0.05912590026855469,-1.728095531463623
1761399802264986600,13.047986572265625,1.5683982372283936,0.18535137176513672,-2.437746524810791
1761399802285149700,13.068149658203126,1.8820825815200806,-0.26320362091064453,-2.4080073833465576
1761399802305310700,13.088310791015624,0.8095672130584717,-1.2714710235595703,-2.2268714904785156
1761399802325447700,13.10844775390625,-0.07875180244445801,-1.1079444885253906,-2.777822256088257
1761399802345634600,13.128634521484376,0.5140887498855591,-0.8742141723632812,-2.485902786254883
1761399802365771500,13.148771484375,1.8859236240386963,-2.668473243713379,-1.636904001235962
1761399802385933800,13.168933837890625,3.1881723403930664,-4.807121276855469,1.3220818042755127
1761399802406083600,13.18908349609375,2.952883720397949,-4.618748664855957,3.6821131706237793
1761399802426266600,13.2092666015625,1.5205224752426147,-3.2216711044311523,3.899675130844116
1761399802446419700,13.229419677734375,-0.403594434261322,-0.6148891448974609,2.477570056915283
1761399802466607400,13.249607421875,-1.292986273765564,0.6333198547363281,0.451509952545166
1761399802486770000,13.26977001953125,0.09673804044723511,-0.5659675598144531,-1.8021934032440186
1761399802506930400,13.289930419921875,0.3746812343597412,-1.8630456924438477,-1.8847923278808594
1761399802527093200,13.31009326171875,-0.7160171270370483,-0.822514533996582,-0.8363618850708008
1761399802547257900,13.3302578125,-1.1719779968261719,0.04928112030029297,0.278409481048584
1761399802567416600,13.35041650390625,-1.626303791999817,1.1662139892578125,1.2210168838500977
1761399802587578400,13.370578369140626,-1.780649185180664,1.5671687126159668,2.0107853412628174
1761399802607740400,13.390740478515625,-1.2534863948822021,1.6359405517578125,2.0947914123535156
1761399802627903200,13.4109033203125,-1.1828644275665283,1.1122322082519531,2.367239236831665
1761399802648060000,13.431059814453125,-1.2424331903457642,1.4192070960998535,1.5200884342193604
1761399802668229000,13.45122900390625,-1.2415125370025635,1.4489755630493164,1.3130483627319336
1761399802688389000,13.47138916015625,-1.3369004726409912,1.9818010330200195,1.0154223442077637
1761399802708550400,13.49155029296875,-1.3149442672729492,2.527738571166992,1.416247844696045
1761399802728712400,13.51171240234375,-0.9634106159210205,2.6434459686279297,1.7848002910614014
1761399802748874200,13.531874267578125,-0.12798833847045898,2.4630494117736816,1.8082377910614014
1761399802769010400,13.552010498046876,0.7697315216064453,2.323115825653076,1.0564026832580566
1761399802789198800,13.57219873046875,1.509002923965454,2.0718345642089844,-0.02884817123413086
1761399802809360400,13.5923603515625,2.333057403564453,1.0529508590698242,-1.1727113723754883
1761399802829505500,13.612505615234374,2.5963735580444336,-0.7356233596801758,-2.156508445739746
1761399802849684000,13.63268408203125,3.389863967895508,-2.202890396118164,-2.6954917907714844
1761399802869842000,13.652842041015624,3.131852865219116,-2.195195198059082,-2.4930453300476074
1761399802890008600,13.673008544921874,2.1336653232574463,-0.9886131286621094,-1.272402286529541
1761399802910158800,13.693158935546874,1.0436477661132812,0.8082389831542969,-0.38987159729003906
1761399802930328600,13.71332861328125,0.118560791015625,3.4314589500427246,0.5481014251708984
1761399802950469400,13.733469482421874,1.392293930053711,4.570526123046875,1.919820785522461
1761399802970656000,13.753656005859375,0.5696010589599609,-4.418498992919922,0.07700061798095703
1761399802990827800,13.773827880859375,0.2463665008544922,-12.980830192565918,-1.9011073112487793
1761399803010980400,13.79398046875,-0.24010753631591797,-6.379823684692383,-2.0050716400146484
1761399803031142700,13.814142578125,-1.8987884521484375,3.881021022796631,0.5948381423950195
1761399803051305000,13.834304931640625,-5.481513023376465,4.339690208435059,2.2637672424316406
1761399803071466800,13.854466796875,-5.936374664306641,3.0834102630615234,3.139744281768799
1761399803091627800,13.874627685546875,-5.288475036621094,-0.5463027954101562,1.4508275985717773
1761399803111790300,13.894790283203125,-4.406966209411621,-2.613697052001953,-0.5892007350921631
1761399803131952600,13.91495263671875,-2.968862533569336,-0.7234945297241211,-1.263094186782837
1761399803152114700,13.93511474609375,-1.0243884325027466,0.5893592834472656,-0.8034083843231201
1761399803172276700,13.95527685546875,-0.3077133893966675,-0.08020305633544922,1.433845043182373
1761399803192412400,13.975412353515624,-0.16133993864059448,-1.2805233001708984,2.391201972961426
1761399803212599800,13.995599853515625,-0.08931857347488403,-1.1898994445800781,2.0330166816711426
1761399803232775200,14.015775146484375,0.3604798913002014,-0.1912555694580078,1.3767566680908203
1761399803252920300,14.03592041015625,0.25790101289749146,0.8534660339355469,0.8332676887512207
1761399803273085700,14.056085693359375,-0.601186215877533,1.504002571105957,-0.08197689056396484
1761399803293248300,14.076248291015625,-1.3346993923187256,1.545435905456543,-1.0955312252044678
1761399803313410300,14.096410400390624,-0.7879400253295898,1.2366437911987305,-1.4258875846862793
1761399803333552000,14.11655224609375,0.4045167565345764,0.6128511428833008,-1.1327645778656006
1761399803353734000,14.13673388671875,0.9089770317077637,0.23252296447753906,-1.0483436584472656
1761399803373889500,14.1568896484375,0.33808964490890503,0.44951820373535156,-1.5907025337219238
1761399803394058200,14.177058349609375,-0.48029661178588867,0.855473518371582,-1.685349464416504
1761399803414220300,14.19722021484375,-0.7689936757087708,0.22951030731201172,-1.0100457668304443
1761399803434382300,14.21738232421875,0.2222280204296112,-0.1223917007446289,-0.2956125736236572
1761399803454518800,14.237518798828125,1.46531081199646,-1.39715576171875,0.09601473808288574
1761399803474706200,14.2577060546875,1.0009514093399048,-0.23751258850097656,-1.5385568141937256
1761399803494868200,14.2778681640625,0.06385934352874756,0.5305013656616211,-2.9120500087738037
1761399803515030500,14.298030517578125,-0.05513572692871094,-0.03361320495605469,-2.5173208713531494
1761399803535192300,14.3181923828125,0.2583530843257904,-0.24234294891357422,-2.2652556896209717
1761399803555354400,14.338354248046874,-0.5137785077095032,0.37270069122314453,-2.8059661388397217
1761399803575516200,14.35851611328125,-1.1773256063461304,-0.10358142852783203,-3.9129292964935303
1761399803595678000,14.378677978515626,-1.281393051147461,-0.33194923400878906,-4.591789245605469
1761399803615840300,14.39884033203125,-0.15584015846252441,-0.8788957595825195,-3.20220947265625
1761399803635976200,14.41897607421875,1.1984562873840332,-2.6156320571899414,-0.8101365566253662
1761399803656164400,14.439164306640626,-0.9491035342216492,-3.2804365158081055,0.5004563331604004
1761399803676300300,14.45930029296875,-3.2712907791137695,-3.6030120849609375,0.5402693748474121
1761399803696488000,14.479488037109375,-4.675927639007568,-2.6112918853759766,0.014624595642089844
1761399803716625700,14.499625732421874,-4.156289577484131,-1.2769527435302734,-1.3922450542449951
1761399803736811300,14.519811279296874,-2.8558807373046875,-0.7956666946411133,-2.514697790145874
1761399803756948200,14.5399482421875,-4.0920610427856445,-0.5163683891296387,-2.8874378204345703
1761399803777135900,14.560135986328126,-5.311463356018066,-0.8297653198242188,-2.9774603843688965
1761399803797297700,14.580297607421874,-6.307236671447754,-1.1804518699645996,-2.350085735321045
1761399803817437000,14.60043701171875,-5.994990348815918,-0.9740085601806641,-0.8154487609863281
1761399803837621500,14.62062158203125,-5.640135765075684,-0.49167346954345703,0.3757925033569336
1761399803857784000,14.6407841796875,-5.260582447052002,-0.4195399284362793,1.1372575759887695
1761399803877945900,14.66094580078125,-5.3514533042907715,-0.8406286239624023,1.2025041580200195
1761399803898103000,14.68110302734375,-4.777339935302734,-1.224013328552246,1.2663583755493164
1761399803918270000,14.70127001953125,-4.494696140289307,-1.338881015777588,1.2105252742767334
1761399803938431700,14.721431640625,-3.909372568130493,-0.7584233283996582,1.7985899448394775
1761399803958567700,14.741567626953126,-3.282973051071167,-0.9569172859191895,2.274468183517456
1761399803978755800,14.761755859375,-2.8550689220428467,-1.7673401832580566,2.0216526985168457
1761399803998917600,14.781917724609375,-2.3326611518859863,-2.489485740661621,1.5124294757843018
1761399804019074800,14.80207470703125,-1.7699103355407715,-2.7007675170898438,1.714996337890625
1761399804039241500,14.822241455078125,-1.8244640827178955,-1.823237419128418,1.955169916152954
1761399804059403500,14.842403564453125,-1.6633777618408203,-0.8341684341430664,2.3074986934661865
1761399804079561700,14.862561767578125,-0.933815598487854,0.053661346435546875,2.5588831901550293
1761399804099727600,14.8827275390625,-0.2685527801513672,0.8759160041809082,2.132688522338867
1761399804119843800,14.90284375,-0.5342812538146973,0.9375228881835938,0.7232866287231445
1761399804140051000,14.923051025390626,-0.9175782203674316,0.535771369934082,-0.576115608215332
1761399804160213500,14.943213623046875,-1.269200325012207,0.2718772888183594,-1.0954294204711914
1761399804180375600,14.96337548828125,-1.4076496362686157,0.19367027282714844,-0.36156320571899414
1761399804200536800,14.983536865234376,-1.589705467224121,0.22887754440307617,0.5272717475891113
1761399804220698600,15.00369873046875,-1.1961250305175781,0.21315670013427734,0.9365324974060059
1761399804240861000,15.02386083984375,-0.46982598304748535,-0.04146862030029297,0.8205642700195312
1761399804261022700,15.044022705078126,0.14692139625549316,-0.18986892700195312,0.6491336822509766
1761399804281181200,15.06418115234375,0.9901515245437622,-0.22689056396484375,0.7434968948364258
1761399804301347300,15.084347412109375,1.1678317785263062,0.4312553405761719,0.6358237266540527
1761399804321509400,15.10450927734375,0.7198730707168579,1.7612404823303223,0.5254921913146973
1761399804341667000,15.1246669921875,0.3159804940223694,0.6920232772827148,0.0804896354675293
1761399804361832700,15.144832763671875,-2.7115819454193115,-13.435138702392578,-4.59911584854126
1761399804381994200,15.164994140625,0.020491719245910645,-9.82962417602539,-3.49601411819458
1761399804402134500,15.185134521484375,0.5671311616897583,-1.5870428085327148,0.5686473846435547
1761399804422318800,15.20531884765625,-2.0521788597106934,-0.2715339660644531,2.872866630554199
1761399804442457300,15.225457275390625,-5.003183841705322,1.956705093383789,5.36147928237915
1761399804462642200,15.24564208984375,-4.0976152420043945,2.756711959838867,7.6130757331848145
1761399804482804700,15.2658046875,-3.761871814727783,-0.25379085540771484,7.147871017456055
1761399804502966800,15.285966796875,-3.72512149810791,-3.8250370025634766,5.333262920379639
1761399804523103500,15.306103515625,-1.8652846813201904,-5.477912902832031,1.2570452690124512
1761399804543291000,15.326290771484375,-0.6332607865333557,-2.0422420501708984,0.9729747772216797
1761399804563452700,15.34645263671875,-1.17426335811615,0.21330547332763672,2.5939693450927734
1761399804583614500,15.366614501953125,-2.049553394317627,0.20810985565185547,3.457969903945923
1761399804603772400,15.3867724609375,-2.473667621612549,-0.24330902099609375,3.0488569736480713
1761399804623938600,15.4069384765625,-2.0936334133148193,-0.6233854293823242,2.3066153526306152
1761399804644100900,15.427100830078125,-1.4076939821243286,-1.1082124710083008,1.5316214561462402
1761399804664284400,15.447284423828124,-1.0324524641036987,-1.311697006225586,0.9871182441711426
1761399804684424000,15.467423828125,-0.8497077226638794,-1.0136518478393555,0.9081320762634277
1761399804704561000,15.487560791015625,-0.9076098799705505,-0.4910297393798828,1.0440483093261719
1761399804724748500,15.50774853515625,-1.1472728252410889,-0.30111026763916016,1.7198514938354492
1761399804744910300,15.527910400390626,-1.406376838684082,-0.4323463439941406,1.9880034923553467
1761399804765069300,15.5480693359375,-1.4426274299621582,-0.4704437255859375,1.397958755493164
1761399804785234000,15.56823388671875,-0.9907060861587524,-0.2912588119506836,0.9654552936553955
1761399804805396000,15.58839599609375,0.18273621797561646,-0.11875629425048828,1.1523175239562988
1761399804825558000,15.60855810546875,0.8049750924110413,-0.25176525115966797,0.8951053619384766
1761399804845720000,15.628719970703125,0.5291822552680969,-0.4678335189819336,0.45473265647888184
1761399804865882000,15.648882080078126,-0.4259432554244995,-0.9045257568359375,0.06635451316833496
1761399804886044400,15.66904443359375,-1.4650640487670898,-0.8633222579956055,0.450115442276001
1761399804906180400,15.689180419921875,-2.2899489402770996,-0.3481874465942383,0.6969106197357178
1761399804926368800,15.70936865234375,-2.2103960514068604,-0.2937746047973633,1.1769416332244873
1761399804946550800,15.72955078125,-0.5947662591934204,-0.6153154373168945,2.383840560913086
1761399804966692400,15.7496923828125,0.010926425457000732,-0.4297199249267578,2.11594820022583
1761399804986854000,15.76985400390625,-0.16814768314361572,-0.1646718978881836,1.385482668876648
1761399805007015700,15.790015625,-0.06070050597190857,-0.3239784240722656,1.1714285612106323
1761399805027178000,15.810177978515625,0.3142351806163788,-0.3495054244995117,1.47742760181427
1761399805047340300,15.83034033203125,0.3148817718029022,-0.1737070083618164,1.3760305643081665
1761399805067501800,15.850501708984375,0.18528297543525696,-0.1541757583618164,0.8523588180541992
1761399805087663900,15.870663818359375,0.2044472098350525,-0.04683113098144531,0.7042406797409058
1761399805107795700,15.890795654296875,0.4191930890083313,-0.10251235961914062,0.37240004539489746
1761399805127993000,15.9109931640625,0.560288667678833,-0.3171968460083008,0.17443323135375977
1761399805148124700,15.931124755859376,0.9271532297134399,-0.1140890121459961,0.5173848867416382
1761399805168308000,15.951307861328125,1.057084560394287,-0.1483469009399414,0.4699265956878662
1761399805188474000,15.97147412109375,0.916561484336853,-0.029952049255371094,0.38155055046081543
1761399805208636200,15.99163623046875,0.6873025894165039,0.05992412567138672,0.14977526664733887
1761399805228798500,16.011798583984376,0.36466705799102783,0.11189842224121094,-0.04603385925292969
1761399805248934100,16.03193408203125,0.25463318824768066,0.030722618103027344,-0.18918681144714355
1761399805269121500,16.05212158203125,0.18354296684265137,-0.19985103607177734,-0.15855693817138672
1761399805289258500,16.072258544921876,0.2333737015724182,0.04158210754394531,0.026287555694580078
1761399805309446400,16.0924462890625,0.2868354320526123,0.2702760696411133,0.1934415102005005
1761399805329608200,16.112608154296876,0.22336769104003906,0.11733436584472656,0.1001429557800293
1761399805349770200,16.132770263671876,0.14855533838272095,0.09084796905517578,0.04881930351257324
1761399805369931800,16.152931884765625,0.05258551239967346,0.1536388397216797,0.0780036449432373
1761399805390094000,16.173093994140626,-0.20535409450531006,0.020641326904296875,0.004942178726196289
1761399805410255600,16.193255615234374,-0.21132129430770874,-0.30711841583251953,-0.014095544815063477
1761399805430413000,16.2134130859375,0.13610410690307617,0.15784263610839844,-0.32851123809814453
1761399805450579000,16.233578857421875,0.29916495084762573,0.19448471069335938,-0.46165990829467773
1761399805470741800,16.25374169921875,0.13138347864151,0.3560819625854492,-0.5260789394378662
1761399805490900000,16.27389990234375,0.0608668327331543,0.363922119140625,-0.7917191982269287
1761399805511040000,16.2940400390625,0.04178324341773987,0.114532470703125,-0.9082250595092773
1761399805531228000,16.314227783203126,0.08251813054084778,0.17792415618896484,-0.7710862159729004
1761399805551390000,16.334389892578123,0.07818269729614258,0.27600574493408203,-0.6024956703186035
1761399805571551200,16.35455126953125,0.10365065932273865,0.21398639678955078,-0.520449161529541
1761399805591693300,16.374693359375,0.0635143518447876,0.149444580078125,-0.5932204723358154
1761399805611875600,16.39487548828125,0.03804723918437958,0.06951713562011719,-0.4462251663208008
1761399805632030500,16.415030517578124,-0.031795382499694824,0.10181236267089844,-0.3795192241668701
1761399805652173800,16.435173828125,-0.013697504997253418,0.21184158325195312,-0.37069010734558105
1761399805672324000,16.455323974609374,-0.05502237379550934,0.182586669921875,-0.1810011863708496
1761399805692507000,16.4755068359375,-0.0277596116065979,0.16489601135253906,-0.02097940444946289
1761399805712685600,16.495685546875,-0.06483551114797592,-0.10010051727294922,-0.12043476104736328
1761399805732847400,16.515847412109373,-0.07457510381937027,0.008660316467285156,-0.1771862506866455
1761399805753005300,16.53600537109375,-0.04116047918796539,0.09456062316894531,-0.26346540451049805
1761399805773171500,16.55617138671875,-0.015040576457977295,0.08754253387451172,-0.2583322525024414
1761399805793332700,16.576332763671875,-0.010464638471603394,-0.03500938415527344,-0.26405787467956543
1761399805813490700,16.59649072265625,-0.0642198771238327,0.04437828063964844,-0.3226923942565918
1761399805833656000,16.616656005859376,-0.05003301799297333,0.20975685119628906,-0.41733622550964355
1761399805853819400,16.6368193359375,-0.0426105335354805,0.2487659454345703,-0.4159891605377197
1761399805873981400,16.6569814453125,0.0017396360635757446,0.21860694885253906,-0.465099573135376
1761399805894118000,16.677117919921876,-0.22130036354064941,0.12502002716064453,-0.2938990592956543
1761399805914305000,16.697304931640623,-0.01890304684638977,-0.027181625366210938,-0.07574987411499023
1761399805934465000,16.717465087890623,0.07642129063606262,-0.07563400268554688,-0.14380717277526855
1761399805954628600,16.737628662109376,0.0782344788312912,0.04231452941894531,-0.2860102653503418
1761399805974775800,16.75777587890625,0.014157943427562714,0.009675979614257812,-0.3792910575866699
