time,seconds_elapsed,z,y,x
1761399789333558500,0.11655859375,-0.008526799269020557,-0.02646305412054062,-0.0662325769662857
1761399789343642600,0.126642578125,-0.013456354849040508,-0.018385911360383034,-0.06987978518009186
1761399789353725200,0.13672509765625,-0.01640409603714943,-0.0103087667375803,-0.07269429415464401
1761399789363826200,0.146826171875,-0.01712021417915821,-0.0074942572973668575,-0.07382676005363464
1761399789373911000,0.1569111328125,-0.01740333065390587,-0.006644907873123884,-0.07525899261236191
1761399789383992000,0.166991943359375,-0.014955206774175167,-0.003097626380622387,-0.07697434723377228
1761399789394073300,0.1770732421875,-0.013456354849040508,0.0012990045361220837,-0.08022186160087585
1761399789404154000,0.187154052734375,-0.01475535985082388,0.00962595734745264,-0.0826866403222084
1761399789414235000,0.19723486328125,-0.015837863087654114,0.014888591133058071,-0.08325286954641342
1761399789424317000,0.20731689453125,-0.016270864754915237,0.015488131903111935,-0.08060489594936371
1761399789434393300,0.217393310546875,-0.014938552863895893,0.016004402190446854,-0.07762385159730911
1761399789444478200,0.227478271484375,-0.014322358183562756,0.02141692116856575,-0.0737268403172493
1761399789454559000,0.23755908203125,-0.012990045361220837,0.028744639828801155,-0.07126206159591675
1761399789464640000,0.247639892578125,-0.011541156098246574,0.03907006233930588,-0.07067917287349701
1761399789474721500,0.257721435546875,-0.011374616995453835,0.04981182888150215,-0.07029613107442856
1761399789484802000,0.267802001953125,-0.01333977747708559,0.05585719645023346,-0.06943012773990631
1761399789494883800,0.2778837890625,-0.018169410526752472,0.05710623785853386,-0.07014624774456024
1761399789504965000,0.287965087890625,-0.021350305527448654,0.06090332940220833,-0.07582522928714752
1761399789515045000,0.298045166015625,-0.02847817726433277,0.06606604158878326,-0.09073047339916229
1761399789525127000,0.308126953125,-0.03973621875047684,0.0732438713312149,-0.10953272879123688
1761399789535207700,0.318207763671875,-0.052959416061639786,0.07575861364603043,-0.13124942779541016
1761399789545288200,0.3282880859375,-0.061369638890028,0.07460949569940567,-0.1537654995918274
1761399789555369200,0.338369140625,-0.06483364850282669,0.07242783159017563,-0.1702861785888672
1761399789565450500,0.348450439453125,-0.06661561876535416,0.06370118260383606,-0.18081144988536835
1761399789575506200,0.358506103515625,-0.06819774210453033,0.05882159247994423,-0.18211044371128082
1761399789585612800,0.36861279296875,-0.07341041415929794,0.06561638414859772,-0.17599846422672272
1761399789595693800,0.37869384765625,-0.07715754210948944,0.08363591134548187,-0.16902047395706177
1761399789605737700,0.38873779296875,-0.07760719954967499,0.10433671623468399,-0.1652899980545044
1761399789615855400,0.39885546875,-0.07579191774129868,0.11716022342443466,-0.16215907037258148
1761399789625936600,0.4089365234375,-0.07522568851709366,0.12160681188106537,-0.160427063703537
1761399789635992600,0.41899267578125,-0.07432637363672256,0.12980052828788757,-0.15991079807281494
1761399789646098700,0.4290986328125,-0.07585853338241577,0.14212442934513092,-0.16319161653518677
1761399789656179500,0.439179443359375,-0.08050497621297836,0.15912805497646332,-0.16822108626365662
1761399789666261000,0.449260986328125,-0.08446860313415527,0.18852220475673676,-0.1793958693742752
1761399789676341500,0.459341552734375,-0.0906638577580452,0.20920635759830475,-0.1957000344991684
1761399789686422500,0.469422607421875,-0.09894084930419922,0.22009800374507904,-0.21168778836727142
1761399789696503600,0.479503662109375,-0.10450325161218643,0.23310470581054688,-0.21871572732925415
1761399789706584800,0.489584716796875,-0.10453656315803528,0.24805991351604462,-0.20940619707107544
1761399789716665900,0.499665771484375,-0.10032312572002411,0.2680279314517975,-0.19067054986953735
1761399789726746400,0.509746337890625,-0.09154651314020157,0.2901943027973175,-0.1725844144821167
1761399789736806100,0.51980615234375,-0.08516807109117508,0.3062819540500641,-0.15901148319244385
1761399789746908700,0.52990869140625,-0.08361925929784775,0.3209540545940399,-0.14735375344753265
1761399789756981800,0.539981689453125,-0.08396898955106735,0.3351098597049713,-0.13821075856685638
1761399789767049500,0.550049560546875,-0.08528464287519455,0.3421877920627594,-0.131066232919693
1761399789777151700,0.56015185546875,-0.08405225723981857,0.33514317870140076,-0.12490428984165192
1761399789787193000,0.570193115234375,-0.08003866672515869,0.3146921992301941,-0.11750995367765427
1761399789797314300,0.580314208984375,-0.07819008082151413,0.29487404227256775,-0.11309666931629181
1761399789807394600,0.59039453125,-0.08017189800739288,0.2777038514614105,-0.11129804700613022
1761399789817476600,0.6004765625,-0.0831696018576622,0.2612997591495514,-0.11321324855089188
1761399789827556600,0.610556640625,-0.08873200416564941,0.2526230812072754,-0.11597779393196106
1761399789837612500,0.620612548828125,-0.09685911238193512,0.244296133518219,-0.12412155419588089
1761399789847720000,0.630719970703125,-0.10894984751939774,0.2329881340265274,-0.13990946114063263
1761399789857761000,0.640760986328125,-0.12130704522132874,0.2177165001630783,-0.16052699089050293
1761399789867881500,0.650881591796875,-0.13109953701496124,0.19423449039459229,-0.1838258057832718
1761399789877961700,0.660961669921875,-0.13719487190246582,0.17010298371315002,-0.20837365090847015
1761399789888019700,0.671019775390625,-0.14132504165172577,0.15171706676483154,-0.22449463605880737
1761399789898119700,0.68111962890625,-0.147670179605484,0.14825305342674255,-0.22884130477905273
1761399789908179700,0.6911796875,-0.16034379601478577,0.1521833837032318,-0.223611980676651
1761399789918286300,0.701286376953125,-0.17663131654262543,0.16059359908103943,-0.2081238478422165
1761399789928366600,0.71136669921875,-0.1924358755350113,0.1730673760175705,-0.19471745193004608
1761399789938444800,0.72144482421875,-0.208623468875885,0.17919601500034332,-0.18330952525138855
1761399789948528600,0.731528564453125,-0.2280585765838623,0.17569869756698608,-0.1721014529466629
1761399789958609400,0.741609375,-0.24667763710021973,0.1694534868001938,-0.16818778216838837
1761399789968691200,0.751691162109375,-0.25948449969291687,0.17198488116264343,-0.1707857996225357
1761399789978771700,0.761771728515625,-0.2704594135284424,0.18324291706085205,-0.1795957088470459
1761399789988875000,0.771875,-0.2808847725391388,0.20032982528209686,-0.18567438423633575
1761399789998929700,0.7819296875,-0.2925424873828888,0.2317390888929367,-0.17852985858917236
1761399790009014500,0.7920146484375,-0.30549922585487366,0.2777038514614105,-0.1562635898590088
1761399790019095800,0.802095703125,-0.31758996844291687,0.32318568229675293,-0.11914203315973282
1761399790029176800,0.8121767578125,-0.3258669674396515,0.3561937212944031,-0.07049597799777985
1761399790039257600,0.822257568359375,-0.3307798504829407,0.3697666525840759,-0.012507082894444466
1761399790049339000,0.8323388671875,-0.3264165222644806,0.369183748960495,0.05129402503371239
1761399790059419600,0.842419677734375,-0.31156125664711,0.3661361038684845,0.11319658905267715
1761399790069496600,0.85249658203125,-0.2913101017475128,0.37118223309516907,0.16056029498577118
1761399790079582200,0.862582275390625,-0.2719249725341797,0.37819352746009827,0.1930021047592163
1761399790089663200,0.872663330078125,-0.2524398863315582,0.39101701974868774,0.20942285656929016
1761399790099744000,0.882743896484375,-0.2334710955619812,0.4001433849334717,0.21615102887153625
1761399790109824800,0.89282470703125,-0.21533499658107758,0.3940980136394501,0.22161351144313812
1761399790119906600,0.902906494140625,-0.19495061039924622,0.37742745876312256,0.23085643351078033
1761399790129983000,0.91298291015625,-0.17100229859352112,0.35902488231658936,0.24566175043582916
1761399790140068400,0.923068359375,-0.139126718044281,0.33451032638549805,0.26238226890563965
1761399790150148900,0.93314892578125,-0.08042170852422714,0.2799188196659088,0.27813687920570374
1761399790160230100,0.943230224609375,0.012540390715003014,0.15171706676483154,0.28792935609817505
1761399790170311200,0.953311279296875,0.0951770693063736,-0.07229460030794144,0.289777934551239
1761399790180392400,0.963392333984375,0.13742801547050476,-0.36054039001464844,0.2961563766002655
1761399790190473200,0.97347314453125,0.1784798949956894,-0.5947608947753906,0.30613207817077637
1761399790200550100,0.983550048828125,0.256436824798584,-0.693501889705658,0.3113780617713928
1761399790210636000,0.993635986328125,0.3635880649089813,-0.6571797132492065,0.3184226453304291
1761399790220716000,1.003716064453125,0.47092247009277344,-0.5316925644874573,0.35424521565437317
1761399790230797300,1.01379736328125,0.5532427430152893,-0.3707325756549835,0.4665258228778839
1761399790240852700,1.023852783203125,0.62538743019104,-0.2131200134754181,0.6944178938865662
1761399790250958800,1.033958740234375,0.7209142446517944,-0.07361026108264923,1.078290343284607
1761399790261036300,1.044036376953125,0.8367254734039307,-0.01615428738296032,1.471955418586731
1761399790271121000,1.054120849609375,0.9034743309020996,-0.06518338620662689,1.7015295028686523
1761399790281202000,1.064201904296875,0.9601808786392212,-0.12623660266399384,1.763648509979248
1761399790291283200,1.074283203125,1.0619195699691772,-0.07321056723594666,1.7498091459274292
1761399790301364200,1.0843642578125,1.2026283740997314,0.1593279093503952,1.8121613264083862
1761399790311445000,1.094445068359375,1.328831672668457,0.5131068229675293,1.9806156158447266
1761399790321522200,1.104522216796875,1.4101860523223877,0.8366755247116089,2.1098997592926025
1761399790331607000,1.11460693359375,1.4564173221588135,1.113097071647644,2.0823709964752197
1761399790341688000,1.12468798828125,1.4633285999298096,1.3218203783035278,1.8829903602600098
1761399790351725300,1.134725341796875,1.4304205179214478,1.2562873363494873,1.6330652236938477
1761399790361851100,1.14485107421875,1.3551782369613647,0.9309366345405579,1.4704399108886719
1761399790371931100,1.15493115234375,1.2568036317825317,0.654615044593811,1.42913818359375
1761399790381987000,1.164987060546875,1.1974990367889404,0.5213338136672974,1.463645100593567
1761399790392088600,1.175088623046875,1.193552017211914,0.42983728647232056,1.4780340194702148
1761399790402174500,1.185174560546875,1.2187327146530151,0.3881359100341797,1.4418784379959106
1761399790412242700,1.19524267578125,1.2070749998092651,0.3875363767147064,1.3856215476989746
1761399790422336500,1.20533642578125,1.1608604192733765,0.39068394899368286,1.271425724029541
1761399790432397300,1.215397216796875,1.136395812034607,0.378343403339386,1.0932788848876953
1761399790442498300,1.225498291015625,1.1479870080947876,0.3784266710281372,0.8987279534339905
1761399790452575200,1.2355751953125,1.1989645957946777,0.38332292437553406,0.7228127717971802
1761399790462657300,1.2456572265625,1.2526568174362183,0.3529461920261383,0.587449848651886
1761399790472723500,1.255723388671875,1.2667126655578613,0.2760384678840637,0.47773391008377075
1761399790482823000,1.265822998046875,1.2206978797912598,0.2469274401664734,0.4000767469406128
1761399790492903200,1.275903076171875,1.164474368095398,0.21456891298294067,0.3557940125465393
1761399790502984400,1.285984375,1.1002901792526245,0.15185029804706573,0.35512787103652954
1761399790513065200,1.296065185546875,0.9809982776641846,0.0749758780002594,0.42149367928504944
1761399790523142400,1.306142333984375,0.7886456847190857,-0.008876531384885311,0.5418181419372559
1761399790533227300,1.316227294921875,0.5499951839447021,-0.03698832169175148,0.6783301830291748
1761399790543283000,1.326282958984375,0.3366920053958893,0.025080781430006027,0.7762051820755005
1761399790553390000,1.33639013671875,0.1886221319437027,0.16407427191734314,0.8094630241394043
1761399790563470800,1.346470947265625,0.0778236985206604,0.34605148434638977,0.7814345359802246
1761399790573551400,1.35655126953125,-0.0054125189781188965,0.5297940373420715,0.6992308497428894
1761399790583628000,1.3666279296875,-0.07201148569583893,0.6965662240982056,0.576191782951355
1761399790593713400,1.37671337890625,-0.14159150421619415,0.8063487410545349,0.43928003311157227
1761399790603794200,1.386794189453125,-0.20502622425556183,0.8458185195922852,0.2973388135433197
1761399790613875200,1.396875244140625,-0.28668031096458435,0.7876297831535339,0.17538227140903473
1761399790623933000,1.406932861328125,-0.3722980320453644,0.7126705646514893,0.05915467068552971
1761399790634012200,1.41701220703125,-0.45891499519348145,0.672318160533905,-0.07958900928497314
1761399790644115000,1.427114990234375,-0.5616196393966675,0.6908705830574036,-0.2487427294254303
1761399790654200300,1.437200439453125,-0.6859743595123291,0.7581523656845093,-0.43088647723197937
1761399790664280600,1.447280517578125,-0.8396065831184387,0.8688008785247803,-0.5962264537811279
1761399790674361600,1.457361572265625,-1.0135066509246826,0.9898747801780701,-0.7042103409767151
1761399790684465000,1.46746484375,-1.1534661054611206,1.0901646614074707,-0.725477397441864
1761399790694523400,1.4775234375,-1.1881061792373657,1.099923849105835,-0.6238052845001221
1761399790704582700,1.487582763671875,-1.0703297853469849,0.9307534098625183,-0.35709303617477417
1761399790714680300,1.497680419921875,-0.8083805441856384,0.6494356989860535,0.0481797456741333
1761399790724784000,1.5077841796875,-0.45198696851730347,0.46232905983924866,0.4116179049015045
1761399790734848300,1.51784814453125,-0.09317860007286072,0.5017155408859253,0.5700298547744751
1761399790744929000,1.527928955078125,0.10491959750652313,0.7081406712532043,0.583119809627533
1761399790754985200,1.537985107421875,0.11487863212823868,0.8751793503761292,0.5785233378410339
1761399790765073700,1.54807373046875,-0.010841691866517067,0.9959534406661987,0.5316426157951355
1761399790775146500,1.558146484375,-0.208623468875885,1.0084772109985352,0.42197662591934204
1761399790785253600,1.568253662109375,-0.4111349582672119,0.9880095720291138,0.313792884349823
1761399790795333600,1.578333740234375,-0.5913968086242676,1.0910305976867676,0.16289184987545013
1761399790805389000,1.58838916015625,-0.6599942445755005,1.2700767517089844,-0.041851263493299484
1761399790815495700,1.59849560546875,-0.6127637624740601,1.3951975107192993,-0.07146190851926804
1761399790825551400,1.60855126953125,-0.4787331521511078,1.5793896913528442,0.14533862471580505
1761399790835618800,1.618618896484375,-0.19210278987884521,2.0055298805236816,0.24872606992721558
1761399790845713200,1.628713134765625,0.2549379765987396,2.4818649291992188,0.1104486957192421
1761399790855794200,1.638794189453125,0.6835928559303284,2.8861217498779297,-0.07057924568653107
1761399790865875200,1.648875244140625,0.7483265399932861,3.1091673374176025,-0.25640350580215454
1761399790875956200,1.658956298828125,0.41198429465293884,2.8982789516448975,-0.4154316484928131
1761399790886063600,1.669063720703125,-0.13694505393505096,2.2894790172576904,-0.4706726670265198
1761399790896120000,1.6791201171875,-0.5734772086143494,1.533424973487854,-0.40685489773750305
1761399790906206500,1.68920654296875,-0.862605631351471,0.998251736164093,-0.30203521251678467
1761399790916284000,1.699283935546875,-1.0093598365783691,0.9472907781600952,-0.2165340632200241
1761399790926387500,1.709387451171875,-1.0365556478500366,1.22196364402771,-0.2169504165649414
1761399790936468500,1.719468505859375,-0.9696736335754395,1.4992344379425049,-0.2914433479309082
1761399790946526200,1.729526123046875,-0.8812580108642578,1.6480870246887207,-0.4045233428478241
1761399790956629800,1.739629638671875,-0.8037174344062805,1.7281757593154907,-0.542983889579773
1761399790966685400,1.749685546875,-0.7130702137947083,1.8437204360961914,-0.7069416046142578
1761399790976791600,1.75979150390625,-0.5509611368179321,1.9464417695999146,-0.8824238181114197
1761399790986872600,1.76987255859375,-0.3167572617530823,1.9596483707427979,-1.03212571144104
1761399790996928800,1.7799287109375,-0.06734839081764221,2.081188440322876,-1.0745599269866943
1761399791007009800,1.790009765625,0.049995023757219315,2.1531999111175537,-0.9876264929771423
1761399791017095000,1.800094970703125,-0.041984494775533676,2.2027621269226074,-0.8064820170402527
1761399791027199500,1.810199462890625,-0.25835201144218445,2.300520420074463,-0.5986579060554504
1761399791037252600,1.820252685546875,-0.46141308546066284,2.374547004699707,-0.4443594813346863
1761399791047359500,1.830359375,-0.5631517767906189,2.375063419342041,-0.36143970489501953
1761399791057397500,1.8403974609375,-0.520700991153717,2.361623525619507,-0.2855978012084961
1761399791067521800,1.850521728515625,-0.370282918214798,2.339723825454712,-0.1607767939567566
1761399791077602600,1.8606025390625,-0.22581028938293457,2.276505470275879,-0.00874330010265112
1761399791087659300,1.8706591796875,-0.15796229243278503,2.175666093826294,0.08789931237697601
1761399791097774000,1.880774169921875,-0.13567936420440674,1.980149269104004,0.09141328185796738
1761399791107822600,1.890822509765625,-0.11927526444196701,1.7369190454483032,0.00970922689884901
1761399791117926700,1.9009267578125,-0.09327851980924606,1.4737873077392578,-0.09612634032964706
1761399791128005600,1.911005615234375,-0.041817955672740936,1.2880463600158691,-0.16069352626800537
1761399791138074600,1.92107470703125,0.07189490646123886,1.242614507675171,-0.1884222775697708
1761399791148170000,1.931169921875,0.16635584831237793,1.2920931577682495,-0.22717592120170593
1761399791158235100,1.941235107421875,0.1495354175567627,1.3555612564086914,-0.28236696124076843
1761399791168331800,1.951331787109375,0.056423429399728775,1.4086039066314697,-0.3493989109992981
1761399791178412800,1.961412841796875,-0.15476474165916443,1.3960801362991333,-0.4204444885253906
1761399791188492800,1.971492919921875,-0.3991274833679199,1.3740969896316528,-0.4011925756931305
1761399791198573800,1.98157373046875,-0.5930122137069702,1.3619396686553955,-0.3109950125217438
1761399791208650000,1.99164990234375,-0.6593114137649536,1.256587028503418,-0.24481239914894104
1761399791218710800,2.001710693359375,-0.6497853994369507,1.0673487186431885,-0.24183134734630585
1761399791228817200,2.011817138671875,-0.6404924988746643,0.8719651699066162,-0.27140867710113525
1761399791238898200,2.021898193359375,-0.6745331287384033,0.7051929235458374,-0.31487536430358887
1761399791248934000,2.031933837890625,-0.7257438898086548,0.6331814527511597,-0.35755932331085205
1761399791259060200,2.042060302734375,-0.7190156579017639,0.6600275635719299,-0.38413897156715393
1761399791269141500,2.0521416015625,-0.6706194281578064,0.7760053277015686,-0.3645373284816742
1761399791279175700,2.06217578125,-0.61146479845047,0.9125007390975952,-0.2972055971622467
1761399791289277000,2.07227685546875,-0.5582888722419739,1.0350735187530518,-0.20657503604888916
1761399791299358500,2.0823583984375,-0.5109751224517822,1.1251877546310425,-0.13144926726818085
1761399791309465000,2.092465087890625,-0.44640791416168213,1.1729345321655273,-0.06764816492795944
1761399791319546600,2.102546630859375,-0.34278732538223267,1.1629421710968018,-0.019185299053788185
1761399791329618400,2.112618408203125,-0.22625994682312012,1.0977587699890137,0.002781202085316181
1761399791339683000,2.12268310546875,-0.14302372932434082,1.0122909545898438,-0.013689509592950344
1761399791349765600,2.132765625,-0.08530130237340927,0.9011927247047424,-0.05555742606520653
1761399791359844600,2.1428447265625,-0.03389069810509682,0.8117779493331909,-0.07838992774486542
1761399791369952000,2.152951904296875,0.0038803599309176207,0.7537224292755127,-0.0350564680993557
1761399791379991800,2.16299169921875,0.04351665452122688,0.7772544026374817,0.08448526263237
1761399791390113000,2.173113037109375,0.11293012648820877,0.7412819862365723,0.22690945863723755
1761399791400195000,2.183195068359375,0.18297645449638367,0.6930689215660095,0.3922494053840637
1761399791410271200,2.193271240234375,0.23745137453079224,0.7025949358940125,0.5680480599403381
1761399791420356000,2.203356201171875,0.31202757358551025,0.7296908497810364,0.7573862671852112
1761399791430436900,2.213436767578125,0.470272958278656,0.6747496128082275,0.9400296807289124
1761399791440519000,2.223518798828125,0.7501584887504578,0.44982197880744934,1.0669324398040771
1761399791450599700,2.233599609375,1.091546893119812,0.12532062828540802,1.2197320461273193
1761399791460654000,2.243654052734375,1.398328423500061,-0.2037605196237564,1.3996773958206177
1761399791470761000,2.253760986328125,1.6007566452026367,-0.4045233428478241,1.5420516729354858
1761399791480838400,2.26383837890625,1.7257108688354492,-0.27550554275512695,1.7299742698669434
1761399791490924000,2.273924072265625,1.8143264055252075,0.07987212389707565,2.0730948448181152
1761399791501003800,2.284003662109375,1.9009267091751099,0.48566117882728577,2.4980690479278564
1761399791511061000,2.29406103515625,1.9391473531723022,0.9308866858482361,2.9012935161590576
1761399791521167400,2.30416748046875,1.9814815521240234,1.33412766456604,3.140460252761841
1761399791531247400,2.314247314453125,1.7780874967575073,1.774406909942627,3.1640586853027344
1761399791541324300,2.32432421875,1.5289450883865356,1.9905580282211304,2.9665768146514893
1761399791551409400,2.334409423828125,1.3942149877548218,1.8121947050094604,2.611748695373535
1761399791561449200,2.34444921875,1.3364425897598267,1.4104691743850708,2.2829339504241943
1761399791571571200,2.3545712890625,1.305249810218811,0.9565503597259521,2.128002643585205
1761399791581652000,2.36465185546875,1.3900847434997559,0.5882992148399353,2.122906446456909
1761399791591734300,2.374734375,1.4811983108520508,0.49986696243286133,2.1793465614318848
1761399791601810400,2.384810546875,1.4677085876464844,0.49620309472084045,2.164691209793091
1761399791611895000,2.39489501953125,1.4437936544418335,0.4197283685207367,2.0567073822021484
1761399791621976000,2.40497607421875,1.300636649131775,0.29579001665115356,1.9249582290649414
1761399791632057300,2.415057373046875,1.0626856088638306,0.12397167086601257,1.7681950330734253
1761399791642138000,2.42513818359375,0.8552446365356445,-0.09086370468139648,1.521134376525879
1761399791652219100,2.43521923828125,0.7269262671470642,-0.18041175603866577,1.226410150527954
1761399791662300000,2.4452998046875,0.6916033625602722,-0.13847722113132477,0.9723049402236938
1761399791672356400,2.4553564453125,0.6937516927719116,-0.10541921854019165,0.8468177318572998
1761399791682462200,2.465462158203125,0.6881060600280762,-0.18968798220157623,0.8903843760490417
1761399791692543700,2.475543701171875,0.7009128928184509,-0.34848296642303467,1.06480073928833
1761399791702583800,2.485583740234375,0.7495756149291992,-0.5529762506484985,1.2490928173065186
1761399791712705300,2.495705322265625,0.8621559739112854,-0.7121875882148743,1.3296977281570435
1761399791722772200,2.505772216796875,0.9297541975975037,-0.6932520866394043,1.2725415229797363
1761399791732863700,2.51586376953125,0.8643876314163208,-0.5828700065612793,1.099424123764038
1761399791742948600,2.525948486328125,0.7074412107467651,-0.49042418599128723,0.8537291288375854
1761399791753007900,2.5360078125,0.4551845192909241,-0.3905174136161804,0.5989243984222412
1761399791763110400,2.5461103515625,0.1855744570493698,-0.3427540063858032,0.3800754249095917
1761399791773151200,2.556151123046875,-0.034423619508743286,-0.3591248095035553,0.20767419040203094
1761399791783272700,2.566272705078125,-0.2003631293773651,-0.38102468848228455,0.08057159185409546
1761399791793353700,2.576353759765625,-0.3328116238117218,-0.40414029359817505,-0.0053125955164432526
1761399791803408600,2.58640869140625,-0.4542185962200165,-0.417380154132843,-0.05815543606877327
1761399791813515800,2.596515869140625,-0.5596544742584229,-0.403007835149765,-0.0878160372376442
1761399791823563300,2.606563232421875,-0.6748328804969788,-0.35262978076934814,-0.10693472623825073
1761399791833677600,2.616677490234375,-0.7640978097915649,-0.27946916222572327,-0.12896783649921417
1761399791843758300,2.62675830078125,-0.8594080805778503,-0.11506182700395584,-0.19100363552570343
1761399791853816000,2.636816162109375,-0.9923229217529297,0.13304804265499115,-0.3170737028121948
1761399791863882500,2.646882568359375,-1.157263159751892,0.46599289774894714,-0.4797323942184448
1761399791873976000,2.65697607421875,-1.2475106716156006,0.7088068723678589,-0.5487128496170044
1761399791884082700,2.667082763671875,-1.134830355644226,0.7858477830886841,-0.4246079623699188
1761399791894163700,2.677163818359375,-0.9079875349998474,0.7808682918548584,-0.21421918272972107
1761399791904219100,2.68721923828125,-0.627985417842865,0.637877881526947,-0.12691940367221832
1761399791914310400,2.697310302734375,-0.3169237971305847,0.3399561643600464,-0.14628790318965912
1761399791924369200,2.707369140625,-0.04784666746854782,0.14277392625808716,-0.1098991185426712
1761399791934487800,2.71748779296875,0.10118912905454636,0.20587557554244995,0.006811446975916624
1761399791944568300,2.727568359375,0.1930021047592163,0.35394543409347534,0.0894148126244545
1761399791954625000,2.737625,0.29419124126434326,0.42782217264175415,0.10783403366804123
1761399791964730400,2.74773046875,0.3759785592556,0.38811925053596497,0.10432005673646927
1761399791974786000,2.7577861328125,0.3122440576553345,0.2698432207107544,0.0985078439116478
1761399791984892400,2.767892333984375,0.041135143488645554,0.3114946484565735,0.03217534348368645
1761399791994974200,2.77797412109375,-0.2449289709329605,0.5564902424812317,-0.07482599467039108
1761399792005054200,2.78805419921875,-0.49140676856040955,0.5585553050041199,-0.006594946142286062
1761399792015135200,2.79813525390625,-0.6591116189956665,0.7049930691719055,0.07945577800273895
1761399792025205800,2.808205810546875,-0.5913801789283752,1.1271196603775024,-0.0000666156192892231
1761399792035311400,2.818311279296875,-0.22287920117378235,1.817840337753296,-0.37624502182006836
1761399792045356800,2.828356689453125,0.2913101017475128,2.193319320678711,-0.737967848777771
1761399792055460000,2.838460205078125,0.6776140928268433,1.9381648302078247,-0.6487361788749695
1761399792065519400,2.848519287109375,0.7539722323417664,1.5205014944076538,-0.20977258682250977
1761399792075622400,2.858622314453125,0.5571897029876709,1.2086071968078613,0.1982647329568863
1761399792085702700,2.86870263671875,0.19911408424377441,1.0532429218292236,0.36805129051208496
1761399792095779600,2.878779541015625,-0.28493165969848633,0.9888256192207336,0.27717092633247375
1761399792105844000,2.888843994140625,-0.8044002652168274,0.880725085735321,0.05274291709065437
1761399792115912700,2.89891259765625,-1.194867730140686,0.7439965605735779,-0.18997108936309814
1761399792126027500,2.909027587890625,-1.3536460399627686,0.6867071390151978,-0.4412618577480316
1761399792136082400,2.91908251953125,-1.259418249130249,0.803400993347168,-0.6874565482139587
1761399792146165500,2.92916552734375,-0.9826803207397461,1.084135890007019,-0.8595080375671387
1761399792156269800,2.939269775390625,-0.6446393728256226,1.4377483129501343,-0.8913835883140564
1761399792166350600,2.9493505859375,-0.33804094791412354,1.5403863191604614,-0.7995539903640747
1761399792176431000,2.95943115234375,-0.16635584831237793,1.4536694288253784,-0.6456552147865295
1761399792186512400,2.969512451171875,-0.1372448354959488,1.4119013547897339,-0.5627521276473999
1761399792196593400,2.979593505859375,-0.2052926868200302,1.3972625732421875,-0.5942612886428833
1761399792206674700,2.9896748046875,-0.3300970494747162,1.4995841979980469,-0.6776474118232727
1761399792216755500,2.99975537109375,-0.45336925983428955,1.7610172033309937,-0.73528653383255
1761399792226836200,3.009836181640625,-0.5507446527481079,1.9902914762496948,-0.7402660846710205
1761399792236917800,3.019917724609375,-0.621540367603302,2.1188430786132812,-0.6997304558753967
1761399792246998300,3.029998291015625,-0.649535596370697,2.195967197418213,-0.6181596517562866
1761399792257079300,3.040079345703125,-0.6247212886810303,2.1897220611572266,-0.5056291818618774
1761399792267161000,3.0501611328125,-0.557955801486969,2.0945117473602295,-0.36888399720191956
1761399792277241600,3.06024169921875,-0.47057273983955383,1.9604144096374512,-0.22026453912258148
1761399792287322400,3.070322265625,-0.4044733941555023,1.8227366209030151,-0.09061389416456223
1761399792297378300,3.08037841796875,-0.3783600628376007,1.7071584463119507,-0.01803617924451828
1761399792307484400,3.090484375,-0.37734416127204895,1.595860481262207,-0.02241615578532219
1761399792317566200,3.100566162109375,-0.38110795617103577,1.4362328052520752,-0.09451091289520264
1761399792327610000,3.110610107421875,-0.40212517976760864,1.2378513813018799,-0.20154555141925812
1761399792337727500,3.1207275390625,-0.4208275079727173,1.104703426361084,-0.30819717049598694
1761399792347783200,3.130783203125,-0.44905588030815125,1.1050364971160889,-0.39697912335395813
1761399792357864200,3.1408642578125,-0.5312595367431641,1.101689100265503,-0.47370368242263794
1761399792367973400,3.150973388671875,-0.627369225025177,1.1514676809310913,-0.5257138013839722
1761399792378026000,3.16102587890625,-0.724994421005249,1.1770813465118408,-0.5647172331809998
1761399792388129000,3.17112890625,-0.7838326692581177,1.1598279476165771,-0.5841856598854065
1761399792398213000,3.181213134765625,-0.7982715964317322,1.1482701301574707,-0.5645840167999268
1761399792408294700,3.191294677734375,-0.7867971062660217,1.14265775680542,-0.4954869747161865
1761399792418375400,3.20137548828125,-0.7792528867721558,1.0635184049606323,-0.39108365774154663
1761399792428456200,3.211456298828125,-0.8017356395721436,0.9524701237678528,-0.2748560309410095
1761399792438550500,3.221550537109375,-0.8273160457611084,0.8552446365356445,-0.1937681883573532
1761399792448618500,3.231618408203125,-0.8337944149971008,0.8595913052558899,-0.14851951599121094
1761399792458700300,3.2417001953125,-0.7975388765335083,0.8863374590873718,-0.15171706676483154
1761399792468781300,3.25178125,-0.7337377667427063,0.9068883657455444,-0.1886887401342392
1761399792478861600,3.261861572265625,-0.6602607369422913,0.9321856498718262,-0.1997302770614624
1761399792488942300,3.2719423828125,-0.5562071204185486,0.9457086324691772,-0.16897052526474
1761399792499020300,3.282020263671875,-0.47322070598602295,0.9071215391159058,-0.11141462624073029
1761399792509105200,3.292105224609375,-0.3800920844078064,0.9169306755065918,-0.016254210844635963
1761399792519186000,3.30218603515625,-0.2431136965751648,0.9910405874252319,0.05987078696489334
1761399792529266700,3.3122666015625,-0.07547549903392792,1.0078110694885254,0.09342840313911438
1761399792539321900,3.32232177734375,0.04083537310361862,0.9624457955360413,0.1359291672706604
1761399792549428700,3.3324287109375,0.10070616006851196,0.8826236724853516,0.22807522118091583
1761399792559484200,3.342484130859375,0.15020157396793365,0.788179337978363,0.3366253674030304
1761399792569565700,3.352565673828125,0.19200286269187927,0.7582190036773682,0.4201447069644928
1761399792579646200,3.362646240234375,0.21378616988658905,0.7885790467262268,0.476451575756073
1761399792589727200,3.372727294921875,0.2431803196668625,0.8318625688552856,0.5423510670661926
1761399792599808300,3.382808349609375,0.30007004737854004,0.846767783164978,0.6616929173469543
1761399792609889300,3.39288916015625,0.40442341566085815,0.7639479041099548,0.8218202590942383
1761399792619959800,3.402959716796875,0.5620193481445312,0.6073179244995117,0.9592649340629578
1761399792630057700,3.4130576171875,0.7318391799926758,0.5259802937507629,1.0959935188293457
1761399792640141300,3.423141357421875,0.943493664264679,0.40304115414619446,1.2410823106765747
1761399792650222300,3.433222412109375,1.1717687845230103,0.09790830314159393,1.308264136314392
1761399792660320500,3.443320556640625,1.315658450126648,-0.13146592676639557,1.408753752708435
1761399792670400500,3.453400390625,1.385788083076477,-0.10193855315446854,1.6472543478012085
1761399792680481800,3.463481689453125,1.4409124851226807,0.02856144681572914,2.0528268814086914
1761399792690558700,3.473558837890625,1.498002052307129,0.15396535396575928,2.5561745166778564
1761399792700643600,3.4836435546875,1.5388208627700806,0.3454519510269165,3.0512118339538574
1761399792710725600,3.4937255859375,1.538004755973816,0.7096728682518005,3.4298551082611084
1761399792720805600,3.5038056640625,1.468174934387207,1.243363857269287,3.5907483100891113
1761399792730887400,3.513887451171875,1.2984217405319214,1.798421859741211,3.5077786445617676
1761399792740968000,3.523968017578125,1.0938783884048462,2.060704231262207,3.2079250812530518
1761399792751024000,3.534024169921875,0.9674752950668335,2.0351405143737793,2.8080649375915527
1761399792761105200,3.544105224609375,0.9368653893470764,1.889818549156189,2.433551788330078
1761399792771210500,3.55421044921875,0.9896582961082458,1.704993486404419,2.216484785079956
1761399792781254000,3.56425390625,1.0919466018676758,1.5646510124206543,2.192303419113159
1761399792791372500,3.57437255859375,1.1838927268981934,1.4274728298187256,2.2344210147857666
1761399792801409500,3.584409423828125,1.2205480337142944,1.0694471597671509,2.181511640548706
1761399792811534600,3.59453466796875,1.1362459659576416,0.6747329831123352,1.9924066066741943
1761399792821609000,3.60460888671875,1.006345510482788,0.31201091408729553,1.7137867212295532
1761399792831696600,3.614696533203125,0.8448692560195923,0.037421323359012604,1.427089810371399
1761399792841777700,3.624777587890625,0.73836749792099,-0.2158346027135849,1.1873401403427124
1761399792851858400,3.6348583984375,0.6535158753395081,-0.460980087518692,1.0016491413116455
1761399792861918000,3.64491796875,0.5270794630050659,-0.6549147963523865,0.8565769195556641
1761399792872021800,3.655021728515625,0.3626554310321808,-0.7600842118263245,0.7274758815765381
1761399792882097700,3.66509765625,0.20547588169574738,-0.7983881831169128,0.6050196886062622
1761399792892158200,3.675158203125,0.09249578416347504,-0.7906774282455444,0.511907696723938
1761399792902263800,3.685263916015625,0.06103656068444252,-0.7396332025527954,0.46774157881736755
1761399792912344600,3.695344482421875,0.10898315161466599,-0.6162777543067932,0.44302716851234436
1761399792922426000,3.705426025390625,0.13116616010665894,-0.47959914803504944,0.42810526490211487
1761399792932506600,3.715506591796875,0.10748430341482162,-0.35622701048851013,0.4187624454498291
1761399792942587400,3.72558740234375,0.030260145664215088,-0.19373486936092377,0.39184972643852234
1761399792952664600,3.73566455078125,-0.06933020800352097,0.047147203236818314,0.3084303140640259
1761399792962749700,3.745749755859375,-0.17734743654727936,0.28897854685783386,0.16462385654449463
1761399792972830700,3.755830810546875,-0.3198882043361664,0.49931737780570984,-0.011124808341264725
1761399792982912300,3.765912353515625,-0.4828300178050995,0.6498353481292725,-0.14650440216064453
1761399792992992500,3.775992431640625,-0.6258870363235474,0.7726079821586609,-0.21030551195144653
1761399793003046000,3.7860458984375,-0.7213972210884094,0.8780771493911743,-0.2523399591445923
1761399793013150700,3.796150634765625,-0.7970725297927856,0.9569166898727417,-0.3200214207172394
1761399793023235800,3.80623583984375,-0.8568434119224548,1.0335580110549927,-0.42019468545913696
1761399793033291500,3.81629150390625,-0.9026416540145874,1.1402262449264526,-0.5394699573516846
1761399793043397600,3.826397705078125,-0.968541145324707,1.2564871311187744,-0.654615044593811
1761399793053478700,3.836478759765625,-1.0339243412017822,1.3461017608642578,-0.721630334854126
1761399793063559400,3.846559326171875,-1.0563071966171265,1.333844542503357,-0.6847586035728455
1761399793073640700,3.856640625,-0.9977354407310486,1.2415152788162231,-0.46919044852256775
1761399793083717600,3.866717529296875,-0.8646540641784668,1.1198252439498901,-0.10806718468666077
1761399793093803500,3.876803466796875,-0.6099492907524109,1.0379213094711304,0.22845827043056488
1761399793103883800,3.8868837890625,-0.21253713965415955,0.966276228427887,0.4499385356903076
1761399793113939500,3.896939453125,0.15326589345932007,0.9564170837402344,0.5013325214385986
1761399793124045800,3.9070458984375,0.3682178258895874,0.9336345791816711,0.4698566198348999
1761399793134101500,3.9171015625,0.4612632095813751,0.7656299471855164,0.4463246464729309
1761399793144204300,3.927204345703125,0.4619959592819214,0.44962212443351746,0.4509877562522888
1761399793154288600,3.93728857421875,0.44522547721862793,0.1503014862537384,0.43879708647727966
1761399793164369700,3.94736962890625,0.418612539768219,0.006245214492082596,0.35269638895988464
1761399793174451500,3.957451416015625,0.3334278166294098,0.02872798591852188,0.2420811653137207
1761399793184531500,3.967531494140625,0.10875000059604645,0.23813419044017792,0.15269964933395386
1761399793194613500,3.977613525390625,-0.20149558782577515,0.5869835019111633,0.026812786236405373
1761399793204694300,3.9876943359375,-0.5155715942382812,0.9809483289718628,-0.09206278622150421
1761399793214775600,3.997775634765625,-0.8103457093238831,1.3511812686920166,-0.17449961602687836
1761399793224856000,4.00785595703125,-0.8530129790306091,1.603471279144287,-0.3163575828075409
1761399793234912000,4.017912109375,-0.539020299911499,1.9504220485687256,-0.5309431552886963
1761399793244992500,4.027992431640625,0.03460681438446045,2.1111321449279785,-0.501965343952179
1761399793255089000,4.0380888671875,0.5164042711257935,1.7730579376220703,-0.1353129744529724
1761399793265180200,4.04818017578125,0.5515773296356201,1.5291448831558228,0.28806260228157043
1761399793275261200,4.05826123046875,0.2940746545791626,1.408837080001831,0.4618127942085266
1761399793285346800,4.068346923828125,-0.03205876797437668,1.3133269548416138,0.40205857157707214
1761399793295399200,4.078399169921875,-0.42129382491111755,1.2193156480789185,0.16693873703479767
1761399793305480700,4.088480712890625,-0.8202047944068909,1.2020455598831177,-0.09674253314733505
1761399793315563000,4.09856298828125,-1.0864840745925903,1.2979886531829834,-0.2798355519771576
1761399793325655000,4.108655029296875,-1.1298009157180786,1.3195555210113525,-0.38698679208755493
1761399793335744500,4.11874462890625,-0.9076211452484131,1.3340610265731812,-0.4453587234020233
1761399793345825300,4.1288251953125,-0.5025981664657593,1.4114850759506226,-0.4486894905567169
1761399793355906000,4.138906005859375,-0.0987243503332138,1.490257978439331,-0.38323965668678284
1761399793365964300,4.14896435546875,0.10605206340551376,1.5357898473739624,-0.30036982893943787
1761399793376070400,4.1590703125,0.05665658414363861,1.5427677631378174,-0.22884130477905273
1761399793386151700,4.169151611328125,-0.11094831675291061,1.606902003288269,-0.2531226873397827
1761399793396232700,4.179232666015625,-0.2777704894542694,1.6657568216323853,-0.3834894597530365
1761399793406314200,4.189314208984375,-0.4127670228481293,1.7672624588012695,-0.48724329471588135
1761399793426475800,4.209475830078125,-0.5354064106941223,2.0039310455322266,-0.4200780987739563
1761399793436557300,4.219557373046875,-0.541751503944397,1.9786837100982666,-0.3326117992401123
1761399793446637600,4.229637451171875,-0.5131401419639587,1.9430943727493286,-0.21913208067417145
1761399793456718600,4.239718505859375,-0.457133024930954,1.9136168956756592,-0.06971324235200882
1761399793466799600,4.249799560546875,-0.40588897466659546,1.874730110168457,0.0894148126244545
1761399793476880600,4.259880615234375,-0.378959596157074,1.8132438659667969,0.2175666093826294
1761399793486961700,4.269961669921875,-0.3582421541213989,1.7450127601623535,0.28374922275543213
1761399793497042700,4.280042724609375,-0.34307044744491577,1.648470163345337,0.2573361396789551
1761399793507123500,4.29012353515625,-0.34938228130340576,1.4658766984939575,0.13574597239494324
1761399793517204500,4.30020458984375,-0.37741079926490784,1.2538725137710571,-0.03134264796972275
1761399793527286300,4.310286376953125,-0.40054306387901306,1.0201349258422852,-0.1809113621711731
1761399793537367600,4.320367431640625,-0.4013257920742035,0.90733802318573,-0.2699764370918274
1761399793547447600,4.330447509765625,-0.4177965223789215,0.8774109482765198,-0.29577335715293884
1761399793557528800,4.34052880859375,-0.45913150906562805,0.9709725975990295,-0.2897113263607025
1761399793567569200,4.350569091796875,-0.5454819798469543,1.0586720705032349,-0.2890784740447998
1761399793577691400,4.36069140625,-0.6077842712402344,1.0646342039108276,-0.3013690710067749
1761399793587772200,4.370772216796875,-0.6250709891319275,0.9892919063568115,-0.32723256945610046
1761399793597827300,4.380827392578125,-0.6376280784606934,0.839573323726654,-0.35429516434669495
1761399793607934700,4.390934814453125,-0.6534159779548645,0.6276190280914307,-0.3313460946083069
1761399793618010600,4.4010107421875,-0.6614264845848083,0.4227760136127472,-0.2953236997127533
1761399793628091400,4.41109130859375,-0.6880394220352173,0.2973554730415344,-0.267828106880188
1761399793638174000,4.421174072265625,-0.6829599738121033,0.23282158374786377,-0.2783700227737427
1761399793648253400,4.43125341796875,-0.6767147779464722,0.1621091067790985,-0.30773085355758667
1761399793658338600,4.441338623046875,-0.7033776640892029,0.14054229855537415,-0.36089012026786804
1761399793668394500,4.45139453125,-0.7217302918434143,0.20142897963523865,-0.4204111695289612
1761399793678500600,4.46150048828125,-0.7058591246604919,0.20136235654354095,-0.44390982389450073
1761399793688581600,4.47158154296875,-0.6486862301826477,0.1140625923871994,-0.40295788645744324
1761399793698662700,4.48166259765625,-0.5717951655387878,0.022199654951691628,-0.3130267858505249
1761399793708725000,4.49172509765625,-0.49362173676490784,-0.1025380939245224,-0.16504019498825073
1761399793718820900,4.50182080078125,-0.433467835187912,-0.03169238194823265,-0.021433575078845024
1761399793728906000,4.511906005859375,-0.4606803059577942,0.03908671438694,0.07680781185626984
1761399793738977000,4.52197705078125,-0.45814892649650574,0.052076760679483414,0.1169104129076004
1761399793749068300,4.532068359375,-0.369183748960495,0.02518070489168167,0.12004134804010391
1761399793759111700,4.542111572265625,-0.2630983889102936,-0.03978617861866951,0.14010930061340332
1761399793769229800,4.552229736328125,-0.1963328868150711,-0.1398095339536667,0.20629191398620605
1761399793779306800,4.562306640625,-0.14560508728027344,-0.24837633967399597,0.3121108412742615
1761399793789412000,4.572412109375,-0.10418682545423508,-0.38330626487731934,0.42727258801460266
1761399793799507000,4.5825068359375,-0.06786466389894485,-0.49120691418647766,0.5052295327186584
1761399793809553400,4.592553466796875,-0.036472052335739136,-0.5003665685653687,0.5365555286407471
1761399793819634700,4.602634765625,0.039436448365449905,-0.5237653255462646,0.5192853808403015
1761399793829716000,4.612716064453125,0.23377086222171783,-0.7913602590560913,0.46211254596710205
1761399793839795000,4.622794921875,0.49793508648872375,-1.31485915184021,0.4551179111003876
1761399793849863700,4.63286376953125,0.8585087656974792,-1.7723917961120605,0.6182096004486084
1761399793859946000,4.642946044921875,1.1901047229766846,-1.7625659704208374,0.9642277956008911
1761399793870027000,4.653027099609375,1.4768016338348389,-1.4381645917892456,1.3248014450073242
1761399793880108300,4.6631083984375,1.569563865661621,-1.237801432609558,1.5569902658462524
1761399793890201600,4.67320166015625,1.3832733631134033,-1.348250150680542,1.8126276731491089
1761399793900283000,4.683282958984375,1.030360460281372,-1.5489131212234497,2.261300563812256
1761399793910362000,4.693362060546875,0.6548148989677429,-1.5439834594726562,2.825568199157715
1761399793920417300,4.703417236328125,0.4592147767543793,-1.3371087312698364,3.2957911491394043
1761399793930524700,4.713524658203125,0.5424010157585144,-1.070979356765747,3.464728355407715
1761399793940605000,4.72360498046875,0.8385074734687805,-0.888885498046875,3.2382185459136963
1761399793950675000,4.733675048828125,1.131616234779358,-0.7626821994781494,2.6962172985076904
1761399793960769000,4.74376904296875,1.4068719148635864,-0.6846420168876648,2.032442569732666
1761399793970845400,4.753845458984375,1.6366292238235474,-0.5629186630249023,1.463844895362854
1761399793980918800,4.763918701171875,1.8212376832962036,-0.41746342182159424,1.149569034576416
1761399794001080000,4.784080078125,1.8420383930206299,-0.37997549772262573,1.0575063228607178
1761399794011174000,4.794173828125,1.7007300853729248,-0.5027813911437988,1.0067285299301147
1761399794021255000,4.8042548828125,1.5228830575942993,-0.8531962037086487,0.7580024600028992
1761399794031324700,4.81432470703125,1.3595415353775024,-1.4362993240356445,0.335742712020874
1761399794041398300,4.824398193359375,1.2376348972320557,-1.9921067953109741,-0.05522434785962105
1761399794051494100,4.834494140625,1.1788966655731201,-2.3790435791015625,-0.3686508238315582
1761399794061566000,4.84456591796875,1.2126374244689941,-2.6836602687835693,-0.6230725646018982
1761399794071649300,4.854649169921875,1.2368189096450806,-2.8561947345733643,-0.8128604292869568
1761399794081740500,4.864740478515625,1.1957670450210571,-2.89941143989563,-0.8957469463348389
1761399794091821600,4.874821533203125,1.1261703968048096,-2.811861991882324,-0.8757789134979248
1761399794101888800,4.884888671875,1.0463148355484009,-2.661327362060547,-0.8143759369850159
1761399794111983900,4.89498388671875,0.9646607637405396,-2.473804235458374,-0.8043169975280762
1761399794122064600,4.905064697265625,0.9160813689231873,-2.2875304222106934,-0.8828567862510681
1761399794132145700,4.915145751953125,0.9193121790885925,-2.1879899501800537,-1.0296276807785034
1761399794142235600,4.925235595703125,1.0707128047943115,-2.2414658069610596,-1.219149112701416
1761399794152313300,4.935313232421875,1.2436469793319702,-2.3762624263763428,-1.4308701753616333
1761399794162387000,4.945386962890625,1.3428542613983154,-2.5726451873779297,-1.6156452894210815
1761399794172457000,4.95545703125,1.3560775518417358,-2.6600282192230225,-1.7391172647476196
1761399794182550800,4.96555078125,1.272857904434204,-2.5256645679473877,-1.7891123294830322
1761399794192619000,4.975618896484375,1.1870070695877075,-2.2357699871063232,-1.8142763376235962
1761399794202701300,4.985701416015625,1.0781737565994263,-1.8717989921569824,-1.8521140813827515
1761399794212793900,4.9957939453125,0.9487396478652954,-1.516737699508667,-1.8694508075714111
1761399794222874600,5.00587451171875,0.8389238119125366,-1.2780705690383911,-1.8480172157287598
1761399794232953600,5.01595361328125,0.7644641995429993,-1.15546452999115,-1.7920100688934326
1761399794243036700,5.02603662109375,0.6964330077171326,-1.1531829833984375,-1.7177836894989014
1761399794253105400,5.03610546875,0.5866338014602661,-1.2020622491836548,-1.665956735610962
1761399794263199000,5.046198974609375,0.4300870895385742,-1.2336879968643188,-1.6651406288146973
1761399794273279700,5.05627978515625,0.2687440514564514,-1.3033345937728882,-1.7132371664047241
1761399794283360800,5.06636083984375,0.1430736929178238,-1.3982951641082764,-1.7782373428344727
1761399794293427000,5.076427001953125,0.04446592554450035,-1.497202754020691,-1.8213043212890625
1761399794303522800,5.086522705078125,-0.036505360156297684,-1.5789899826049805,-1.819372534751892
1761399794313604600,5.0966044921875,-0.11597779393196106,-1.6608439683914185,-1.7641648054122925
1761399794323684600,5.1066845703125,-0.19240255653858185,-1.7011964321136475,-1.6447229385375977
1761399794333766100,5.11676611328125,-0.2372848391532898,-1.7164013385772705,-1.4880430698394775
1761399794343847000,5.126846923828125,-0.2328549027442932,-1.7423981428146362,-1.334810495376587
1761399794353916400,5.13691650390625,-0.18059495091438293,-1.7880631685256958,-1.220398187637329
1761399794363994400,5.146994384765625,-0.09296209365129471,-1.8277493715286255,-1.1827269792556763
1761399794374064400,5.157064453125,0.003114280290901661,-1.8548619747161865,-1.1877565383911133
1761399794384154400,5.167154296875,0.06062021479010582,-1.9020757675170898,-1.1423412561416626
1761399794394237700,5.17723779296875,0.03314127027988434,-1.9800493717193604,-1.0254474878311157
1761399794404332800,5.187332763671875,-0.03132599592208862,-2.0697638988494873,-0.9239586591720581
1761399794414413800,5.197413818359375,-0.03753790259361267,-2.055408239364624,-0.8903011083602905
1761399794424481500,5.2074814453125,0.008876531384885311,-1.9744369983673096,-0.9061555862426758
1761399794434575600,5.21757568359375,0.03197549656033516,-1.8285820484161377,-1.0025317668914795
1761399794444656400,5.227656494140625,-0.036755166947841644,-1.641675353050232,-1.193901777267456
1761399794454729200,5.237729248046875,-0.21172109246253967,-1.6330819129943848,-1.2555378675460815
1761399794464819200,5.247819091796875,-0.2630484402179718,-1.9343843460083008,-0.9379812479019165
1761399794474899500,5.2578994140625,-0.1008060872554779,-2.304567337036133,-0.380575031042099
1761399794484979500,5.2679794921875,0.1422576606273651,-2.3838067054748535,-0.003547281725332141
1761399794495048700,5.278048583984375,0.34416958689689636,-2.34148907661438,-0.014372319914400578
1761399794505142800,5.288142822265625,0.439912885427475,-2.2460622787475586,-0.33132943511009216
1761399794515223800,5.298223876953125,0.381058007478714,-2.3094801902770996,-0.7268097400665283
1761399794525292300,5.308292236328125,0.145438551902771,-2.4823477268218994,-1.0385208129882812
1761399794535386400,5.318386474609375,-0.1344636231660843,-2.6236562728881836,-1.2621994018554688
1761399794545469000,5.328468994140625,-0.25815218687057495,-2.822437286376953,-1.45438551902771
1761399794555533300,5.338533203125,-0.15762920677661896,-3.0166215896606445,-1.6533997058868408
1761399794565627000,5.348626953125,0.08220367133617401,-2.9901254177093506,-1.8481338024139404
1761399794575697000,5.35869677734375,0.27500593662261963,-2.7880635261535645,-1.9573334455490112
1761399794585790700,5.368790771484375,0.30681487917900085,-2.596343755722046,-1.9033581018447876
1761399794595871500,5.37887158203125,0.20509283244609833,-2.4924399852752686,-1.7298743724822998
1761399794605950700,5.38895068359375,0.026862747967243195,-2.506329298019409,-1.5550416707992554
1761399794616031700,5.39903173828125,-0.10338743776082993,-2.5876505374908447,-1.4950876235961914
1761399794626114800,5.40911474609375,-0.1363455206155777,-2.678663969039917,-1.5758757591247559
1761399794636182500,5.4191826171875,-0.11462882906198502,-2.721231460571289,-1.7022788524627686
1761399794646276600,5.429276611328125,-0.10896649956703186,-2.6814119815826416,-1.7819844484329224
1761399794656358000,5.43935791015625,-0.14069218933582306,-2.5010833740234375,-1.794708013534546
1761399794666426000,5.449426025390625,-0.18345941603183746,-2.289562225341797,-1.7555713653564453
1761399794676517600,5.459517578125,-0.20830704271793365,-2.1473379135131836,-1.6553149223327637
1761399794686588700,5.469588623046875,-0.2079240083694458,-2.0710794925689697,-1.5145227909088135
1761399794696681700,5.479681640625,-0.1957000344991684,-2.021334409713745,-1.3762786388397217
1761399794706760400,5.489760498046875,-0.189737930893898,-1.9681917428970337,-1.2724416255950928
1761399794716843500,5.499843505859375,-0.20117917656898499,-1.9197455644607544,-1.2344207763671875
1761399794726925600,5.509925537109375,-0.22093069553375244,-1.9202618598937988,-1.2450292110443115
1761399794736991000,5.519990966796875,-0.24163150787353516,-1.9772015810012817,-1.2687777280807495
1761399794747087000,5.530087158203125,-0.2566699683666229,-2.077458143234253,-1.2822840213775635
1761399794757167900,5.54016796875,-0.26814451813697815,-2.163825273513794,-1.2754559516906738
1761399794767237600,5.550237548828125,-0.2638644576072693,-2.2187163829803467,-1.2394002676010132
1761399794777316600,5.560316650390625,-0.2734404504299164,-2.200780153274536,-1.1526334285736084
1761399794787410200,5.57041015625,-0.2701096832752228,-2.129434823989868,-1.04166841506958
1761399794807579600,5.59057958984375,-0.23873372375965118,-1.8692009449005127,-0.8143593072891235
1761399794817654300,5.600654296875,-0.24008269608020782,-1.7232794761657715,-0.7280920743942261
1761399794827735000,5.610735107421875,-0.2608834207057953,-1.5761421918869019,-0.6802120804786682
1761399794837804300,5.62080419921875,-0.2904607653617859,-1.4774178266525269,-0.6778472065925598
1761399794847896300,5.630896240234375,-0.3162743151187897,-1.445109248161316,-0.6942346692085266
1761399794857977600,5.6409775390625,-0.315541535615921,-1.4366490840911865,-0.7178499102592468
1761399794868057000,5.65105712890625,-0.3181728422641754,-1.4224933385849,-0.7344704866409302
1761399794878114300,5.6611142578125,-0.3257337212562561,-1.3859213590621948,-0.7496755123138428
1761399794888221200,5.67122119140625,-0.34658440947532654,-1.3428876399993896,-0.7622325420379639
1761399794898301700,5.6813017578125,-0.35790908336639404,-1.330696940422058,-0.7707926630973816
1761399794908375800,5.691375732421875,-0.37144869565963745,-1.2826005220413208,-0.7685443758964539
1761399794918464300,5.70146435546875,-0.4273058772087097,-1.2221968173980713,-0.7582855820655823
1761399794928542500,5.71154248046875,-0.4542519152164459,-1.1681715250015259,-0.7327218651771545
1761399794938633200,5.72163330078125,-0.46391117572784424,-1.1621761322021484,-0.6870068907737732
1761399794948703000,5.731702880859375,-0.47355377674102783,-1.1940516233444214,-0.6194086670875549
1761399794958787000,5.741787109375,-0.4771510362625122,-1.2354199886322021,-0.5617029070854187
1761399794968878600,5.751878662109375,-0.49024099111557007,-1.3599745035171509,-0.5132067203521729
1761399794978949600,5.76194970703125,-0.48161426186561584,-1.4662764072418213,-0.4686242341995239
1761399794989021200,5.772021240234375,-0.47876644134521484,-1.5266468524932861,-0.4223097264766693
1761399794999089200,5.782089111328125,-0.4778338372707367,-1.572994589805603,-0.3791761100292206
1761399795009193200,5.792193115234375,-0.4687574505805969,-1.5828204154968262,-0.3397563099861145
1761399795019283000,5.802282958984375,-0.4252074956893921,-1.6030383110046387,-0.28431546688079834
1761399795029354800,5.812354736328125,-0.35291290283203125,-1.6272863149642944,-0.20857350528240204
1761399795039422700,5.822422607421875,-0.25378885865211487,-1.7144029140472412,-0.10223831981420517
1761399795049516300,5.832516357421875,-0.2333212047815323,-1.7851320505142212,0.029843797907233238
1761399795059604500,5.8426044921875,-0.22892457246780396,-1.8891023397445679,0.19032081961631775
1761399795069665500,5.85266552734375,-0.18086141347885132,-1.9579163789749146,0.35909149050712585
1761399795079759600,5.862759521484375,-0.09929057955741882,-1.9725217819213867,0.5350067019462585
1761399795089840600,5.872840576171875,0.005662327632308006,-1.972471833229065,0.7279255390167236
1761399795099911200,5.8829111328125,0.13847722113132477,-1.9690744876861572,0.9179299473762512
1761399795110004700,5.893004638671875,0.2674783766269684,-1.9506884813308716,1.086250901222229
1761399795120082000,5.90308203125,0.42192667722702026,-1.9684582948684692,1.22292959690094
1761399795130155500,5.913155517578125,0.5727111101150513,-1.9647610187530518,1.325750708580017
1761399795140246000,5.92324609375,0.766845703125,-1.969041109085083,1.429337978363037
1761399795150316000,5.93331591796875,1.0226995944976807,-1.9948214292526245,1.5295778512954712
1761399795160407000,5.943406982421875,1.3053663969039917,-1.967259168624878,1.5389373302459717
1761399795170489000,5.953489013671875,1.5711627006530762,-1.89283287525177,1.4403796195983887
1761399795180567300,5.9635673828125,1.7745401859283447,-1.7828837633132935,1.26436448097229
1761399795190646000,5.97364599609375,1.9056897163391113,-1.7176004648208618,1.0702965259552002
1761399795200730000,5.983730224609375,1.9770516157150269,-1.6836931705474854,0.956267237663269
1761399795210812700,5.993812744140625,2.012108087539673,-1.7415155172348022,0.9060890078544617
1761399795220893700,6.003893798828125,2.000133991241455,-1.8597915172576904,0.8432871103286743
1761399795230953000,6.013952880859375,1.9673091173171997,-2.073078155517578,0.6993141174316406
1761399795241044700,6.024044677734375,1.9398468732833862,-2.2605345249176025,0.49988362193107605
1761399795251140400,6.034140380859375,1.9294381141662598,-2.1658570766448975,0.3008694350719452
1761399795261217500,6.044217529296875,1.938914179801941,-1.8453692197799683,0.08425210416316986
1761399795271295700,6.054295654296875,1.9242087602615356,-1.433118462562561,-0.14062556624412537
1761399795281379600,6.064379638671875,1.884106159210205,-1.162192702293396,-0.35292956233024597
1761399795291460400,6.07446044921875,1.8768950700759888,-1.2286418676376343,-0.5262467265129089
1761399795301528600,6.084528564453125,1.8932992219924927,-1.4449094533920288,-0.6155283451080322
1761399795311606500,6.0946064453125,1.8876534700393677,-1.6614768505096436,-0.5890319347381592
1761399795321698600,6.104698486328125,1.8702834844589233,-1.9934890270233154,-0.5207676291465759
1761399795331784400,6.114784423828125,1.8141764402389526,-2.418480157852173,-0.49302220344543457
1761399795351928800,6.1349287109375,1.8296979665756226,-2.6829774379730225,-0.6576626896858215
1761399795362027000,6.145027099609375,1.966926097869873,-2.5866012573242188,-0.7512742877006531
1761399795372108500,6.155108642578125,2.0895321369171143,-2.4272565841674805,-0.7855147123336792
1761399795382165200,6.165165283203125,2.184476137161255,-2.2887461185455322,-0.7791696190834045
1761399795392258300,6.17525830078125,2.221031427383423,-2.2075083255767822,-0.7456952333450317
1761399795402351000,6.18535107421875,2.1881065368652344,-2.1312003135681152,-0.7696269154548645
1761399795412420400,6.19542041015625,2.0909643173217773,-2.0637850761413574,-0.8569933176040649
1761399795422513700,6.205513671875,2.0311269760131836,-2.014423131942749,-0.9769846796989441
1761399795432595000,6.215594970703125,1.963545322418213,-2.004580497741699,-1.1172771453857422
1761399795442660600,6.22566064453125,1.8818912506103516,-2.0093934535980225,-1.2632319927215576
1761399795452743700,6.23574365234375,1.7455790042877197,-2.0189194679260254,-1.3883861303329468
1761399795462837200,6.245837158203125,1.555241584777832,-1.9987850189208984,-1.4905577898025513
1761399795472918500,6.25591845703125,1.3604074716567993,-1.9267568588256836,-1.5436338186264038
1761399795482995700,6.26599560546875,1.1354632377624512,-1.8322126865386963,-1.5738606452941895
1761399795493080600,6.27608056640625,0.9169973134994507,-1.7275428771972656,-1.5642513036727905
1761399795503161000,6.2861611328125,0.7102224230766296,-1.6007566452026367,-1.5061790943145752
1761399795513240800,6.29624072265625,0.5196517705917358,-1.4516042470932007,-1.41748046875
1761399795523323100,6.3063232421875,0.3525131940841675,-1.330497145652771,-1.3399065732955933
1761399795533390300,6.316390380859375,0.2002798616886139,-1.1657233238220215,-1.2904444932937622
1761399795543485000,6.32648486328125,0.03840390592813492,-0.9818975925445557,-1.2924262285232544
1761399795553566200,6.336566162109375,-0.14610470831394196,-0.7968726754188538,-1.317257285118103
1761399795563643000,6.346642822265625,-0.3252341151237488,-0.6261202096939087,-1.3401397466659546
1761399795573737500,6.356737548828125,-0.48091480135917664,-0.4882591962814331,-1.3598912954330444
1761399795583809300,6.366809326171875,-0.6037539839744568,-0.35865849256515503,-1.3121944665908813
1761399795593880800,6.376880859375,-0.6465545296669006,-0.2733405530452728,-1.1387940645217896
1761399795603958300,6.386958251953125,-0.6141626834869385,-0.19270233809947968,-0.9030080437660217
1761399795614052400,6.39705224609375,-0.5131567716598511,-0.08485164493322372,-0.7603673338890076
1761399795624133400,6.40713330078125,-0.3391234576702118,-0.0320754200220108,-0.7144691944122314
1761399795634214700,6.417214599609375,-0.09407790750265121,-0.05402526631951332,-0.6621259450912476
1761399795644293400,6.42729345703125,0.12325555086135864,-0.05983747914433479,-0.5822538137435913
1761399795654376200,6.437376220703125,0.2375013381242752,-0.04599808529019356,-0.4787498116493225
1761399795664439600,6.447439453125,0.27792036533355713,-0.0794224739074707,-0.4344504177570343
1761399795674538000,6.4575380859375,0.2889285981655121,-0.21448564529418945,-0.526046872138977
1761399795684619300,6.467619384765625,0.24689413607120514,-0.32590025663375854,-0.7600175738334656
1761399795694687700,6.477687744140625,-0.0012990045361220837,-0.47521916031837463,-1.2838828563690186
1761399795704779000,6.487779052734375,-0.4660928249359131,-0.6341474056243896,-1.8345608711242676
1761399795714862300,6.4978623046875,-0.975735604763031,-0.5306766629219055,-1.9912574291229248
1761399795724946700,6.50794677734375,-1.147870421409607,-0.6438732743263245,-1.7289750576019287
1761399795735024000,6.518024169921875,-0.8190889954566956,-1.0738937854766846,-1.1125974655151367
1761399795745105400,6.52810546875,-0.12452124804258347,-1.6383445262908936,-0.31201091408729553
1761399795755183400,6.538183349609375,0.6147788763046265,-2.0408360958099365,0.400642991065979
1761399795765266000,6.548265869140625,0.9259071350097656,-1.606185793876648,0.546564519405365
1761399795775348000,6.558347900390625,0.6889054179191589,-0.8070982098579407,0.08215371519327164
1761399795785429500,6.568429443359375,-0.066432423889637,-0.30445003509521484,-0.5282785296440125
1761399795795497200,6.578497314453125,-1.1587120294570923,0.30353406071662903,-0.8834230303764343
1761399795805589000,6.588589111328125,-2.14210844039917,0.9227262735366821,-0.9934220910072327
1761399795815672300,6.59867236328125,-2.7622666358947754,1.0206512212753296,-1.0048799514770508
1761399795825728000,6.60872802734375,-2.9316868782043457,0.20470979809761047,-1.204743504524231
1761399795835808800,6.618808837890625,-2.8150594234466553,-1.1617097854614258,-1.3826237916946411
1761399795845890000,6.62889013671875,-2.321354389190674,-1.6737840175628662,-1.0645508766174316
1761399795855964700,6.638964599609375,-1.4552181959152222,-1.1550148725509644,-0.5183694362640381
1761399795866051800,6.6490517578125,-0.3654366433620453,-0.45413532853126526,-0.30791404843330383
1761399795876126700,6.659126708984375,0.11737672239542007,-0.09033077955245972,-0.5167040228843689
1761399795886203000,6.669202880859375,-0.11717687547206879,-0.13376416265964508,-0.9019755125045776
1761399795896283100,6.679283203125,-0.4874764382839203,-0.35694313049316406,-1.2312731742858887
1761399795906384600,6.689384521484375,-0.646171510219574,-0.46219581365585327,-1.3401563167572021
1761399795916466000,6.6994658203125,-0.6359792947769165,-0.41698047518730164,-1.3134101629257202
1761399795926555000,6.709554931640625,-0.570845901966095,-0.29882100224494934,-1.2582690715789795
1761399795936638000,6.719637939453125,-0.5599042773246765,-0.25155723094940186,-1.2106555700302124
1761399795946724900,6.729724853515625,-0.6123807430267334,-0.2733905017375946,-1.1655235290527344
1761399795956804000,6.73980419921875,-0.6757821440696716,-0.25210681557655334,-1.1094664335250854
1761399795966897000,6.74989697265625,-0.7092731595039368,-0.26398104429244995,-1.0652170181274414
1761399795976968200,6.75996826171875,-0.7260436415672302,-0.3065650761127472,-1.0290281772613525
1761399795987049500,6.770049560546875,-0.722246527671814,-0.3648870587348938,-0.9954038858413696
1761399795997136400,6.780136474609375,-0.6966161727905273,-0.3873198628425598,-0.9584488868713379
1761399796007211300,6.790211181640625,-0.6641743779182434,-0.3579590320587158,-0.9244915843009949
1761399796017290000,6.8002900390625,-0.6786799430847168,-0.28361600637435913,-0.9074212908744812
1761399796027360800,6.81036083984375,-0.7327884435653687,-0.21578463912010193,-0.9212773442268372
1761399796037454600,6.82045458984375,-0.8008862733840942,-0.17178502678871155,-0.9717886447906494
1761399796047534800,6.830534912109375,-0.8716820478439331,-0.14816978573799133,-1.0366722345352173
1761399796057616100,6.8406162109375,-0.9320024847984314,-0.1432235836982727,-1.075226068496704
1761399796067684400,6.850684326171875,-0.9669423699378967,-0.1491190642118454,-1.091180443763733
1761399796077752600,6.860752685546875,-0.9645941853523254,-0.13473008573055267,-1.0762752294540405
1761399796087859000,6.87085888671875,-0.9378646612167358,-0.08391902595758438,-1.0292612314224243
1761399796097940000,6.88093994140625,-0.8982283473014832,-0.05532427132129669,-0.948922872543335
1761399796108021500,6.891021484375,-0.8445361852645874,-0.05156048759818077,-0.8229194283485413
1761399796118102000,6.90110205078125,-0.7932754755020142,-0.01820271834731102,-0.6761152148246765
1761399796128182800,6.911182861328125,-0.7676118016242981,0.07444295287132263,-0.5383041501045227
1761399796138253000,6.921253173828125,-0.7753891348838806,0.20427680015563965,-0.4338841736316681
1761399796148342800,6.9313427734375,-0.7411320805549622,0.3138761520385742,-0.35146400332450867
1761399796158426000,6.941426025390625,-0.7002800703048706,0.3594578802585602,-0.2805516719818115
1761399796168507600,6.951507568359375,-0.618176281452179,0.32708269357681274,-0.2311728596687317
1761399796178576000,6.961575927734375,-0.4945543706417084,0.19350172579288483,-0.20281125605106354
1761399796188665300,6.971665283203125,-0.3451521694660187,-0.0115245021879673,-0.18236026167869568
1761399796198750000,6.98175,-0.22392840683460236,-0.12067419290542603,-0.14330685138702393
1761399796208818000,6.99181787109375,-0.1718183308839798,-0.1034374013543129,-0.10578560084104538
1761399796218912300,7.001912353515625,-0.10870003700256348,-0.18697339296340942,-0.09069716930389404
1761399796228992500,7.011992431640625,-0.03379077464342117,-0.36512020230293274,-0.06976320594549179
1761399796239067600,7.022067626953125,0.024164816364645958,-0.4906739890575409,-0.0014488897286355495
1761399796249154800,7.03215478515625,0.050627872347831726,-0.4897080659866333,0.10798391699790955
1761399796259236000,7.042236083984375,0.07352699339389801,-0.42788878083229065,0.24288055300712585
1761399796269310000,7.05231005859375,0.1373947113752365,-0.47815024852752686,0.3822570741176605
1761399796279395800,7.062395751953125,0.2695101499557495,-0.7579858303070068,0.5397030711174011
1761399796289455900,7.072455810546875,0.4893583357334137,-1.1771146059036255,0.676631510257721
1761399796299559700,7.0825595703125,0.7279588580131531,-1.4599645137786865,0.7773043513298035
1761399796309641200,7.09264111328125,0.9161646366119385,-1.514073133468628,0.8833897113800049
1761399796319722200,7.10272216796875,1.0864008665084839,-1.4611303806304932,0.9914402365684509
1761399796329790200,7.112790283203125,1.2113550901412964,-1.3257174491882324,1.1314163208007812
1761399796339875000,7.122875,1.2966896295547485,-1.2027949094772339,1.3613234758377075
1761399796349965300,7.13296533203125,1.389068841934204,-1.0420514345169067,1.7455123662948608
1761399796360034300,7.143034423828125,1.5072283744812012,-0.8178232908248901,2.227043390274048
1761399796370122000,7.1531220703125,1.6231062412261963,-0.5810880661010742,2.64578914642334
1761399796380209400,7.16320947265625,1.693951964378357,-0.47898295521736145,2.8533968925476074
1761399796390289400,7.173289306640625,1.6994976997375488,-0.4114014208316803,2.8111791610717773
1761399796400344000,7.183343994140625,1.6670725345611572,-0.25731948018074036,2.564218282699585
1761399796410451200,7.193451171875,1.6239888668060303,-0.11651071906089783,2.226577043533325
1761399796420530700,7.20353076171875,1.606269121170044,-0.06000401824712753,1.934883952140808
1761399796430610200,7.213610107421875,1.7241787910461426,-0.1697365939617157,1.779353141784668
1761399796440692700,7.223692626953125,1.8157418966293335,-0.2129867821931839,1.7814515829086304
1761399796450774800,7.23377490234375,1.862905740737915,-0.1332145780324936,1.8207215070724487
1761399796460855800,7.243855712890625,1.86565363407135,-0.09013093262910843,1.7461951971054077
1761399796470929000,7.253928955078125,1.7955907583236694,-0.21961504220962524,1.5290782451629639
1761399796481017600,7.264017578125,1.6547819375991821,-0.48584437370300293,1.235469937324524
1761399796491099000,7.274098876953125,1.5031647682189941,-0.8467012047767639,0.949455738067627
1761399796501180000,7.284179931640625,1.351614236831665,-1.0989744663238525,0.7351199984550476
1761399796511261400,7.294261474609375,1.1731510162353516,-1.2497923374176025,0.5655665993690491
1761399796531408100,7.314408203125,1.1125141382217407,-1.7647643089294434,0.18793931603431702
1761399796541492700,7.32449267578125,1.1767315864562988,-1.919928789138794,0.07369352877140045
1761399796551585000,7.3345849609375,1.2097562551498413,-2.044816493988037,0.008943147026002407
1761399796561665300,7.344665283203125,1.1756991147994995,-2.132432699203491,-0.05505780875682831
1761399796571749000,7.3547490234375,1.1425244808197021,-2.1505353450775146,-0.13691174983978271
1761399796581827800,7.364827880859375,1.0847188234329224,-2.027279853820801,-0.23820079863071442
1761399796591908600,7.37490869140625,1.0325254201889038,-1.8781441450119019,-0.3627220392227173
1761399796601984500,7.384984619140625,0.9957869052886963,-1.7197654247283936,-0.4984680116176605
1761399796612070700,7.395070556640625,0.8900013566017151,-1.545615553855896,-0.6155616044998169
1761399796622151700,7.405151611328125,0.7139362692832947,-1.3975456953048706,-0.704626739025116
1761399796632220200,7.41522021484375,0.5663493275642395,-1.3019523620605469,-0.7796359062194824
1761399796642313700,7.425313720703125,0.4453587234020233,-1.2164844274520874,-0.8486330509185791
1761399796652405800,7.43540576171875,0.32861486077308655,-1.1089668273925781,-0.9068217873573303
1761399796662473700,7.4454736328125,0.20066289603710175,-0.941511869430542,-0.9619461894035339
1761399796672556300,7.455556396484375,0.06390102952718735,-0.7051096558570862,-1.0385042428970337
1761399796682637800,7.465637939453125,-0.08605072647333145,-0.41408267617225647,-1.1427743434906006
1761399796692718800,7.47571875,-0.2501915991306305,-0.12796860933303833,-1.2489595413208008
1761399796702799600,7.485799560546875,-0.44920578598976135,0.1165606826543808,-1.2978055477142334
1761399796712869600,7.49586962890625,-0.6828600764274597,0.24716059863567352,-1.1776975393295288
1761399796722960000,7.5059599609375,-0.9086869955062866,0.26766157150268555,-0.7921929359436035
1761399796733042700,7.516042724609375,-1.0548250675201416,0.26258212327957153,-0.43170252442359924
1761399796743124200,7.526124267578125,-0.9846121668815613,0.08668357133865356,-0.2945576012134552
1761399796753196800,7.53619677734375,-0.6265365481376648,-0.3413384258747101,-0.21973161399364471
1761399796763285200,7.54628515625,-0.10790064930915833,-0.7653135657310486,-0.15504784882068634
1761399796773366800,7.55636669921875,0.29912078380584717,-0.8163744211196899,-0.08838227391242981
1761399796783422000,7.566421875,0.5969758629798889,-0.7349368333816528,-0.048696018755435944
1761399796793526800,7.57652685546875,0.7943246364593506,-0.42309245467185974,-0.04303368926048279
1761399796803609300,7.586609375,0.9178799390792847,0.08253674954175949,-0.09789165109395981
1761399796813682000,7.596681884765625,0.9390970468521118,0.5508778691291809,-0.20675823092460632
1761399796823771600,7.606771728515625,0.8706994652748108,0.6809282302856445,-0.2687440514564514
1761399796833852700,7.616852783203125,0.7038939595222473,0.4709557890892029,-0.2584685981273651
1761399796843911000,7.626910888671875,0.3695501387119293,0.1643240749835968,-0.38257351517677307
1761399796864082400,7.64708251953125,-0.5172869563102722,-0.24885930120944977,-0.8658698201179504
1761399796874176500,7.657176513671875,-0.8564603924751282,-0.27357369661331177,-0.9169639945030212
1761399796884257800,7.6672578125,-0.8216703534126282,-0.3582421541213989,-0.7942913174629211
1761399796894325800,7.67732568359375,-0.3279320299625397,-0.8502484560012817,-0.3043001592159271
1761399796904406800,7.68740673828125,0.396562784910202,-1.3399732112884521,0.24467916786670685
1761399796914500400,7.697500244140625,0.8013858795166016,-1.2124708890914917,0.43558287620544434
1761399796924579800,7.707579833984375,0.6697201132774353,-0.7810681462287903,0.08853215724229813
1761399796934657500,7.717657470703125,0.03986944630742073,-0.5745097398757935,-0.48114797472953796
1761399796944743400,7.727743408203125,-0.7861142754554749,-0.6085503101348877,-0.9733041524887085
1761399796954837200,7.737837158203125,-1.431353211402893,-0.909053385257721,-1.2631486654281616
1761399796964892700,7.747892578125,-1.7085074186325073,-1.5463982820510864,-1.3914004564285278
1761399796974986500,7.757986572265625,-1.5953441858291626,-2.1817281246185303,-1.424558401107788
1761399796985065200,7.768065185546875,-1.1864075660705566,-2.3460521697998047,-1.3597747087478638
1761399796995148500,7.7781484375,-0.6438066363334656,-1.995720624923706,-1.1462715864181519
1761399797005216300,7.78821630859375,-0.08403560519218445,-1.4163979291915894,-0.9541854858398438
1761399797015310800,7.798310791015625,0.18484169244766235,-0.8970792293548584,-0.847866952419281
1761399797025391400,7.808391357421875,0.12575364112854004,-0.6204745173454285,-0.8738803267478943
1761399797035472400,7.818472412109375,-0.11840926110744476,-0.3998102843761444,-1.029377818107605
1761399797045538300,7.828538330078125,-0.33993950486183167,-0.23322127759456635,-1.2309566736221313
1761399797055632100,7.838632080078125,-0.448456346988678,-0.11687710136175156,-1.3444530963897705
1761399797065716000,7.848716064453125,-0.4785166382789612,-0.024581164121627808,-1.3325122594833374
1761399797075796700,7.858796630859375,-0.4942212700843811,0.015021822415292263,-1.231406331062317
1761399797085877500,7.86887744140625,-0.5113581418991089,-0.01300669927150011,-1.1046868562698364
1761399797095945700,7.87894580078125,-0.5384873747825623,-0.0737268403172493,-0.990707516670227
1761399797106037500,7.88903759765625,-0.5616029500961304,-0.11066519469022751,-0.9008263945579529
1761399797116110000,7.899110107421875,-0.5806883573532104,-0.10107254981994629,-0.8353099226951599
1761399797126201900,7.909201904296875,-0.6112649440765381,-0.06996305286884308,-0.7812346816062927
1761399797136269600,7.91926953125,-0.6476203799247742,-0.06959667056798935,-0.7293077707290649
1761399797146350600,7.9293505859375,-0.6803452968597412,-0.08686676621437073,-0.6774808764457703
1761399797156444200,7.939444091796875,-0.7062920928001404,-0.12710259854793549,-0.6255872845649719
1761399797166523400,7.9495234375,-0.7260269522666931,-0.16380780935287476,-0.5954770445823669
1761399797176591400,7.95959130859375,-0.7242116928100586,-0.21003904938697815,-0.6228560209274292
1761399797186687500,7.9696875,-0.7119044661521912,-0.2530560791492462,-0.6962997317314148
1761399797196768000,7.97976806640625,-0.7055926322937012,-0.3081805109977722,-0.7884125113487244
1761399797216927200,7.99992724609375,-0.7375515103340149,-0.3451022207736969,-0.9231759309768677
1761399797227011600,8.010011474609374,-0.7657964825630188,-0.3391401171684265,-0.9595813155174255
1761399797237090800,8.0200908203125,-0.7899113893508911,-0.3380909264087677,-0.9888089299201965
1761399797247171600,8.030171630859375,-0.8160579800605774,-0.3417547941207886,-1.0188692808151245
1761399797257254100,8.040254150390625,-0.8427708745002747,-0.3391234576702118,-1.0511279106140137
1761399797267344600,8.0503447265625,-0.8654534816741943,-0.3041336238384247,-1.0790730714797974
1761399797277416400,8.06041650390625,-0.8791596293449402,-0.24168147146701813,-1.1001403331756592
1761399797287486200,8.070486328125,-0.897045910358429,-0.16942016780376434,-1.1271696090698242
1761399797297576400,8.080576416015624,-0.9300872683525085,-0.10443663597106934,-1.1576296091079712
1761399797307637200,8.09063720703125,-0.958249032497406,-0.1189921498298645,-1.1762986183166504
1761399797317740300,8.100740234375,-0.9451923966407776,-0.24952545762062073,-1.1730843782424927
1761399797327821300,8.1108212890625,-0.8782936334609985,-0.46467724442481995,-1.1400264501571655
1761399797337898500,8.1208984375,-0.7833330631256104,-0.6994972825050354,-1.0480635166168213
1761399797347983000,8.130983154296874,-0.692269504070282,-0.8524967432022095,-0.8698001503944397
1761399797358062300,8.141062255859374,-0.5791062116622925,-0.8352266550064087,-0.6056192517280579
1761399797368145700,8.151145751953125,-0.4492390751838684,-0.7419814467430115,-0.30644848942756653
1761399797378221000,8.161220947265624,-0.37159857153892517,-0.6457884907722473,-0.047147203236818314
1761399797388294100,8.171294189453125,-0.3599574863910675,-0.5371217131614685,0.11632752418518066
1761399797398384600,8.181384521484375,-0.34716731309890747,-0.47918280959129333,0.206391841173172
1761399797408444000,8.19144384765625,-0.31286025047302246,-0.44745710492134094,0.24716059863567352
1761399797418550500,8.201550537109375,-0.28604745864868164,-0.4851115942001343,0.2335377037525177
1761399797428629000,8.21162890625,-0.2277088463306427,-0.597258985042572,0.18054498732089996
1761399797438712300,8.22171240234375,-0.14102526009082794,-0.7470775246620178,0.1090664193034172
1761399797448793300,8.23179345703125,-0.047280434519052505,-0.8800256252288818,0.05319257080554962
1761399797458861600,8.241861572265625,0.0535256490111351,-0.9978520274162292,0.03205876797437668
1761399797468955100,8.251955078125,0.17586523294448853,-1.1863075494766235,0.04023583233356476
1761399797479036000,8.262035888671875,0.3624722361564636,-1.4079877138137817,0.1078173816204071
1761399797489115600,8.27211572265625,0.5978418588638306,-1.5345574617385864,0.2901943027973175
1761399797499185400,8.282185302734375,0.8198217749595642,-1.5851852893829346,0.6478535532951355
1761399797509279500,8.292279541015626,0.9724714756011963,-1.5996742248535156,1.1028715372085571
1761399797519360000,8.302360107421874,1.080971598625183,-1.5353567600250244,1.4988681077957153
1761399797529446100,8.312446044921876,1.1799957752227783,-1.288296103477478,1.788546085357666
1761399797539524600,8.322524658203125,1.2957570552825928,-0.9534527063369751,2.003664493560791
1761399797549603300,8.332603271484375,1.4089536666870117,-0.7021619081497192,2.1900718212127686
1761399797559671800,8.342671875,1.5556246042251587,-0.5496121644973755,2.2539727687835693
1761399797569765000,8.35276513671875,1.668088436126709,-0.38830244541168213,2.1144797801971436
1761399797579846100,8.36284619140625,1.7078912258148193,-0.28917840123176575,1.8631556034088135
1761399797589927000,8.372927001953125,1.6576297283172607,-0.2959398925304413,1.666306495666504
1761399797599995400,8.382995361328126,1.5812216997146606,-0.3091297745704651,1.6122812032699585
1761399797610089500,8.39308935546875,1.5398200750350952,-0.2995704412460327,1.6648575067520142
1761399797620168000,8.40316796875,1.5540424585342407,-0.2969224750995636,1.7549551725387573
1761399797630251300,8.413251220703126,1.5916802883148193,-0.34297052025794983,1.8056830167770386
1761399797640332500,8.42333251953125,1.5826538801193237,-0.38545462489128113,1.7561708688735962
1761399797650413000,8.4334130859375,1.535273551940918,-0.3685009479522705,1.564351201057434
1761399797660482300,8.443482421875,1.4975690841674805,-0.24674426019191742,1.3278990983963013
1761399797670573000,8.453572998046875,1.4034911394119263,-0.23775114119052887,1.0291780233383179
1761399797680652300,8.46365234375,1.3575596809387207,-0.37053272128105164,0.7336211800575256
1761399797690735900,8.47373583984375,1.3797760009765625,-0.40558919310569763,0.591696560382843
1761399797700818200,8.483818115234374,1.3813581466674805,-0.3014523386955261,0.5916466116905212
1761399797710888200,8.49388818359375,1.349565863609314,-0.4721548557281494,0.5547748804092407
1761399797720979700,8.503979736328125,1.312843918800354,-0.9563171863555908,0.41338321566581726
1761399797731043300,8.514043212890625,1.261350154876709,-1.3828070163726807,0.2609500288963318
1761399797741118500,8.524118408203124,1.2433805465698242,-1.5554747581481934,0.14070884883403778
1761399797751219000,8.534218994140625,1.3158084154129028,-1.5319594144821167,0.0658828467130661
1761399797761303800,8.5443037109375,1.4128340482711792,-1.4257408380508423,0.016753828153014183
1761399797771377700,8.554377685546875,1.411385178565979,-1.3131769895553589,-0.024348009377717972
1761399797781466000,8.564466064453125,1.3752628564834595,-1.2903611660003662,-0.062019143253564835
1761399797791547000,8.574546875,1.3425711393356323,-1.2951908111572266,-0.09667591750621796
1761399797801634600,8.584634521484375,1.3091634511947632,-1.2934255599975586,-0.13464681804180145
1761399797811704800,8.594704833984375,1.271758794784546,-1.2502585649490356,-0.19345176219940186
1761399797821789400,8.60478955078125,1.2112717628479004,-1.161643147468567,-0.28604745864868164
1761399797831870700,8.61487060546875,1.1128805875778198,-1.05833899974823,-0.39741212129592896
1761399797841958100,8.624958251953124,0.9788665771484375,-0.9545019268989563,-0.5452488660812378
1761399797852021800,8.635021728515625,0.8195386528968811,-0.8440865278244019,-0.7186992764472961
1761399797862097400,8.645097412109376,0.6275191307067871,-0.7555710077285767,-0.88402259349823
1761399797872178200,8.65517822265625,0.43844735622406006,-0.6825769543647766,-1.035573124885559
1761399797882260500,8.665260498046875,0.26404765248298645,-0.6105154752731323,-1.1684879064559937
1761399797892346600,8.6753466796875,0.0915631651878357,-0.5435168147087097,-1.2877964973449707
1761399797902425300,8.68542529296875,-0.10959934443235397,-0.48023200035095215,-1.3850553035736084
1761399797912517000,8.69551708984375,-0.3525465130805969,-0.4070214331150055,-1.4253077507019043
1761399797922600000,8.705599853515626,-0.5975087881088257,-0.3478001356124878,-1.401692509651184
1761399797932680700,8.7156806640625,-0.8051496744155884,-0.3876695930957794,-1.3095299005508423
1761399797942747000,8.725746826171875,-0.9424445033073425,-0.5602540373802185,-1.0842691659927368
1761399797952842800,8.7358427734375,-0.9695403575897217,-0.8223865032196045,-0.8209875226020813
1761399797962923500,8.745923583984375,-0.8599743247032166,-1.1087837219238281,-0.6857078671455383
1761399797973005000,8.756005126953125,-0.6256539225578308,-1.2866973876953125,-0.6529995799064636
1761399797983046100,8.766046142578125,-0.3186391592025757,-1.2858812808990479,-0.6110484004020691
1761399797993156600,8.776156494140626,0.006161944940686226,-1.139843225479126,-0.48169752955436707
1761399798003245800,8.786245849609376,0.2532392740249634,-0.8698667287826538,-0.31848928332328796
1761399798013326600,8.79632666015625,0.36715197563171387,-0.5177865624427795,-0.18387576937675476
1761399798023409700,8.80640966796875,0.3988277018070221,-0.1934850662946701,-0.09451091289520264
1761399798033488400,8.81648828125,0.41767993569374084,0.04105187579989433,-0.04534858465194702
1761399798043572000,8.826572021484376,0.4293210208415985,0.20630857348442078,-0.056173622608184814
1761399798053652500,8.836652587890624,0.41130149364471436,0.2540053427219391,-0.10158882290124893
1761399798063715300,8.84671533203125,0.28569772839546204,0.1742498129606247,-0.2560371458530426
1761399798073812500,8.8568125,0.010425344109535217,-0.021633422002196312,-0.5190855860710144
1761399798083873800,8.866873779296874,-0.298188179731369,-0.20176205039024353,-0.6117645502090454
1761399798093976800,8.876976806640625,-0.531959056854248,-0.33917343616485596,-0.31141138076782227
1761399798104057900,8.887057861328126,-0.4739534854888916,-0.3351598381996155,-0.0010158881777897477
1761399798114126600,8.897126708984375,-0.12831833958625793,-0.14492228627204895,0.12102392315864563
1761399798124220000,8.907219970703125,0.12921765446662903,0.1427406221628189,0.18379248678684235
1761399798134286300,8.917286376953125,0.12930092215538025,0.1566799432039261,0.14670424163341522
1761399798144369000,8.927368896484374,-0.08998104929924011,0.10287117213010788,-0.12323889881372452
1761399798154465500,8.937465576171874,-0.48417896032333374,0.06057025119662285,-0.5214837193489075
1761399798164543500,8.94754345703125,-0.9784502387046814,-0.13476340472698212,-0.8686343431472778
1761399798174624800,8.957624755859374,-1.3884526491165161,-0.5347735285758972,-1.046947717666626
1761399798184705500,8.96770556640625,-1.5559409856796265,-1.0912305116653442,-1.0834864377975464
1761399798194786600,8.97778662109375,-1.3850386142730713,-1.7037444114685059,-1.0591883659362793
1761399798204854300,8.987854248046874,-0.9139163494110107,-2.1134471893310547,-1.0270962715148926
1761399798214948600,8.997948486328125,-0.3360758125782013,-2.087750196456909,-0.997768759727478
1761399798225029400,9.008029296875,0.06253541260957718,-1.6035711765289307,-0.9539356827735901
1761399798235099600,9.018099609375,0.0937947928905487,-0.9100359678268433,-0.9114182591438293
1761399798245191400,9.02819140625,-0.1457882821559906,-0.48071497678756714,-0.9284385442733765
1761399798255250200,9.038250244140626,-0.4461914300918579,-0.31472548842430115,-1.005462884902954
1761399798265351200,9.04835107421875,-0.6208742260932922,-0.14935222268104553,-1.085451602935791
1761399798275408100,9.058408203125,-0.6346803307533264,-0.046197932213544846,-1.1395601034164429
1761399798285502200,9.068502197265625,-0.556373655796051,-0.03327450156211853,-1.1476038694381714
1761399798295594800,9.0785947265625,-0.4709058105945587,-0.09222932159900665,-1.0949276685714722
1761399798305676300,9.08867626953125,-0.4274391233921051,-0.210422083735466,-1.0034477710723877
1761399798315756300,9.09875634765625,-0.42490771412849426,-0.33459359407424927,-0.9232425093650818
1761399798325833500,9.10883349609375,-0.44296056032180786,-0.4127670228481293,-0.8849219083786011
1761399798335920000,9.118920166015625,-0.4627120792865753,-0.4638945162296295,-0.8897015452384949
1761399798345986300,9.128986328125,-0.4944377839565277,-0.5094262957572937,-0.923325777053833
1761399798356082400,9.13908251953125,-0.5401860475540161,-0.5199848413467407,-0.9711558222770691
1761399798366152000,9.14915185546875,-0.5840524435043335,-0.5038805603981018,-1.0148890018463135
1761399798376233000,9.15923291015625,-0.600339949131012,-0.4769511818885803,-1.029744267463684
1761399798386323200,9.1693232421875,-0.5878661870956421,-0.494421124458313,-1.0008164644241333
1761399798396392000,9.179391845703124,-0.5642009973526001,-0.5155882239341736,-0.9586820602416992
1761399798406487800,9.18948779296875,-0.5430338978767395,-0.5358726978302002,-0.9210275411605835
1761399798416565200,9.199565185546875,-0.5425675511360168,-0.5513608455657959,-0.8911171555519104
1761399798426649300,9.2096494140625,-0.5573229193687439,-0.5384207367897034,-0.853695809841156
1761399798436730600,9.219730712890625,-0.5888653993606567,-0.49620309472084045,-0.809579610824585
1761399798446791200,9.229791259765625,-0.6145290732383728,-0.44134512543678284,-0.7735072374343872
1761399798456892400,9.239892333984375,-0.6428074240684509,-0.3800254464149475,-0.7548215985298157
1761399798466973700,9.2499736328125,-0.6597777605056763,-0.3271992802619934,-0.7513242363929749
1761399798477054200,9.26005419921875,-0.6816776394844055,-0.3350432515144348,-0.7544718384742737
1761399798487133700,9.2701337890625,-0.7041770815849304,-0.40374061465263367,-0.7690273523330688
1761399798497203500,9.280203369140626,-0.7239285707473755,-0.4979850649833679,-0.7976720929145813
1761399798507297000,9.290297119140625,-0.7383508682250977,-0.5853514671325684,-0.8377913236618042
1761399798517376300,9.300376220703125,-0.739599883556366,-0.6273359656333923,-0.8899347186088562
1761399798527459600,9.31045947265625,-0.7580524682998657,-0.6025882363319397,-0.9425444006919861
1761399798537535700,9.32053564453125,-0.799437403678894,-0.503747284412384,-0.9875265955924988
1761399798547621400,9.330621337890625,-0.8678016662597656,-0.39254918694496155,-1.0078942775726318
1761399798557702400,9.340702392578125,-0.9095863103866577,-0.28528138995170593,-1.0096262693405151
1761399798567783200,9.350783203125,-0.9278056621551514,-0.22337882220745087,-0.9842790961265564
1761399798577851100,9.36085107421875,-0.9344672560691833,-0.184525266289711,-0.9633451104164124
1761399798587945700,9.37094580078125,-0.9249745011329651,-0.2199980765581131,-0.9123675227165222
1761399798598026500,9.381026611328124,-0.8590250611305237,-0.2985212504863739,-0.8005865216255188
1761399798608095000,9.391094970703126,-0.7293744087219238,-0.3693169951438904,-0.6401927471160889
1761399798618175700,9.40117578125,-0.565416693687439,-0.45218682289123535,-0.4652101695537567
1761399798628269600,9.41126953125,-0.4168972074985504,-0.5191022157669067,-0.30986255407333374
1761399798638335500,9.42133544921875,-0.3151918053627014,-0.5510110855102539,-0.17240121960639954
1761399798648422000,9.431421875,-0.2796856760978699,-0.525763750076294,-0.0592879019677639
1761399798658512400,9.441512451171874,-0.2866303622722626,-0.4970024824142456,0.022516079246997833
1761399798668580600,9.45158056640625,-0.30070289969444275,-0.5233322978019714,0.09086370468139648
1761399798678674200,9.461674072265625,-0.29215943813323975,-0.5246479511260986,0.16066022217273712
1761399798688755700,9.471755615234375,-0.2390168458223343,-0.5600208640098572,0.21155455708503723
1761399798698824000,9.481823974609375,-0.13338112831115723,-0.6901211738586426,0.24632790684700012
1761399798708915700,9.491915771484376,-0.06926359236240387,-0.7726246118545532,0.23073984682559967
1761399798718998300,9.501998291015624,-0.036172281950712204,-0.8946977257728577,0.18039509654045105
1761399798729060000,9.51206005859375,-0.003397396532818675,-1.1336479187011719,0.1252373605966568
1761399798739160300,9.522160400390625,0.10760088264942169,-1.3876866102218628,0.11402928829193115
1761399798749241300,9.532241455078125,0.2927756607532501,-1.5848188400268555,0.22064758837223053
1761399798759322600,9.542322509765626,0.5214170813560486,-1.7726582288742065,0.49383825063705444
1761399798769400800,9.55240087890625,0.7361025810241699,-1.9357166290283203,0.9166642427444458
1761399798779484400,9.562484375,0.8876031637191772,-2.0430843830108643,1.3391571044921875
1761399798789565200,9.572565185546875,0.9625124335289001,-1.9520708322525024,1.6755826473236084
1761399798799631400,9.58263134765625,1.040785789489746,-1.6468713283538818,1.9538195133209229
1761399798809727200,9.592727294921875,1.1775310039520264,-1.3003535270690918,2.183460235595703
1761399798819795200,9.602795166015625,1.3966131210327148,-1.0273960828781128,2.3083643913269043
1761399798829889500,9.6128896484375,1.6196922063827515,-0.755321204662323,2.2094736099243164
1761399798839959800,9.622959716796874,1.7607008218765259,-0.4970857501029968,1.949772596359253
1761399798850051600,9.633051513671875,1.775389552116394,-0.3428206443786621,1.709789752960205
1761399798860132000,9.643132080078125,1.705259919166565,-0.2871965765953064,1.5626691579818726
1761399798870201300,9.653201416015625,1.6033879518508911,-0.27528905868530273,1.4599312543869019
1761399798880294100,9.663294189453126,1.5314264297485352,-0.2493589222431183,1.3788933753967285
1761399798890375000,9.673375,1.5170542001724243,-0.20640850067138672,1.3504152297973633
1761399798900443100,9.683443115234375,1.555841088294983,-0.17741404473781586,1.3653870820999146
1761399798910524700,9.693524658203126,1.6005568504333496,-0.12900114059448242,1.3881529569625854
1761399798920615700,9.70361572265625,1.6414588689804077,-0.014438935555517673,1.3724982738494873
1761399798930697700,9.71369775390625,1.5626858472824097,0.04591481387615204,1.185258388519287
1761399798940768300,9.723768310546875,1.4061391353607178,-0.03410719707608223,0.8707660436630249
1761399798950861300,9.733861328125,1.2835663557052612,-0.23865045607089996,0.5442829132080078
1761399798960938000,9.74393798828125,1.2206312417984009,-0.4270061254501343,0.344902366399765
1761399798971029200,9.754029296875,1.2283920049667358,-0.5796058773994446,0.33097970485687256
1761399798981104000,9.764104248046875,1.2629988193511963,-0.7404492497444153,0.367435097694397
1761399798991185000,9.774184814453125,1.2738738059997559,-1.1061357259750366,0.27147531509399414
1761399799001253000,9.784253173828125,1.2921764850616455,-1.451570987701416,0.1145455539226532
1761399799011346700,9.7943466796875,1.2988213300704956,-1.5402530431747437,-0.0018985451897606254
1761399799021428500,9.804428466796875,1.291643500328064,-1.4609638452529907,-0.061636101454496384
1761399799031494100,9.814494140625,1.3066819906234741,-1.2885959148406982,-0.1074010357260704
1761399799041590000,9.824590087890625,1.2943248748779297,-1.0874500274658203,-0.17315064370632172
1761399799051649800,9.83464990234375,1.2708594799041748,-0.9954538345336914,-0.2847151458263397
1761399799061751800,9.844751708984376,1.2023286819458008,-0.9847453832626343,-0.4095861315727234
1761399799071833000,9.8548330078125,1.1791797876358032,-1.0287450551986694,-0.5374548435211182
1761399799081906400,9.864906494140625,1.104986548423767,-1.0087103843688965,-0.6455719470977783
1761399799091980300,9.874980224609375,0.9567335247993469,-0.9216271042823792,-0.7303070425987244
1761399799102050800,9.88505078125,0.7997205257415771,-0.8051663637161255,-0.8106288313865662
1761399799112131600,9.895131591796876,0.6197584271430969,-0.5920296907424927,-0.8659530878067017
1761399799122213000,9.905213134765624,0.4068049192428589,-0.3444194197654724,-0.8912337422370911
1761399799132293400,9.91529345703125,0.1732006072998047,-0.08068817108869553,-0.892116367816925
1761399799142368800,9.92536865234375,-0.057172853499650955,0.20166213810443878,-0.885871171951294
1761399799152444400,9.9354443359375,-0.2586517930030823,0.4472905695438385,-0.9007930755615234
1761399799162544000,9.945544189453125,-0.4531360864639282,0.6175267696380615,-0.9385141730308533
1761399799172626400,9.95562646484375,-0.6635415554046631,0.696466326713562,-0.9841625094413757
1761399799182715600,9.965715576171876,-0.8525466918945312,0.6643075942993164,-0.9963198304176331
1761399799192804600,9.9758046875,-0.9681248068809509,0.5078441500663757,-0.9637947678565979
1761399799202885400,9.985885498046875,-0.9948543310165405,0.2654632329940796,-0.8392735123634338
1761399799212967000,9.995966796875,-0.9184128642082214,0.0072111408226192,-0.6385939717292786
1761399799223036200,10.0060361328125,-0.683226466178894,-0.23571936786174774,-0.4511043131351471
1761399799233129200,10.016129150390626,-0.2716585099697113,-0.3871699869632721,-0.3099791407585144
1761399799243209700,10.026209716796876,0.2218133509159088,-0.2329881340265274,-0.14110854268074036
1761399799253271600,10.036271484375,0.6680047512054443,0.1760650873184204,0.06811447441577911
1761399799263371500,10.04637158203125,1.0024484395980835,0.614828884601593,0.17433308064937592
1761399799273452500,10.05645263671875,1.1611268520355225,0.8724814057350159,0.1460714042186737
1761399799283519000,10.06651904296875,1.1725515127182007,0.8877197504043579,0.0967092216014862
1761399799293614300,10.0766142578125,1.1100993156433105,0.7745398283004761,0.06538323312997818
1761399799303696000,10.08669580078125,0.958515465259552,0.6793460845947266,0.01244046725332737
1761399799323845400,10.106845458984376,0.13473008573055267,0.5650003552436829,-0.28696343302726746
1761399799333938700,10.116938720703125,-0.490823894739151,0.4005763828754425,-0.8594913482666016
1761399799344007000,10.1270068359375,-1.2061090469360352,0.3380909264087677,-1.627136468887329
1761399799354099000,10.137098876953125,-1.785265326499939,0.7672620415687561,-2.3412058353424072
1761399799364172000,10.147172119140626,-1.7189826965332031,1.24026620388031,-2.5839531421661377
1761399799374239200,10.1572392578125,-0.7591848969459534,0.5383874177932739,-1.6682716608047485
1761399799394412000,10.177412109375,1.2798526287078857,-1.1003234386444092,1.2538058757781982
1761399799404493600,10.18749365234375,1.2532730102539062,-0.745162308216095,1.3182564973831177
1761399799414574000,10.197573974609375,0.4195285141468048,-0.13269831240177155,0.7640478610992432
1761399799424648700,10.207648681640626,-0.8705662488937378,0.7892118692398071,0.019435107707977295
1761399799434749000,10.2177490234375,-1.9839630126953125,1.879043459892273,-0.5316925644874573
1761399799444817000,10.22781689453125,-2.5464653968811035,2.4463753700256348,-0.808214008808136
1761399799454911200,10.2379111328125,-2.3939156532287598,1.9269733428955078,-0.9997838735580444
1761399799464991500,10.247991455078125,-1.9094700813293457,0.940895676612854,-1.1178933382034302
1761399799475072500,10.258072509765626,-1.205276370048523,0.15469811856746674,-0.9714555740356445
1761399799485152000,10.268152099609376,-0.3823903203010559,-0.053042687475681305,-0.5408022403717041
1761399799495223600,10.2782236328125,0.3008194863796234,0.3292143940925598,-0.1884222775697708
1761399799505307100,10.28830712890625,0.4161810874938965,0.8423544764518738,-0.17906278371810913
1761399799515396600,10.298396728515625,-0.013239854015409946,1.1250379085540771,-0.455767422914505
1761399799525476600,10.3084765625,-0.5223830342292786,1.2451292276382446,-0.7761885523796082
1761399799535548200,10.318548095703125,-0.7651802897453308,1.3047834634780884,-0.8435036540031433
1761399799545632300,10.32863232421875,-0.7764217257499695,1.2906609773635864,-0.685474693775177
1761399799555720700,10.338720703125,-0.7126705646514893,1.2131869792938232,-0.4951372444629669
1761399799565795800,10.3487958984375,-0.6399595737457275,1.1391770839691162,-0.38330626487731934
1761399799575870700,10.35887060546875,-0.5984747409820557,1.012790560722351,-0.3711489140987396
1761399799585952000,10.368951904296875,-0.6091831922531128,0.885254979133606,-0.41649749875068665
1761399799596042500,10.37904248046875,-0.6090666055679321,0.7606005072593689,-0.47085586190223694
1761399799606123000,10.389123046875,-0.5679147839546204,0.6311330199241638,-0.4999335706233978
1761399799616206600,10.39920654296875,-0.5184193849563599,0.5573728680610657,-0.5002333521842957
1761399799626262300,10.40926220703125,-0.5103422403335571,0.541351854801178,-0.5109751224517822
1761399799636333800,10.419333740234375,-0.5334079265594482,0.5762417316436768,-0.5334412455558777
1761399799646424300,10.42942431640625,-0.5802553296089172,0.6407090425491333,-0.5653667449951172
1761399799656530200,10.4395302734375,-0.6536991000175476,0.6482698917388916,-0.6180763840675354
1761399799666609400,10.449609375,-0.7137364149093628,0.6247878670692444,-0.6649237871170044
1761399799676684500,10.4596845703125,-0.7368020415306091,0.5806217193603516,-0.6747995615005493
1761399799686762800,10.4697626953125,-0.7599509954452515,0.5185026526451111,-0.6473372578620911
1761399799696854500,10.4798544921875,-0.784332275390625,0.47093912959098816,-0.616194486618042
1761399799706923000,10.489923095703125,-0.8252176642417908,0.3927823305130005,-0.5925792455673218
1761399799717016600,10.5000166015625,-0.8601575493812561,0.3177398443222046,-0.5924626588821411
1761399799727095600,10.510095458984376,-0.8673353791236877,0.2958066463470459,-0.6167440414428711
1761399799737165800,10.520165771484375,-0.881074845790863,0.3521634638309479,-0.6401761174201965
1761399799747259600,10.530259765625,-0.9208943247795105,0.43378424644470215,-0.6528497338294983
1761399799757340400,10.54034033203125,-0.9443763494491577,0.48572778701782227,-0.6500851511955261
1761399799767408400,10.550408447265625,-0.9598478078842163,0.5012492537498474,-0.6138463020324707
1761399799777502000,10.560501953125,-0.9703397750854492,0.4488726854324341,-0.5605038404464722
1761399799787583000,10.5705830078125,-0.9340842366218567,0.3087300956249237,-0.4868602454662323
1761399799797662200,10.580662109375,-0.8137930631637573,0.15999406576156616,-0.39138340950012207
1761399799807745500,10.59074560546875,-0.6887388825416565,-0.009509379975497723,-0.31021228432655334
1761399799817826600,10.60082666015625,-0.562818706035614,-0.00464643957093358,-0.23736810684204102
1761399799827895800,10.610895751953125,-0.4695568382740021,0.20267802476882935,-0.23994946479797363
1761399799837988000,10.620988037109376,-0.33139604330062866,0.33431047201156616,-0.27097567915916443
1761399799848069000,10.631069091796874,-0.2074410319328308,0.28098466992378235,-0.24351339042186737
1761399799858139400,10.641139404296876,-0.14299042522907257,0.18742305040359497,-0.10811714828014374
1761399799868231200,10.651231201171875,-0.08863208442926407,0.14685413241386414,0.07920597493648529
1761399799878312200,10.661312255859375,0.0003164241788908839,0.21248717606067657,0.2462446391582489
1761399799888393500,10.6713935546875,0.08731642365455627,0.35234665870666504,0.3776772618293762
1761399799898474000,10.681473876953126,0.11456221342086792,0.4837459623813629,0.5223163962364197
1761399799908542500,10.69154248046875,0.2291743904352188,0.46336159110069275,0.6406923532485962
1761399799918634500,10.701634521484374,0.43996286392211914,0.10929957777261734,0.8101292252540588
1761399799928704300,10.711704345703126,0.707641065120697,-0.3387237787246704,0.9940882325172424
1761399799938798300,10.72179833984375,0.9570499658584595,-0.5762417316436768,1.169004201889038
1761399799948866300,10.7318662109375,1.2132868766784668,-0.8016024231910706,1.3045337200164795
1761399799958947600,10.741947509765625,1.4078545570373535,-0.8966295719146729,1.4048734903335571
1761399799969041000,10.752041015625,1.5135235786437988,-0.7773543000221252,1.5540924072265625
1761399799979122400,10.762122314453125,1.5776077508926392,-0.5753591060638428,1.8309303522109985
1761399799989201000,10.772200927734374,1.674117088317871,-0.19601646065711975,2.2549386024475098
1761399799999284200,10.7822841796875,1.7765885591506958,0.2993372976779938,2.7018961906433105
1761399800009342000,10.792342041015624,1.802335500717163,0.6830599308013916,2.981382131576538
1761399800019421000,10.8024208984375,1.6721019744873047,0.9431772232055664,3.0275466442108154
1761399800029527000,10.812527099609374,1.4514877796173096,1.1319493055343628,2.83870792388916
1761399800039608300,10.8226083984375,1.249009609222412,1.2365190982818604,2.465177536010742
1761399800069838600,10.852838623046875,1.4261071681976318,0.8256173133850098,2.0371556282043457
1761399800110162700,10.89316259765625,1.3198719024658203,0.20747435092926025,1.6834932565689087
1761399800120243500,10.903243408203124,1.1601775884628296,-0.13091634213924408,1.3490828275680542
1761399800130337000,10.9133369140625,1.033707857131958,-0.41205090284347534,1.1542655229568481
1761399800140416300,10.923416259765625,0.9700233340263367,-0.5791728496551514,1.084468960762024
1761399800150494200,10.933494140625,0.8868537545204163,-0.7213139533996582,1.0222166776657104
1761399800160577800,10.943577880859374,0.8170572519302368,-1.0221500396728516,0.8695170283317566
1761399800170659000,10.9536591796875,0.7481266856193542,-1.2035943269729614,0.7159014344215393
1761399800180737800,10.96373779296875,0.6911537051200867,-1.3016858100891113,0.5823037624359131
1761399800190823200,10.9738232421875,0.6449890732765198,-1.3539291620254517,0.5066117644309998
1761399800200887300,10.98388720703125,0.6050696969032288,-1.3252677917480469,0.4942379295825958
1761399800210985000,10.99398486328125,0.6191255450248718,-1.2206813097000122,0.47919946908950806
1761399800221066000,11.00406591796875,0.6563137173652649,-1.0358729362487793,0.4114846885204315
1761399800231141400,11.014141357421876,0.5820373296737671,-0.7976054549217224,0.30756431818008423
1761399800241223700,11.0242236328125,0.4457584023475647,-0.6151286363601685,0.1554975062608719
1761399800251309000,11.03430908203125,0.25627028942108154,-0.461113303899765,-0.014605474658310413
1761399800261367300,11.0443671875,0.13026684522628784,-0.3677515387535095,-0.18211044371128082
1761399800271471000,11.05447119140625,0.06801454722881317,-0.2909437119960785,-0.3220365643501282
1761399800281552400,11.064552490234375,0.01673717424273491,-0.18755628168582916,-0.4086868166923523
1761399800291633000,11.0746328125,-0.05294276401400566,-0.05975421145558357,-0.44425955414772034
1761399800301714000,11.0847138671875,-0.16289184987545013,0.14195787906646729,-0.4685909152030945
1761399800311791400,11.094791259765625,-0.3043501079082489,0.42094409465789795,-0.5259636044502258
1761399800321875700,11.104875732421876,-0.46244561672210693,0.7556542754173279,-0.6404092311859131
1761399800331957000,11.11495703125,-0.6328317523002625,1.064367651939392,-0.7849817872047424
1761399800342037800,11.125037841796875,-0.8188391923904419,1.286247730255127,-0.9020420908927917
1761399800352118800,11.135118896484375,-0.9765017032623291,1.3237190246582031,-0.8918332457542419
1761399800362187500,11.1451875,-1.0473806858062744,1.1456553936004639,-0.6190589666366577
1761399800372266200,11.155266357421874,-1.0175702571868896,0.89664626121521,-0.29029420018196106
1761399800382356500,11.1653564453125,-0.7963564395904541,0.5832030773162842,-0.18229363858699799
1761399800392443400,11.175443359375,-0.38865217566490173,0.2145855575799942,-0.0856010690331459
1761399800402513200,11.18551318359375,0.08203713595867157,0.07022951543331146,0.023098966106772423
1761399800412592400,11.19559228515625,0.47078922390937805,0.024331355467438698,0.08052162826061249
1761399800422686200,11.205686279296875,0.7073079943656921,0.0022815850097686052,0.07965562492609024
1761399800432767200,11.215767333984376,0.8129270672798157,-0.0025480473414063454,0.06375114619731903
1761399800442858000,11.22585791015625,0.8549448847770691,0.025980090722441673,0.02020118571817875
1761399800452941800,11.23594189453125,0.8350434303283691,0.16322492063045502,-0.06579957902431488
1761399800463010000,11.246010009765625,0.6991809010505676,0.3616895079612732,-0.1668887734413147
1761399800473091300,11.25609130859375,0.40685489773750305,0.5737936496734619,-0.18347607553005219
1761399800483172600,11.266172607421876,-0.03217534348368645,0.7780205011367798,-0.18520808219909668
1761399800493252900,11.2762529296875,-0.5125572085380554,0.9056726694107056,-0.20044639706611633
1761399800503319000,11.286319091796875,-0.9400296807289124,1.0589884519577026,-0.19005435705184937
1761399800513415000,11.296414794921875,-1.0455987453460693,1.2430307865142822,-0.23663532733917236
1761399800523496000,11.306495849609375,-0.5540087819099426,1.5008498430252075,-0.4928223490715027
1761399800533564000,11.31656396484375,0.3324452340602875,1.258718729019165,-0.5242815613746643
1761399800543632400,11.32663232421875,1.07307767868042,0.7630485892295837,-0.12512078881263733
1761399800553738200,11.33673828125,1.1015058755874634,0.641225278377533,0.2234620898962021
1761399800563818000,11.34681787109375,0.5210174322128296,0.6100825071334839,0.2636146545410156
1761399800573869000,11.356869140625,-0.2933085858821869,0.6127804517745972,0.07286083698272705
1761399800583982000,11.366982177734375,-1.0634018182754517,0.8607737421989441,-0.2007794827222824
1761399800594062600,11.3770625,-1.6971495151519775,1.1829601526260376,-0.40262481570243835
1761399800604143900,11.387143798828125,-2.0809054374694824,1.3761121034622192,-0.5542585849761963
1761399800614222000,11.39722216796875,-2.0438170433044434,1.208573818206787,-0.7530229687690735
1761399800624306000,11.407305908203124,-1.4832466840744019,0.734120786190033,-0.9718719124794006
1761399800634385200,11.41738525390625,-0.7543386220932007,0.5898979902267456,-0.9875099658966064
1761399800644473300,11.427473388671874,-0.06141960248351097,0.7817009687423706,-0.7094730138778687
1761399800654548700,11.437548828125,0.18137767910957336,0.9300706386566162,-0.4401960074901581
1761399800664629800,11.447629638671875,-0.021733345463871956,1.043317198753357,-0.41241729259490967
1761399800674710800,11.457710693359376,-0.3291477859020233,1.16289222240448,-0.5983914732933044
1761399800684791600,11.46779150390625,-0.5119577050209045,1.3641879558563232,-0.7362191677093506
1761399800694870500,11.47787060546875,-0.5913468599319458,1.4883261919021606,-0.7106720805168152
1761399800704954000,11.4879541015625,-0.6224396824836731,1.5368056297302246,-0.6045700311660767
1761399800715023000,11.498023193359375,-0.5933286547660828,1.5374884605407715,-0.4993007183074951
1761399800735178500,11.518178466796876,-0.5167873501777649,1.5040473937988281,-0.31978827714920044
1761399800745277200,11.528277099609374,-0.5184527039527893,1.4837796688079834,-0.27572205662727356
1761399800755359000,11.53835888671875,-0.524747908115387,1.4194788932800293,-0.26599615812301636
1761399800765438000,11.54843798828125,-0.5219000577926636,1.300570011138916,-0.28384914994239807
1761399800775502000,11.558502197265625,-0.49480417370796204,1.1624258756637573,-0.3126104474067688
1761399800785599500,11.568599609375,-0.45078790187835693,0.980548620223999,-0.35602718591690063
1761399800795681800,11.578681884765626,-0.41886237263679504,0.8235688805580139,-0.4084036946296692
1761399800805763600,11.588763671875,-0.42129382491111755,0.7198817133903503,-0.4635447859764099
1761399800815830800,11.598830810546875,-0.45655015110969543,0.68349289894104,-0.5122907757759094
1761399800825923300,11.60892333984375,-0.5236820578575134,0.7216802835464478,-0.5504282116889954
1761399800835989200,11.6189892578125,-0.5926458835601807,0.8090300559997559,-0.5659329891204834
1761399800846084000,11.629083984375,-0.6417582035064697,0.8968960642814636,-0.5561738014221191
1761399800856169000,11.6391689453125,-0.653365969657898,0.8898181319236755,-0.5166207551956177
1761399800866249700,11.649249755859374,-0.6451389789581299,0.8130103349685669,-0.45863187313079834
1761399800876328400,11.659328369140624,-0.677797257900238,0.6924360394477844,-0.4172968864440918
1761399800886393300,11.669393310546875,-0.7544218897819519,0.5977752804756165,-0.4250243008136749
1761399800906560800,11.689560791015625,-0.8674352765083313,0.443276971578598,-0.515754759311676
1761399800916643800,11.699643798828125,-0.8967627882957458,0.4087700843811035,-0.5532926917076111
1761399800926735000,11.709735107421874,-0.8995939493179321,0.4249576926231384,-0.5560572147369385
1761399800936816600,11.719816650390625,-0.8974456191062927,0.49357178807258606,-0.5466811060905457
1761399800946895600,11.7298955078125,-0.8977953791618347,0.5054293870925903,-0.520218014717102
1761399800956982000,11.73998193359375,-0.8394067883491516,0.44184476137161255,-0.47698450088500977
1761399800967039000,11.7500390625,-0.7430805563926697,0.42922109365463257,-0.38269007205963135
1761399800977127700,11.760127685546875,-0.6308498978614807,0.5050129890441895,-0.27557215094566345
1761399800987221500,11.770221435546874,-0.5459815859794617,0.6515340805053711,-0.20294448733329773
1761399800997303600,11.780303466796875,-0.4931720793247223,0.7867804169654846,-0.17749731242656708
1761399801007381200,11.79038134765625,-0.4177298843860626,0.8388405442237854,-0.1702195554971695
1761399801017464600,11.800464599609375,-0.30773085355758667,0.76781165599823,-0.12908442318439484
1761399801027512600,11.8105126953125,-0.21899884939193726,0.6570464968681335,-0.032291922718286514
1761399801037626400,11.82062646484375,-0.16367457807064056,0.5635181665420532,0.07542553544044495
1761399801047707000,11.830706787109374,-0.1045532152056694,0.5145223736763,0.15394869446754456
1761399801057784300,11.840784423828126,-0.052076760679483414,0.5997737050056458,0.21761657297611237
1761399801067869200,11.850869140625,-0.0021483537275344133,0.7038939595222473,0.3032343089580536
1761399801077948200,11.8609482421875,0.050960950553417206,0.7713589072227478,0.4214104115962982
1761399801088031700,11.87103173828125,0.13096630573272705,0.6205577850341797,0.5705627799034119
1761399801098112300,11.8811123046875,0.2835993468761444,0.3076809048652649,0.7346537113189697
1761399801108155400,11.8911552734375,0.6018055081367493,-0.047663476318120956,0.8564437031745911
1761399801118274000,11.901274169921875,0.8851550221443176,-0.3313627541065216,0.9650105237960815
1761399801128355000,11.91135498046875,1.1094998121261597,-0.6256871819496155,1.0280455350875854
1761399801138421800,11.921421875,1.3028349876403809,-0.677530825138092,1.1075012683868408
1761399801148517400,11.931517333984376,1.4880096912384033,-0.47183844447135925,1.269826889038086
1761399801158598400,11.941598388671874,1.6305005550384521,-0.2723579704761505,1.5459320545196533
1761399801168679200,11.95167919921875,1.6752495765686035,-0.06876397132873535,1.9401133060455322
1761399801178760000,11.961760009765625,1.700863242149353,0.23820079863071442,2.4164981842041016
1761399801188841200,11.97184130859375,1.7469112873077393,0.7002633810043335,2.870666980743408
1761399801198920400,11.98192041015625,1.7147526741027832,1.2681115865707397,3.1365630626678467
1761399801208994800,11.991994873046876,1.5671157836914062,1.8114784955978394,3.1105496883392334
1761399801219071500,12.002071533203125,1.359025239944458,2.044999599456787,2.822803497314453
1761399801229165000,12.0121650390625,1.1788465976715088,1.8418219089508057,2.423642873764038
1761399801239241200,12.0222412109375,1.1340975761413574,1.4149657487869263,2.1132307052612305
1761399801249327400,12.032327392578125,1.2281922101974487,1.1435903310775757,2.027296543121338
1761399801259408000,12.042407958984375,1.3822407722473145,1.1573797464370728,2.121424436569214
1761399801269476600,12.0524765625,1.5303106307983398,1.18216073513031,2.1884896755218506
1761399801279570000,12.06256982421875,1.6122478246688843,1.0046634674072266,2.0517778396606445
1761399801289651000,12.07265087890625,1.6033380031585693,0.5624356865882874,1.800287127494812
1761399801299719000,12.082718994140626,1.4894253015518188,0.052160028368234634,1.5406694412231445
1761399801309813000,12.09281298828125,1.2973891496658325,-0.346001535654068,1.352030634880066
1761399801319894800,12.102894775390626,1.1013892889022827,-0.534207284450531,1.2246116399765015
1761399801329973000,12.112972900390625,0.959614634513855,-0.6072180271148682,1.1193256378173828
1761399801340051700,12.1230517578125,0.8744299411773682,-0.5329415798187256,1.0408190488815308
1761399801350137000,12.13313720703125,0.8741135001182556,-0.5659329891204834,0.921610414981842
1761399801360231400,12.1432314453125,0.8886356949806213,-0.6434902548789978,0.8154917359352112
1761399801370299400,12.15329931640625,0.8741634488105774,-0.6478036046028137,0.7943413257598877
1761399801380378400,12.16337841796875,0.8520470857620239,-0.5922794938087463,0.8032178282737732
1761399801390461200,12.173461181640626,0.8856046795845032,-0.45773258805274963,0.754838228225708
1761399801400538400,12.183538330078125,0.8308133482933044,-0.22905780375003815,0.646171510219574
1761399801410597600,12.19359765625,0.6502516865730286,-0.06756488978862762,0.5064951777458191
1761399801420692000,12.20369189453125,0.4910403788089752,0.008776607923209667,0.3608568012714386
1761399801430784800,12.21378466796875,0.3611565828323364,0.0922626331448555,0.21240390837192535
1761399801440866300,12.2238662109375,0.224794402718544,0.1612597554922104,0.04396630823612213
1761399801450947000,12.233947021484376,0.08265332877635956,0.20802392065525055,-0.1300336867570877
1761399801461024500,12.2440244140625,-0.07182829082012177,0.25751933455467224,-0.2797689437866211
1761399801471109000,12.254109130859375,-0.22727583348751068,0.3081139028072357,-0.39346516132354736
1761399801481190000,12.26418994140625,-0.3828566074371338,0.3570597171783447,-0.44252756237983704
1761399801491258600,12.274258544921874,-0.5419347286224365,0.40843701362609863,-0.4377811849117279
1761399801501351700,12.2843515625,-0.6919863820075989,0.46975669264793396,-0.41235068440437317
1761399801511433000,12.294432861328126,-0.8290979862213135,0.5352065563201904,-0.3875197172164917
1761399801521509600,12.304509521484375,-0.9592316150665283,0.6127804517745972,-0.3848883807659149
1761399801531582000,12.31458203125,-1.0959268808364868,0.7321556210517883,-0.432984858751297
1761399801541663200,12.324663330078126,-1.2430307865142822,0.9057892560958862,-0.5318424701690674
1761399801551757000,12.334757080078125,-1.3812083005905151,1.0543420314788818,-0.625254213809967
1761399801561838000,12.344838134765626,-1.4594815969467163,1.13552987575531,-0.6906041502952576
1761399801571898600,12.354898681640625,-1.4242253303527832,1.1381112337112427,-0.7462115287780762
1761399801582000400,12.36500048828125,-1.2708262205123901,1.1051864624023438,-0.7688608169555664
1761399801592079400,12.375079345703124,-1.0042304992675781,1.038720726966858,-0.7644808292388916
1761399801602139100,12.38513916015625,-0.6558141112327576,1.0218669176101685,-0.731922447681427
1761399801612243200,12.3952431640625,-0.2962396442890167,1.032891869544983,-0.6325319409370422
1761399801622323700,12.40532373046875,0.024164816364645958,0.8252509236335754,-0.3727976679801941
1761399801632392000,12.415391845703125,0.24641117453575134,0.5826202034950256,0.07064586132764816
1761399801642486000,12.425486083984374,0.4243914484977722,0.7705262303352356,0.49966710805892944
1761399801652564700,12.435564697265624,0.6377113461494446,1.1373285055160522,0.7178665399551392
1761399801662641200,12.44564111328125,0.7000635266304016,1.2497256994247437,0.7387338876724243
1761399801672716300,12.45571630859375,0.45053809881210327,1.530860185623169,0.3463512659072876
1761399801682809900,12.465809814453126,0.015604709275066853,1.8222535848617554,-0.03182561323046684
1761399801692890000,12.47589013671875,-0.339206725358963,1.7571368217468262,-0.14269065856933594
1761399801702972000,12.485971923828124,-0.3905174136161804,1.6126142740249634,-0.2011125534772873
1761399801713053200,12.49605322265625,-0.07381010800600052,1.8682184219360352,-0.3710823059082031
1761399801723132200,12.506132080078125,0.4747695326805115,2.246278762817383,-0.5621026158332825
1761399801733209900,12.5162099609375,0.9278723001480103,2.1126644611358643,-0.4171636700630188
1761399801743296000,12.5262958984375,0.9998671412467957,1.0478969812393188,0.268444299697876
1761399801753377000,12.536376953125,0.7713922262191772,0.004296707455068827,1.0323089361190796
1761399801763458000,12.5464580078125,0.4275057315826416,0.08798258006572723,1.27052640914917
1761399801773526800,12.55652685546875,-0.07717419415712357,0.8577260375022888,1.0145225524902344
1761399801783605000,12.56660498046875,-0.7182329297065735,1.6122645139694214,0.7052262425422668
1761399801793700900,12.576700927734375,-1.242797613143921,2.030460834503174,0.5098759531974792
1761399801803762000,12.586761962890625,-1.38462233543396,2.0781242847442627,0.2964394986629486
1761399801813862700,12.596862548828126,-1.1223232746124268,1.7465949058532715,-0.09964030981063843
1761399801823944000,12.60694384765625,-0.722113311290741,1.5059460401535034,-0.4273725152015686
1761399801834025000,12.61702490234375,-0.16860413551330566,1.5867674350738525,-0.5623690485954285
1761399801844094500,12.627094482421874,0.21545156836509705,1.8047337532043457,-0.5154716372489929
1761399801854186200,12.637186279296875,0.14075879752635956,1.930370807647705,-0.40968605875968933
1761399801864265700,12.647265625,-0.13394735753536224,2.025197982788086,-0.38358938694000244
1761399801874348300,12.657348388671876,-0.3466343879699707,2.151867628097534,-0.3755788505077362
1761399801884429600,12.6674296875,-0.4835794270038605,2.1440069675445557,-0.2944909930229187
1761399801894510600,12.677510498046875,-0.6000401973724365,2.0090436935424805,-0.21027220785617828
1761399801904592000,12.687591796875,-0.704143762588501,1.9952210187911987,-0.1514839231967926
1761399801914639000,12.69763916015625,-0.6790130138397217,2.073261260986328,-0.07077909260988235
1761399801924728600,12.707728515625,-0.5182362198829651,1.9577664136886597,0.03648870438337326
1761399801934809000,12.71780908203125,-0.3585585653781891,1.8219538927078247,0.16200917959213257
1761399801944889000,12.72788916015625,-0.28433212637901306,1.6862411499023438,0.23515313863754272
1761399801954996700,12.737996826171875,-0.2649136781692505,1.5839029550552368,0.21390275657176971
1761399801965077500,12.748077392578125,-0.26842764019966125,1.6159783601760864,0.12258939445018768
1761399801975156500,12.758156494140625,-0.24621133506298065,1.6822775602340698,0.03965294733643532
1761399801985227000,12.76822705078125,-0.2269427627325058,1.7506251335144043,0.011008230969309807
1761399801995320300,12.7783203125,-0.210422083735466,1.8602079153060913,0.048446208238601685
1761399802005389600,12.7883896484375,-0.19308537244796753,1.9053566455841064,0.11444563418626785
1761399802015470800,12.798470947265624,-0.17263437807559967,1.8768783807754517,0.17496591806411743
1761399802025549300,12.80854931640625,-0.18069486320018768,1.797272801399231,0.20006336271762848
