time,seconds_elapsed,z,y,x
1761399789343642600,0.126642578125,0.041449617594480515,-9.60291862487793,-1.8324620723724365
1761399789353725200,0.13672509765625,0.02289455384016037,-9.583391189575195,-1.8160767555236816
1761399789363826200,0.146826171875,-0.0035913025494664907,-9.54777717590332,-1.7538275718688965
1761399789373911000,0.1569111328125,-0.008155249990522861,-9.525107383728027,-1.7141735553741455
1761399789383992000,0.166991943359375,-0.010100538842380047,-9.521739959716797,-1.6875381469726562
1761399789394073300,0.1770732421875,-0.020350715145468712,-9.550470352172852,-1.702277421951294
1761399789404154000,0.187154052734375,-0.008155249990522861,-9.592294692993164,-1.7078139781951904
1761399789414235000,0.19723486328125,0.024765023961663246,-9.58249282836914,-1.7081133127212524
1761399789424317000,0.20731689453125,0.044592007994651794,-9.556530952453613,-1.6843209266662598
1761399789434393300,0.217393310546875,0.06584054976701736,-9.549946784973145,-1.6810288429260254
1761399789444478200,0.227478271484375,0.07721300423145294,-9.561842918395996,-1.6840964555740356
1761399789454559000,0.23755908203125,0.11043255031108856,-9.567304611206055,-1.6887352466583252
1761399789464640000,0.247639892578125,0.13833996653556824,-9.5578031539917,-1.70512056350708
1761399789474721500,0.257721435546875,0.1405845284461975,-9.536778450012207,-1.708711862564087
1761399789484802000,0.267802001953125,0.10781389474868774,-9.509544372558594,-1.7155203819274902
1761399789494883800,0.2778837890625,0.09898527711629868,-9.486275672912598,-1.7678186893463135
1761399789504965000,0.287965087890625,0.047809213399887085,-9.521440505981445,-1.8275240659713745
1761399789515045000,0.298045166015625,-0.018555063754320145,-9.55129337310791,-1.8683003187179565
1761399789525127000,0.308126953125,-0.06397007405757904,-9.515305519104004,-1.816750168800354
1761399789535207700,0.318207763671875,-0.08955810964107513,-9.464578628540039,-1.7423055171966553
1761399789545288200,0.3282880859375,-0.12412439286708832,-9.464055061340332,-1.663147211074829
1761399789555369200,0.338369140625,-0.16684593260288239,-9.520393371582031,-1.641599416732788
1761399789565450500,0.348450439453125,-0.18974047899246216,-9.576581954956055,-1.6291794776916504
1761399789575506200,0.358506103515625,-0.1982698291540146,-9.605986595153809,-1.6382324695587158
1761399789585612800,0.36861279296875,-0.1942296177148819,-9.6571626663208,-1.6532710790634155
1761399789595693800,0.37869384765625,-0.2223614901304245,-9.651700019836426,-1.6935983896255493
1761399789605737700,0.38873779296875,-0.26336219906806946,-9.588553428649902,-1.7239000797271729
1761399789615855400,0.39885546875,-0.31955111026763916,-9.536404609680176,-1.7563713788986206
1761399789625936600,0.4089365234375,-0.3762637674808502,-9.570672035217285,-1.7624317407608032
1761399789635992600,0.41899267578125,-0.4207061231136322,-9.603367805480957,-1.7953519821166992
1761399789646098700,0.4290986328125,-0.44434887170791626,-9.577330589294434,-1.8341829776763916
1761399789656179500,0.439179443359375,-0.4305822253227234,-9.504905700683594,-1.8603695631027222
1761399789666261000,0.449260986328125,-0.4407575726509094,-9.45687198638916,-1.9375077486038208
1761399789676341500,0.459341552734375,-0.46746787428855896,-9.45792007446289,-2.0008792877197266
1761399789686422500,0.469422607421875,-0.529268205165863,-9.507450103759766,-2.0585646629333496
1761399789696503600,0.479503662109375,-0.5416133403778076,-9.495702743530273,-2.126500129699707
1761399789706584800,0.489584716796875,-0.5110872387886047,-9.518747329711914,-2.1292684078216553
1761399789716665900,0.499665771484375,-0.49791914224624634,-9.537900924682617,-2.109516143798828
1761399789726746400,0.509746337890625,-0.5149030089378357,-9.537077903747559,-2.1126585006713867
1761399789736806100,0.51980615234375,-0.5472995638847351,-9.506925582885742,-2.113107442855835
1761399789746908700,0.52990869140625,-0.5411643981933594,-9.503259658813477,-2.1501426696777344
1761399789756981800,0.539981689453125,-0.5486462712287903,-9.48575210571289,-2.197503089904785
1761399789767049500,0.550049560546875,-0.5792471766471863,-9.490690231323242,-2.24935245513916
1761399789777151700,0.56015185546875,-0.5756558775901794,-9.469740867614746,-2.2822728157043457
1761399789787193000,0.570193115234375,-0.5339069962501526,-9.4845552444458,-2.306514024734497
1761399789797314300,0.580314208984375,-0.5462520718574524,-9.465551376342773,-2.3731775283813477
1761399789807394600,0.59039453125,-0.5933130979537964,-9.395745277404785,-2.4426095485687256
1761399789817476600,0.6004765625,-0.6233154535293579,-9.327585220336914,-2.477250576019287
1761399789827556600,0.610556640625,-0.6395511031150818,-9.320627212524414,-2.518176555633545
1761399789837612500,0.620612548828125,-0.6750152707099915,-9.319355010986328,-2.5592520236968994
1761399789847720000,0.630719970703125,-0.7092074155807495,-9.337535858154297,-2.5231893062591553
1761399789857761000,0.640760986328125,-0.7182605266571045,-9.349283218383789,-2.4438066482543945
1761399789867881500,0.650881591796875,-0.7699602842330933,-9.356764793395996,-2.318185806274414
1761399789877961700,0.660961669921875,-0.8243535757064819,-9.370756149291992,-2.258854389190674
1761399789888019700,0.671019775390625,-0.8820388913154602,-9.36701488494873,-2.2928221225738525
1761399789898119700,0.68111962890625,-0.9243115186691284,-9.350106239318848,-2.379911422729492
1761399789908179700,0.6911796875,-0.9309703707695007,-9.293842315673828,-2.4532337188720703
1761399789918286300,0.701286376953125,-0.912190854549408,-9.291672706604004,-2.5145103931427
1761399789928366600,0.71136669921875,-0.9135375618934631,-9.342175483703613,-2.539050817489624
1761399789938444800,0.72144482421875,-0.9207202196121216,-9.382652282714844,-2.4803929328918457
1761399789948528600,0.731528564453125,-0.8899696469306946,-9.391031265258789,-2.3395838737487793
1761399789958609400,0.741609375,-0.860042154788971,-9.438241958618164,-2.2108209133148193
1761399789968691200,0.751691162109375,-0.8580220341682434,-9.494955062866211,-2.088716506958008
1761399789978771700,0.761771728515625,-0.8735843300819397,-9.542839050292969,-2.016965389251709
1761399789988875000,0.771875,-0.905906081199646,-9.56169319152832,-2.013972520828247
1761399789998929700,0.7819296875,-0.9319429993629456,-9.621099472045898,-2.10136079788208
1761399790009014500,0.7920146484375,-0.9683049321174622,-9.772757530212402,-2.2287025451660156
1761399790019095800,0.802095703125,-1.0017489194869995,-9.956586837768555,-2.3107786178588867
1761399790029176800,0.8121767578125,-1.0310779809951782,-10.077569007873535,-2.3726539611816406
1761399790039257600,0.822257568359375,-1.0152912139892578,-10.08894157409668,-2.445901393890381
1761399790049339000,0.8323388671875,-0.9895535111427307,-9.982698440551758,-2.6361656188964844
1761399790059419600,0.842419677734375,-0.9710732698440552,-9.852214813232422,-2.908581018447876
1761399790069496600,0.85249658203125,-0.9406219720840454,-9.675493240356445,-3.2112231254577637
1761399790079582200,0.862582275390625,-0.8732850551605225,-9.522862434387207,-3.4888756275177
1761399790089663200,0.872663330078125,-0.8191162347793579,-9.482909202575684,-3.6988918781280518
1761399790099744000,0.882743896484375,-0.8084920048713684,-9.44534969329834,-3.785008430480957
1761399790109824800,0.89282470703125,-0.791358470916748,-9.417068481445312,-3.813140392303467
1761399790119906600,0.902906494140625,-0.8170961737632751,-9.432332038879395,-3.840972900390625
1761399790129983000,0.91298291015625,-0.9303718209266663,-9.459864616394043,-3.9466917514801025
1761399790140068400,0.923068359375,-1.2062287330627441,-9.657386779785156,-4.17728328704834
1761399790150148900,0.93314892578125,-1.5776293277740479,-10.288483619689941,-4.552948474884033
1761399790160230100,0.943230224609375,-1.9039140939712524,-11.089118957519531,-4.651484966278076
1761399790170311200,0.953311279296875,-1.805377721786499,-11.521048545837402,-4.25898551940918
1761399790180392400,0.963392333984375,-1.2012907266616821,-11.299360275268555,-3.5579333305358887
1761399790190473200,0.97347314453125,-0.45901334285736084,-10.713080406188965,-2.8493244647979736
1761399790200550100,0.983550048828125,0.314238965511322,-10.306215286254883,-2.2537667751312256
1761399790210636000,0.993635986328125,1.0684125423431396,-10.259827613830566,-1.8135329484939575
1761399790220716000,1.003716064453125,1.4922610521316528,-10.629133224487305,-1.6584335565567017
1761399790230797300,1.01379736328125,1.574935793876648,-11.134459495544434,-1.6172832250595093
1761399790240852700,1.023852783203125,1.2516437768936157,-11.253945350646973,-1.6445921659469604
1761399790250958800,1.033958740234375,1.2727426290512085,-10.966715812683105,-1.7208324670791626
1761399790261036300,1.044036376953125,0.9619453549385071,-10.526631355285645,-1.3614777326583862
1761399790271121000,1.054120849609375,0.885480523109436,-9.93825626373291,-0.5793967843055725
1761399790281202000,1.064201904296875,0.9628431797027588,-9.899351119995117,-0.18061259388923645
1761399790291283200,1.074283203125,1.488594889640808,-10.348787307739258,0.043095629662275314
1761399790301364200,1.0843642578125,2.4578723907470703,-10.861371040344238,0.5675754547119141
1761399790311445000,1.094445068359375,2.8972084522247314,-11.012879371643066,1.321748971939087
1761399790321522200,1.104522216796875,2.7950809001922607,-11.298611640930176,1.9569605588912964
1761399790331607000,1.11460693359375,2.3203556537628174,-11.509750366210938,2.0598363876342773
1761399790341688000,1.12468798828125,1.3664158582687378,-11.283573150634766,1.4911386966705322
1761399790351725300,1.134725341796875,0.9537901282310486,-10.990508079528809,0.5683984756469727
1761399790361851100,1.14485107421875,1.2786533832550049,-10.821192741394043,-0.1198597252368927
1761399790371931100,1.15493115234375,1.8312649726867676,-10.82156753540039,-0.7557447552680969
1761399790381987000,1.164987060546875,1.9968390464782715,-10.582072257995605,-1.5269020795822144
1761399790392088600,1.175088623046875,1.6340426206588745,-10.152986526489258,-2.146775960922241
1761399790402174500,1.185174560546875,1.5692496299743652,-9.85266399383545,-2.1215620040893555
1761399790412242700,1.19524267578125,1.5133599042892456,-9.555334091186523,-1.5569792985916138
1761399790422336500,1.20533642578125,1.1260977983474731,-9.352275848388672,-1.064671516418457
1761399790432397300,1.215397216796875,1.1291654109954834,-9.17660140991211,-0.8652794361114502
1761399790442498300,1.225498291015625,1.24184250831604,-9.155876159667969,-0.7170634269714355
1761399790452575200,1.2355751953125,1.3200281858444214,-9.034146308898926,-1.1161469221115112
1761399790462657300,1.2456572265625,1.3976151943206787,-9.142932891845703,-1.428964376449585
1761399790472723500,1.255723388671875,1.5613187551498413,-9.249998092651367,-1.2921206951141357
1761399790482823000,1.265822998046875,1.7907880544662476,-9.114875793457031,-1.3138929605484009
1761399790492903200,1.275903076171875,2.002899408340454,-8.887351989746094,-1.5604209899902344
1761399790502984400,1.285984375,2.199298620223999,-8.554856300354004,-1.599401593208313
1761399790513065200,1.296065185546875,2.4075193405151367,-8.177769660949707,-1.4287399053573608
1761399790523142400,1.306142333984375,2.5365819931030273,-7.756016254425049,-1.2594997882843018
1761399790533227300,1.316227294921875,2.6833763122558594,-7.2322845458984375,-1.1642553806304932
1761399790543283000,1.326282958984375,2.6251673698425293,-6.53991174697876,-1.1938836574554443
1761399790553390000,1.33639013671875,2.393977165222168,-5.8506059646606445,-1.0148422718048096
1761399790563470800,1.346470947265625,1.9995324611663818,-5.31699800491333,-0.7973439693450928
1761399790573551400,1.35655126953125,1.6097265481948853,-4.89300012588501,-0.6926724910736084
1761399790583628000,1.3666279296875,1.4447511434555054,-4.716203212738037,-0.6530185341835022
1761399790593713400,1.37671337890625,1.4707132577896118,-4.737900733947754,-0.9301473498344421
1761399790603794200,1.386794189453125,1.6452654600143433,-4.796483993530273,-1.459265947341919
1761399790613875200,1.396875244140625,1.9232921600341797,-4.911779403686523,-2.245910882949829
1761399790623933000,1.406932861328125,2.2260091304779053,-5.0877532958984375,-3.1080479621887207
1761399790634012200,1.41701220703125,2.5499744415283203,-5.241206645965576,-3.8620717525482178
1761399790644115000,1.427114990234375,2.892120838165283,-5.341314315795898,-4.518232822418213
1761399790654200300,1.437200439453125,3.237259864807129,-5.453093528747559,-4.9868974685668945
1761399790664280600,1.447280517578125,3.6138978004455566,-5.751919746398926,-5.358448028564453
1761399790674361600,1.457361572265625,4.010512351989746,-6.2807393074035645,-5.785737991333008
1761399790684465000,1.46746484375,4.652008533477783,-7.043367385864258,-6.062567710876465
1761399790694523400,1.4775234375,5.606472015380859,-8.273163795471191,-6.2719855308532715
1761399790704582700,1.487582763671875,6.726659297943115,-10.220098495483398,-6.70413875579834
1761399790714680300,1.497680419921875,7.378480911254883,-12.70445728302002,-7.218966960906982
1761399790724784000,1.5077841796875,7.139584064483643,-14.679673194885254,-7.567099094390869
1761399790734848300,1.51784814453125,7.040225028991699,-14.661417961120605,-6.999897480010986
1761399790744929000,1.527928955078125,7.592911243438721,-12.778677940368652,-5.6536078453063965
1761399790754985200,1.537985107421875,7.686135768890381,-10.45779800415039,-4.29714298248291
1761399790765073700,1.54807373046875,6.699275493621826,-8.619500160217285,-2.6070611476898193
1761399790775146500,1.558146484375,5.585597515106201,-7.3849897384643555,-1.1772738695144653
1761399790785253600,1.568253662109375,5.293729782104492,-7.247248649597168,-0.0991349145770073
1761399790795333600,1.578333740234375,4.574347019195557,-9.138967514038086,0.0504278726875782
1761399790805389000,1.58838916015625,4.398746967315674,-11.848380088806152,-0.5977274179458618
1761399790815495700,1.59849560546875,5.056404113769531,-13.639019012451172,-0.4704606235027313
1761399790825551400,1.60855126953125,4.3587188720703125,-13.027974128723145,-0.5638344883918762
1761399790835618800,1.618618896484375,0.6937947869300842,-10.542418479919434,-0.8210615515708923
1761399790845713200,1.628713134765625,-0.6370072960853577,-7.682245254516602,-1.710058569908142
1761399790855794200,1.638794189453125,-1.1914894580841064,-5.886219501495361,-3.2077813148498535
1761399790865875200,1.648875244140625,-2.705672264099121,-5.828908443450928,-3.8133647441864014
1761399790875956200,1.658956298828125,-3.9821560382843018,-7.515848159790039,-3.3073651790618896
1761399790886063600,1.669063720703125,-2.994323253631592,-9.974244117736816,-3.005396604537964
1761399790896120000,1.6791201171875,-1.31583833694458,-11.262100219726562,-2.753556489944458
1761399790906206500,1.68920654296875,-0.11230302602052689,-10.867655754089355,-2.3698856830596924
1761399790916284000,1.699283935546875,0.060303956270217896,-9.983447074890137,-2.2676830291748047
1761399790926387500,1.709387451171875,-0.9317185282707214,-9.16433048248291,-2.2507741451263428
1761399790936468500,1.719468505859375,-1.656787633895874,-8.807669639587402,-1.9553146362304688
1761399790946526200,1.729526123046875,-1.9492542743682861,-8.665214538574219,-1.4887444972991943
1761399790956629800,1.739629638671875,-1.8712183237075806,-9.461885452270508,-1.2363059520721436
1761399790966685400,1.749685546875,-1.6662895679473877,-10.896985054016113,-1.5387983322143555
1761399790976791600,1.75979150390625,-1.6688333749771118,-12.202796936035156,-2.3121254444122314
1761399790986872600,1.76987255859375,-1.1305121183395386,-12.928091049194336,-2.994847059249878
1761399790996928800,1.7799287109375,-0.41187751293182373,-12.412215232849121,-3.2345664501190186
1761399791007009800,1.790009765625,-0.09973346441984177,-10.615516662597656,-2.2469582557678223
1761399791017095000,1.800094970703125,0.08985738456249237,-9.514183044433594,-0.9011924862861633
1761399791027199500,1.810199462890625,0.0021697452757507563,-9.070732116699219,0.026261400431394577
1761399791037252600,1.820252685546875,-0.5677999258041382,-9.257928848266602,0.34835633635520935
1761399791047359500,1.830359375,-1.2180501222610474,-9.665242195129395,0.028730420395731926
1761399791057397500,1.8403974609375,-1.5514427423477173,-9.879598617553711,-0.6087257862091064
1761399791067521800,1.850521728515625,-1.9492542743682861,-9.524508476257324,-1.0705074071884155
1761399791077602600,1.8606025390625,-2.4064719676971436,-8.847996711730957,-1.4216320514678955
1761399791087659300,1.8706591796875,-3.033378839492798,-8.106842041015625,-1.896881103515625
1761399791097774000,1.880774169921875,-3.6675429344177246,-7.612887859344482,-2.6488850116729736
1761399791107822600,1.890822509765625,-3.959411144256592,-7.495273113250732,-3.567659854888916
1761399791117926700,1.9009267578125,-3.5136406421661377,-7.56904411315918,-4.418948173522949
1761399791128005600,1.911005615234375,-2.459817886352539,-7.920842170715332,-5.292382717132568
1761399791138074600,1.92107470703125,-1.4629321098327637,-7.718681812286377,-5.995230674743652
1761399791148170000,1.931169921875,-0.9498994946479797,-7.976283073425293,-5.597044944763184
1761399791158235100,1.941235107421875,-0.7933785915374756,-8.23343563079834,-5.247790813446045
1761399791168331800,1.951331787109375,-0.8090905547142029,-8.8186674118042,-4.989516258239746
1761399791178412800,1.961412841796875,-0.8248024582862854,-9.090484619140625,-4.442366600036621
1761399791188492800,1.971492919921875,-0.16385318338871002,-9.267355918884277,-4.4287495613098145
1761399791198573800,1.98157373046875,-0.16003741323947906,-8.96157169342041,-4.382212162017822
1761399791208650000,1.99164990234375,-0.5835866928100586,-8.87642765045166,-4.156184673309326
1761399791218710800,2.001710693359375,-0.851138710975647,-8.895357131958008,-3.6542251110076904
1761399791228817200,2.011817138671875,-0.5820902585983276,-9.070208549499512,-3.093308687210083
1761399791238898200,2.021898193359375,-0.28401216864585876,-8.953865051269531,-2.543689727783203
1761399791248934000,2.031933837890625,-0.0198269821703434,-9.378387451171875,-2.647613048553467
1761399791259060200,2.042060302734375,0.1512836217880249,-9.349806785583496,-2.951826333999634
1761399791269141500,2.0521416015625,0.20433014631271362,-9.239748001098633,-3.282600164413452
1761399791279175700,2.06217578125,0.1859247237443924,-9.167472839355469,-3.6815340518951416
1761399791289277000,2.07227685546875,0.044666826725006104,-9.042226791381836,-4.064905643463135
1761399791299358500,2.0823583984375,-0.07676409184932709,-8.857723236083984,-4.373682975769043
1761399791309465000,2.092465087890625,-0.013093290850520134,-9.161637306213379,-4.882450580596924
1761399791319546600,2.102546630859375,0.12083236873149872,-9.650578498840332,-5.224971294403076
1761399791329618400,2.112618408203125,0.3331681191921234,-9.948731422424316,-5.057601451873779
1761399791339683000,2.12268310546875,0.25498247146606445,-10.060810089111328,-4.68290901184082
1761399791349765600,2.132765625,0.027458500117063522,-10.000804901123047,-4.50371789932251
1761399791359844600,2.1428447265625,0.2852841019630432,-9.756746292114258,-4.145036697387695
1761399791369952000,2.152951904296875,0.7279121279716492,-9.609203338623047,-3.807603597640991
1761399791379991800,2.16299169921875,0.31551089882850647,-9.902268409729004,-3.8920741081237793
1761399791390113000,2.173113037109375,0.013168109580874443,-9.81488037109375,-4.138976097106934
1761399791400195000,2.183195068359375,0.22632688283920288,-9.788768768310547,-4.106205463409424
1761399791410271200,2.193271240234375,0.7146692276000977,-9.818471908569336,-3.951106071472168
1761399791420356000,2.203356201171875,0.9056068062782288,-9.901071548461914,-3.8886325359344482
1761399791430436900,2.213436767578125,-0.3769371211528778,-10.519673347473145,-4.4992289543151855
1761399791440519000,2.223518798828125,-1.5447089672088623,-11.129371643066406,-5.356577396392822
1761399791450599700,2.233599609375,-0.7902361750602722,-11.223718643188477,-5.929389953613281
1761399791460654000,2.243654052734375,-1.0005518198013306,-10.987739562988281,-5.755062103271484
1761399791470761000,2.253760986328125,-1.1409119367599487,-10.566360473632812,-5.0656819343566895
1761399791480838400,2.26383837890625,-0.31296706199645996,-10.51413631439209,-4.144587516784668
1761399791490924000,2.273924072265625,0.6105214357376099,-11.606864929199219,-3.099668264389038
1761399791501003800,2.284003662109375,1.237727403640747,-13.483994483947754,-1.6723499298095703
1761399791511061000,2.29406103515625,1.4112322330474854,-14.961516380310059,-0.4290858507156372
1761399791521167400,2.30416748046875,1.0263643264770508,-15.213729858398438,0.8218845725059509
1761399791531247400,2.314247314453125,0.2982277572154999,-14.6486234664917,1.9549405574798584
1761399791541324300,2.32432421875,-0.7761702537536621,-14.674736022949219,1.083974838256836
1761399791551409400,2.334409423828125,-1.3495815992355347,-15.084668159484863,-0.6272808313369751
1761399791561449200,2.34444921875,-0.5446808934211731,-13.869760513305664,-2.00768780708313
1761399791571571200,2.3545712890625,0.6437410116195679,-12.02151107788086,-4.0428338050842285
1761399791581652000,2.36465185546875,1.3447932004928589,-10.507403373718262,-5.951162338256836
1761399791591734300,2.374734375,1.1292401552200317,-9.930774688720703,-6.043787956237793
1761399791601810400,2.384810546875,0.8148515820503235,-9.57979965209961,-5.907393455505371
1761399791611895000,2.39489501953125,0.8126070499420166,-9.615488052368164,-5.279139995574951
1761399791621976000,2.40497607421875,1.2553846836090088,-9.723751068115234,-3.94175386428833
1761399791632057300,2.415057373046875,1.1660510301589966,-9.361029624938965,-3.1093945503234863
1761399791642138000,2.42513818359375,0.5282955765724182,-8.763601303100586,-2.5604491233825684
1761399791652219100,2.43521923828125,0.07324761152267456,-8.320449829101562,-2.0922329425811768
1761399791662300000,2.4452998046875,-0.27226561307907104,-8.069955825805664,-1.8064252138137817
1761399791672356400,2.4553564453125,-0.526799201965332,-7.460033416748047,-1.3773393630981445
1761399791682462200,2.465462158203125,-0.38404491543769836,-6.8406829833984375,-1.0965443849563599
1761399791692543700,2.475543701171875,-0.005611410364508629,-6.574328422546387,-0.9506477117538452
1761399791702583800,2.485583740234375,0.3497779071331024,-6.668300628662109,-0.949001669883728
1761399791712705300,2.495705322265625,0.7740005254745483,-6.69718074798584,-1.3920037746429443
1761399791722772200,2.505772216796875,1.2480524778366089,-6.662315368652344,-1.3443442583084106
1761399791732863700,2.51586376953125,1.3936498165130615,-6.334534168243408,-1.6784101724624634
1761399791742948600,2.525948486328125,1.4684686660766602,-5.9368720054626465,-1.8405425548553467
1761399791753007900,2.5360078125,1.4820857048034668,-5.549086093902588,-1.795426845550537
1761399791763110400,2.5461103515625,1.3839234113693237,-5.244349002838135,-1.9104981422424316
1761399791773151200,2.556151123046875,1.0991630554199219,-5.065532207489014,-1.9756653308868408
1761399791783272700,2.566272705078125,0.8068459630012512,-5.098003387451172,-1.8922423124313354
1761399791793353700,2.576353759765625,0.6085761189460754,-5.154342174530029,-1.7973721027374268
1761399791803408600,2.58640869140625,0.6504746675491333,-5.286322593688965,-1.8186206817626953
1761399791813515800,2.596515869140625,1.0016741752624512,-5.428852558135986,-1.8331354856491089
1761399791823563300,2.606563232421875,1.5528643131256104,-5.419724464416504,-1.958082914352417
1761399791833677600,2.616677490234375,2.3097312450408936,-5.406855583190918,-2.286313056945801
1761399791843758300,2.62675830078125,3.2148890495300293,-5.0423383712768555,-2.655543804168701
1761399791853816000,2.636816162109375,4.088249206542969,-4.6327056884765625,-3.236137628555298
1761399791863882500,2.646882568359375,4.852972030639648,-4.668468952178955,-4.039018154144287
1761399791873976000,2.65697607421875,6.068104267120361,-5.63999080657959,-5.288791656494141
1761399791884082700,2.667082763671875,7.2545061111450195,-7.247996807098389,-6.2761006355285645
1761399791894163700,2.677163818359375,7.121403217315674,-9.164854049682617,-7.231536388397217
1761399791904219100,2.68721923828125,5.753790378570557,-11.658266067504883,-8.482656478881836
1761399791914310400,2.697310302734375,5.119102478027344,-14.06847858428955,-9.652074813842773
1761399791924369200,2.707369140625,5.1541924476623535,-14.683489799499512,-9.076193809509277
1761399791934487800,2.71748779296875,4.922852993011475,-13.0142822265625,-7.34855318069458
1761399791944568300,2.727568359375,4.625373363494873,-10.999336242675781,-5.961562156677246
1761399791954625000,2.737625,5.0335845947265625,-9.305065155029297,-5.345803260803223
1761399791964730400,2.74773046875,6.130652904510498,-7.684863567352295,-4.719120979309082
1761399791974786000,2.7577861328125,7.4567413330078125,-6.4462385177612305,-3.727397918701172
1761399791984892400,2.767892333984375,6.457386493682861,-6.988076210021973,-3.3903391361236572
1761399791994974200,2.77797412109375,5.912181854248047,-9.825579643249512,-4.966097831726074
1761399792005054200,2.78805419921875,6.459855556488037,-12.404434204101562,-4.95816707611084
1761399792015135200,2.79813525390625,5.465737819671631,-13.999870300292969,-3.76869797706604
1761399792025205800,2.808205810546875,2.6577882766723633,-14.30902099609375,-3.153911828994751
1761399792035311400,2.818311279296875,-1.878849744796753,-11.979687690734863,-3.1581764221191406
1761399792045356800,2.828356689453125,-2.6657938957214355,-8.325836181640625,-2.3707833290100098
1761399792055460000,2.838460205078125,-0.6366332173347473,-5.690269470214844,-0.6544400453567505
1761399792065519400,2.848519287109375,0.21039047837257385,-4.643928527832031,0.2007388472557068
1761399792075622400,2.858622314453125,0.5378723740577698,-5.31812047958374,0.020126258954405785
1761399792085702700,2.86870263671875,0.6721721291542053,-7.002366542816162,-0.03374328091740608
1761399792095779600,2.878779541015625,0.002543839393183589,-8.412700653076172,-0.2835632562637329
1761399792105844000,2.888843994140625,-0.521711528301239,-9.24603271484375,-0.996212363243103
1761399792115912700,2.89891259765625,-1.1274445056915283,-10.174309730529785,-2.1301660537719727
1761399792126027500,2.909027587890625,-2.1114614009857178,-11.111116409301758,-2.976815700531006
1761399792136082400,2.91908251953125,-2.474856376647949,-12.061614036560059,-3.5725231170654297
1761399792146165500,2.92916552734375,-2.254589796066284,-12.566267013549805,-3.408520221710205
1761399792156269800,2.939269775390625,-1.8781015872955322,-12.980164527893066,-3.066972494125366
1761399792166350600,2.9493505859375,-1.6752678155899048,-12.0846586227417,-2.441786527633667
1761399792176431000,2.95943115234375,-1.2931681871414185,-10.613271713256836,-1.9091514348983765
1761399792186512400,2.969512451171875,-1.047163963317871,-9.717989921569824,-1.829319715499878
1761399792196593400,2.979593505859375,-0.48295536637306213,-9.159168243408203,-1.8349311351776123
1761399792206674700,2.9896748046875,0.262090265750885,-9.032500267028809,-1.7687164545059204
1761399792216755500,2.99975537109375,0.7426514625549316,-9.155652046203613,-1.8121862411499023
1761399792226836200,3.009836181640625,0.5900958776473999,-9.449316024780273,-1.8220622539520264
1761399792236917800,3.019917724609375,0.27899932861328125,-9.747767448425293,-1.6587328910827637
1761399792246998300,3.029998291015625,-0.21203649044036865,-9.911920547485352,-1.5530139207839966
1761399792257079300,3.040079345703125,-0.7555950880050659,-9.76632308959961,-1.5006407499313354
1761399792267161000,3.0501611328125,-1.3251157999038696,-9.434351921081543,-1.6723499298095703
1761399792277241600,3.06024169921875,-1.6867151260375977,-8.984840393066406,-1.8605191707611084
1761399792287322400,3.070322265625,-2.0132243633270264,-8.477418899536133,-2.110788106918335
1761399792297378300,3.08037841796875,-2.2322938442230225,-8.068160057067871,-2.445228099822998
1761399792307484400,3.090484375,-2.4176948070526123,-7.880814075469971,-3.0837318897247314
1761399792317566200,3.100566162109375,-2.5689783096313477,-7.673491477966309,-3.5255367755889893
1761399792327610000,3.110610107421875,-2.2521207332611084,-7.585429668426514,-4.159775733947754
1761399792337727500,3.1207275390625,-1.7029508352279663,-7.738134860992432,-4.836137771606445
1761399792347783200,3.130783203125,-1.123329520225525,-7.916128635406494,-5.22601842880249
1761399792357864200,3.1408642578125,-0.5912181735038757,-8.015413284301758,-5.231554985046387
1761399792367973400,3.150973388671875,-0.34267011284828186,-8.15644645690918,-4.897414207458496
1761399792378026000,3.16102587890625,-0.3520972728729248,-8.443750381469727,-4.339191436767578
1761399792388129000,3.17112890625,-0.31461307406425476,-8.822708129882812,-3.7345805168151855
1761399792398213000,3.181213134765625,-0.10856208205223083,-9.16664981842041,-3.112611770629883
1761399792408294700,3.191294677734375,-0.07451952993869781,-9.472434997558594,-2.6348190307617188
1761399792418375400,3.20137548828125,-0.13684359192848206,-9.705121040344238,-2.388665199279785
1761399792428456200,3.211456298828125,-0.2792986035346985,-9.711106300354004,-2.4168717861175537
1761399792438550500,3.221550537109375,-0.199092835187912,-9.524508476257324,-2.738442897796631
1761399792448618500,3.231618408203125,0.016086041927337646,-9.10761833190918,-3.249006509780884
1761399792458700300,3.2417001953125,-0.1371428668498993,-9.027337074279785,-4.107402801513672
1761399792468781300,3.25178125,-0.46903908252716064,-8.763825416564941,-4.777030944824219
1761399792478861600,3.261861572265625,-0.6719476580619812,-8.691326141357422,-5.476661682128906
1761399792488942300,3.2719423828125,-1.1106103658676147,-8.912714958190918,-5.992761611938477
1761399792499020300,3.282020263671875,-1.285910725593567,-8.71137809753418,-5.7405476570129395
1761399792509105200,3.292105224609375,-0.5953332185745239,-8.761431694030762,-4.924274444580078
1761399792519186000,3.30218603515625,-0.17133505642414093,-9.260248184204102,-4.316670894622803
1761399792529266700,3.3122666015625,-0.3618985414505005,-9.75861644744873,-4.168305397033691
1761399792539321900,3.32232177734375,-0.8946832418441772,-9.88154411315918,-4.461445331573486
1761399792549428700,3.3324287109375,-1.2742390632629395,-9.73549747467041,-4.983231544494629
1761399792559484200,3.342484130859375,-1.210044503211975,-9.516727447509766,-5.096956253051758
1761399792569565700,3.352565673828125,-0.7195324301719666,-9.349058151245117,-4.693458557128906
1761399792579646200,3.362646240234375,-0.21532851457595825,-9.3851957321167,-4.143091201782227
1761399792589727200,3.372727294921875,0.15891513228416443,-9.460613250732422,-3.822343111038208
1761399792599808300,3.382808349609375,0.1908627599477768,-9.479093551635742,-3.8959646224975586
1761399792609889300,3.39288916015625,-0.536899745464325,-9.739388465881348,-4.49526309967041
1761399792619959800,3.402959716796875,-0.7745990753173828,-9.891718864440918,-4.689043998718262
1761399792630057700,3.4130576171875,0.7830535769462585,-9.717241287231445,-4.714706897735596
1761399792640141300,3.423141357421875,0.6155343055725098,-9.687089920043945,-5.095983505249023
1761399792650222300,3.433222412109375,-0.2882020175457001,-9.565210342407227,-5.106383323669434
1761399792660320500,3.443320556640625,-0.09105448424816132,-9.50153923034668,-4.3913397789001465
1761399792670400500,3.453400390625,0.6930465698242188,-9.984943389892578,-3.6325278282165527
1761399792680481800,3.463481689453125,1.3628244400024414,-11.027019500732422,-2.4456021785736084
1761399792690558700,3.473558837890625,1.7003321647644043,-12.673407554626465,-1.2472294569015503
1761399792700643600,3.4836435546875,1.9023429155349731,-14.695684432983398,-0.06479308009147644
1761399792710725600,3.4937255859375,1.930100679397583,-16.76921272277832,0.9040355682373047
1761399792720805600,3.5038056640625,1.6420482397079468,-17.93705940246582,1.7853262424468994
1761399792730887400,3.513887451171875,1.0788123607635498,-17.219921112060547,2.211045265197754
1761399792740968000,3.523968017578125,0.6142624020576477,-14.803797721862793,1.525330901145935
1761399792751024000,3.534024169921875,0.2694973349571228,-12.450148582458496,0.03890577703714371
1761399792761105200,3.544105224609375,0.18540099263191223,-11.277064323425293,-1.6326959133148193
1761399792771210500,3.55421044921875,0.7841010689735413,-10.81236457824707,-3.245939016342163
1761399792781254000,3.56425390625,1.5362545251846313,-10.74989128112793,-4.680813789367676
1761399792791372500,3.57437255859375,1.3058873414993286,-10.087594985961914,-5.683236122131348
1761399792801409500,3.584409423828125,0.9739163517951965,-9.079935073852539,-5.908141613006592
1761399792811534600,3.59453466796875,1.252017855644226,-8.202534675598145,-5.724461555480957
1761399792821609000,3.60460888671875,1.5733646154403687,-7.644461631774902,-5.3256025314331055
1761399792831696600,3.614696533203125,1.5777040719985962,-7.201085567474365,-4.90227746963501
1761399792841777700,3.624777587890625,1.2161048650741577,-6.796764373779297,-4.429198265075684
1761399792851858400,3.6348583984375,0.8084920048713684,-6.3697733879089355,-3.522693634033203
1761399792861918000,3.64491796875,0.43604397773742676,-6.182577133178711,-2.535085439682007
1761399792872021800,3.655021728515625,0.1280897855758667,-6.117634296417236,-1.8507927656173706
1761399792882097700,3.66509765625,0.08798690885305405,-6.240711212158203,-1.5771803855895996
1761399792892158200,3.675158203125,0.3973626494407654,-6.484845161437988,-1.5605705976486206
1761399792902263800,3.685263916015625,0.9055320024490356,-6.590339660644531,-1.726144552230835
1761399792912344600,3.695344482421875,1.3398550748825073,-6.902932643890381,-1.294066071510315
1761399792922426000,3.705426025390625,1.7880945205688477,-6.784120082855225,-0.7920318245887756
1761399792932506600,3.715506591796875,2.0917840003967285,-6.269516468048096,-0.30286651849746704
1761399792942587400,3.72558740234375,2.230123996734619,-5.537713527679443,-0.022221185266971588
1761399792952664600,3.73566455078125,2.2189760208129883,-4.923676013946533,0.01750759966671467
1761399792962749700,3.745749755859375,2.103829860687256,-4.609586238861084,-0.02671031281352043
1761399792972830700,3.755830810546875,1.9631705284118652,-4.600683212280273,-0.1480664163827896
1761399792982912300,3.765912353515625,1.9692308902740479,-4.997372150421143,-0.5175216794013977
1761399792992992500,3.775992431640625,1.9216461181640625,-5.520430564880371,-0.980949342250824
1761399793003046000,3.7860458984375,1.6722002029418945,-5.879560947418213,-1.4013562202453613
1761399793013150700,3.796150634765625,1.6112229824066162,-6.056058406829834,-1.8833389282226562
1761399793023235800,3.80623583984375,1.7549498081207275,-6.119130611419678,-2.476053476333618
1761399793033291500,3.81629150390625,2.033724784851074,-6.166939735412598,-3.036745548248291
1761399793043397600,3.826397705078125,2.5558102130889893,-6.344484806060791,-3.7306900024414062
1761399793053478700,3.836478759765625,3.569305896759033,-6.761450290679932,-4.615347385406494
1761399793063559400,3.846559326171875,5.228936672210693,-7.434968948364258,-5.912181854248047
1761399793073640700,3.856640625,6.943035125732422,-8.951621055603027,-7.27882194519043
1761399793083717600,3.866717529296875,7.043517112731934,-11.313276290893555,-8.602591514587402
1761399793093803500,3.876803466796875,6.74267053604126,-13.551630973815918,-10.075175285339355
1761399793103883800,3.8868837890625,6.779181957244873,-14.47242546081543,-10.611775398254395
1761399793113939500,3.896939453125,6.957774639129639,-13.136984825134277,-9.332822799682617
1761399793124045800,3.9070458984375,6.874351501464844,-10.962974548339844,-8.050278663635254
1761399793134101500,3.9171015625,6.36034631729126,-9.36013126373291,-6.592883110046387
1761399793144204300,3.927204345703125,5.496788024902344,-8.062174797058105,-5.498134613037109
1761399793154288600,3.93728857421875,4.565667629241943,-6.770577907562256,-4.892925262451172
1761399793164369700,3.94736962890625,3.6665701866149902,-5.506514072418213,-4.658967018127441
1761399793174451500,3.957451416015625,3.90322208404541,-4.5912556648254395,-4.469749927520752
1761399793184531500,3.967531494140625,4.16456413269043,-5.846790313720703,-4.547187805175781
1761399793194613500,3.977613525390625,4.322432041168213,-9.704747200012207,-5.0294694900512695
1761399793204694300,3.9876943359375,5.415010929107666,-13.649642944335938,-3.7968297004699707
1761399793214775600,3.997775634765625,5.722142219543457,-16.261117935180664,-1.6239421367645264
1761399793224856000,4.00785595703125,2.232443332672119,-16.374170303344727,-0.9010428190231323
1761399793234912000,4.017912109375,-1.1361984014511108,-13.286397933959961,-1.3183072805404663
1761399793244992500,4.027992431640625,-1.4907646179199219,-9.403226852416992,-1.61803138256073
1761399793255089000,4.0380888671875,-0.7005284428596497,-7.08070182800293,-1.199944019317627
1761399793265180200,4.04818017578125,-1.3554922342300415,-6.708403587341309,-0.8432827591896057
1761399793275261200,4.05826123046875,-1.4033763408660889,-7.4555439949035645,-1.0171616077423096
1761399793285346800,4.068346923828125,-1.0074352025985718,-8.691251754760742,-0.7472153902053833
1761399793295399200,4.078399169921875,-1.0756698846817017,-9.209595680236816,-0.07728782296180725
1761399793305480700,4.088480712890625,-1.2423661947250366,-8.743924140930176,0.07998129725456238
1761399793315563000,4.09856298828125,-1.411157488822937,-8.82442855834961,-0.5730372071266174
1761399793325655000,4.108655029296875,-1.949029803276062,-9.474379539489746,-1.9511995315551758
1761399793335744500,4.11874462890625,-2.1406407356262207,-10.678139686584473,-3.3127522468566895
1761399793345825300,4.1288251953125,-2.0511574745178223,-11.441665649414062,-4.482244968414307
1761399793355906000,4.138906005859375,-1.882889986038208,-11.59437084197998,-5.116483688354492
1761399793365964300,4.14896435546875,-1.4838813543319702,-10.542792320251465,-5.056105136871338
1761399793376070400,4.1590703125,-0.6770353317260742,-9.390433311462402,-4.719120979309082
1761399793386151700,4.169151611328125,-0.2935141623020172,-8.729409217834473,-4.504615783691406
1761399793396232700,4.179232666015625,-0.008379706181585789,-8.386963844299316,-3.949235677719116
1761399793406314200,4.189314208984375,0.5128828883171082,-8.508020401000977,-3.1680526733398438
1761399793426475800,4.209475830078125,0.16811785101890564,-9.156773567199707,-1.917531132698059
1761399793436557300,4.219557373046875,-0.23657704889774323,-9.522638320922852,-1.4726585149765015
1761399793446637600,4.229637451171875,-0.2677016854286194,-9.709236145019531,-1.2793266773223877
1761399793456718600,4.239718505859375,-0.22251112759113312,-9.539546966552734,-1.4506617784500122
1761399793466799600,4.249799560546875,-0.29209262132644653,-9.046640396118164,-1.8868553638458252
1761399793476880600,4.259880615234375,-0.5181950330734253,-8.518046379089355,-2.482113838195801
1761399793486961700,4.269961669921875,-0.8710405230522156,-8.269423484802246,-3.2350902557373047
1761399793497042700,4.280042724609375,-1.3894599676132202,-8.176946640014648,-3.910329818725586
1761399793507123500,4.29012353515625,-1.9060838222503662,-8.126070022583008,-4.439897537231445
1761399793517204500,4.30020458984375,-2.0585646629333496,-8.025439262390137,-4.954426288604736
1761399793527286300,4.310286376953125,-1.7120786905288696,-8.046463012695312,-5.745560169219971
1761399793537367600,4.320367431640625,-1.420809030532837,-7.899967670440674,-5.8547210693359375
1761399793547447600,4.330447509765625,-0.46993690729141235,-8.256255149841309,-6.551209449768066
1761399793557528800,4.34052880859375,0.17657238245010376,-8.469937324523926,-6.173299312591553
1761399793567569200,4.350569091796875,0.7655459642410278,-8.738312721252441,-5.370792865753174
1761399793577691400,4.36069140625,1.0222493410110474,-9.046490669250488,-4.5639472007751465
1761399793587772200,4.370772216796875,0.7847744226455688,-9.206229209899902,-3.9811832904815674
1761399793597827300,4.380827392578125,0.5485714673995972,-9.131634712219238,-3.5684080123901367
1761399793607934700,4.390934814453125,0.3067570924758911,-8.861239433288574,-3.566537618637085
1761399793618010600,4.4010107421875,0.1363946795463562,-8.445995330810547,-3.806556224822998
1761399793628091400,4.41109130859375,-0.018704701215028763,-8.209268569946289,-4.23317289352417
1761399793638174000,4.421174072265625,-0.02050035260617733,-8.024316787719727,-4.879682540893555
1761399793648253400,4.43125341796875,-0.002992752008140087,-7.848791599273682,-4.964975833892822
1761399793658338600,4.441338623046875,-0.238896444439888,-7.807342052459717,-4.8203511238098145
1761399793668394500,4.45139453125,-0.34431612491607666,-8.049605369567871,-4.9327287673950195
1761399793678500600,4.46150048828125,-0.48460137844085693,-8.259322166442871,-5.008296012878418
1761399793688581600,4.47158154296875,-0.6234650611877441,-8.507795333862305,-5.170278549194336
1761399793698662700,4.48166259765625,-1.0785130262374878,-8.271143913269043,-4.79356575012207
1761399793708725000,4.49172509765625,-0.812831461429596,-9.07327651977539,-5.606322765350342
1761399793718820900,4.50182080078125,-0.4405331015586853,-9.31269645690918,-5.54901123046875
1761399793728906000,4.511906005859375,-0.046238020062446594,-9.418340682983398,-5.440823554992676
1761399793738977000,4.52197705078125,0.2685995101928711,-9.39828872680664,-5.0912699699401855
1761399793749068300,4.532068359375,0.4677671492099762,-9.424924850463867,-4.4380269050598145
1761399793759111700,4.542111572265625,0.6683563590049744,-9.545308113098145,-3.812317371368408
1761399793769229800,4.552229736328125,0.6575076580047607,-9.700258255004883,-3.8174798488616943
1761399793779306800,4.562306640625,0.6646154522895813,-9.661951065063477,-4.10014533996582
1761399793789412000,4.572412109375,0.6488286852836609,-9.29653549194336,-4.215066909790039
1761399793799507000,4.5825068359375,0.6172551512718201,-8.79891586303711,-4.219406604766846
1761399793809553400,4.592553466796875,0.3687070608139038,-8.267178535461426,-4.172420024871826
1761399793819634700,4.602634765625,-1.0226234197616577,-8.07818603515625,-4.669890403747559
1761399793829716000,4.612716064453125,-2.428393840789795,-8.479887962341309,-5.6786723136901855
1761399793839795000,4.622794921875,-2.3918824195861816,-8.337284088134766,-6.318073749542236
1761399793849863700,4.63286376953125,-0.5496188998222351,-9.355792045593262,-7.5190653800964355
1761399793859946000,4.642946044921875,0.8056488633155823,-10.823661804199219,-7.766416072845459
1761399793870027000,4.653027099609375,0.2255786955356598,-12.577040672302246,-7.23333215713501
1761399793880108300,4.6631083984375,-0.7946504950523376,-12.836586952209473,-5.114314079284668
1761399793890201600,4.67320166015625,0.19220951199531555,-12.725930213928223,-3.167902946472168
1761399793900283000,4.683282958984375,1.1898434162139893,-12.685527801513672,-1.3856441974639893
1761399793910362000,4.693362060546875,1.3259388208389282,-12.910433769226074,-0.9357587695121765
1761399793920417300,4.703417236328125,0.5409399271011353,-13.627720832824707,-1.5366286039352417
1761399793930524700,4.713524658203125,-0.9518448114395142,-14.00832462310791,-2.4967782497406006
1761399793940605000,4.72360498046875,-2.5150339603424072,-13.195268630981445,-2.4984991550445557
1761399793950675000,4.733675048828125,-3.188852310180664,-11.428571701049805,-2.8507461547851562
1761399793960769000,4.74376904296875,-3.0585925579071045,-9.70205307006836,-4.534019470214844
1761399793970845400,4.753845458984375,-1.9115456342697144,-8.72536849975586,-6.275277614593506
1761399793980918800,4.763918701171875,-0.4579658806324005,-8.712724685668945,-7.485546588897705
1761399794001080000,4.784080078125,0.548496663570404,-8.920571327209473,-8.09202766418457
1761399794011174000,4.794173828125,0.8514379858970642,-8.83707332611084,-8.207024574279785
1761399794021255000,4.8042548828125,0.8267477750778198,-8.635361671447754,-8.312443733215332
1761399794031324700,4.81432470703125,0.9254337549209595,-8.955137252807617,-7.641917705535889
1761399794041398300,4.824398193359375,0.7427262663841248,-9.201740264892578,-6.461052417755127
1761399794051494100,4.834494140625,-0.15405191481113434,-8.616731643676758,-5.9648542404174805
1761399794061566000,4.84456591796875,-1.0477625131607056,-7.843629360198975,-5.443292617797852
1761399794071649300,4.854649169921875,-1.4813374280929565,-7.149160861968994,-4.440645694732666
1761399794081740500,4.864740478515625,-1.4249988794326782,-6.472874164581299,-3.492466926574707
1761399794091821600,4.874821533203125,-1.2790274620056152,-6.025831699371338,-3.0796167850494385
1761399794101888800,4.884888671875,-1.1049989461898804,-5.852850437164307,-2.943596124649048
1761399794111983900,4.89498388671875,-0.9945663213729858,-6.144568920135498,-3.170820951461792
1761399794122064600,4.905064697265625,-0.8668506741523743,-6.733692169189453,-3.556511878967285
1761399794132145700,4.915145751953125,-0.6267570853233337,-7.400252819061279,-4.140323162078857
1761399794142235600,4.925235595703125,-0.47726914286613464,-7.967379570007324,-4.814814567565918
1761399794152313300,4.935313232421875,-0.44756609201431274,-8.90066909790039,-4.652831554412842
1761399794162387000,4.945386962890625,-0.37723639607429504,-9.351452827453613,-4.4310688972473145
1761399794172457000,4.95545703125,-0.12345102429389954,-9.147945404052734,-3.853168249130249
1761399794182550800,4.96555078125,0.08245032280683517,-8.191311836242676,-3.2089035511016846
1761399794192619000,4.975618896484375,0.0810287669301033,-6.891933917999268,-2.455852508544922
1761399794202701300,4.985701416015625,0.24690204858779907,-6.060622215270996,-1.5774048566818237
1761399794212793900,4.9957939453125,0.7157166600227356,-5.877840042114258,-1.3218238353729248
1761399794222874600,5.00587451171875,1.0845733880996704,-6.046631336212158,-1.567079782485962
1761399794232953600,5.01595361328125,1.311723232269287,-6.154070854187012,-2.1990742683410645
1761399794243036700,5.02603662109375,1.3213000297546387,-6.259191513061523,-3.0737061500549316
1761399794253105400,5.03610546875,1.4700398445129395,-6.441973686218262,-3.923049211502075
1761399794263199000,5.046198974609375,1.5136592388153076,-6.744466304779053,-4.619687080383301
1761399794273279700,5.05627978515625,1.41257905960083,-7.126041889190674,-5.25527286529541
1761399794283360800,5.06636083984375,1.3242180347442627,-7.487716197967529,-5.89392614364624
1761399794293427000,5.076427001953125,1.194706678390503,-7.9841389656066895,-6.387206554412842
1761399794303522800,5.086522705078125,1.2026374340057373,-8.42586898803711,-6.93734884262085
1761399794313604600,5.0966044921875,1.1102361679077148,-8.768838882446289,-7.010222434997559
1761399794323684600,5.1066845703125,1.0893617868423462,-8.846650123596191,-6.993463039398193
1761399794333766100,5.11676611328125,0.7476642727851868,-8.647931098937988,-6.797288417816162
1761399794343847000,5.126846923828125,0.5097405314445496,-8.377311706542969,-6.335880756378174
1761399794353916400,5.13691650390625,0.32860419154167175,-8.293140411376953,-5.7690534591674805
1761399794363994400,5.146994384765625,0.1529296338558197,-8.283040046691895,-5.366528511047363
1761399794374064400,5.157064453125,0.07788637280464172,-8.251017570495605,-5.24606990814209
1761399794384154400,5.167154296875,0.09210194647312164,-8.294113159179688,-5.038747310638428
1761399794394237700,5.17723779296875,0.09636662155389786,-8.741155624389648,-4.245443344116211
1761399794404332800,5.187332763671875,0.12128128111362457,-9.304466247558594,-3.505335807800293
1761399794414413800,5.197413818359375,0.7381623387336731,-10.079963684082031,-2.900425672531128
1761399794424481500,5.2074814453125,1.457993984222412,-11.771242141723633,-2.8080992698669434
1761399794434575600,5.21757568359375,1.128491997718811,-15.02900218963623,-3.673827648162842
1761399794444656400,5.227656494140625,-0.3164835274219513,-18.534862518310547,-4.247837543487549
1761399794454729200,5.237729248046875,-0.4073135554790497,-19.79585838317871,-4.165462017059326
1761399794464819200,5.247819091796875,0.9871593117713928,-16.36818504333496,-4.0138044357299805
1761399794474899500,5.2578994140625,2.2217442989349365,-10.769119262695312,-3.1583261489868164
1761399794484979500,5.2679794921875,2.1734862327575684,-6.309469699859619,-2.4824130535125732
1761399794495048700,5.278048583984375,0.8366238474845886,-3.420715570449829,-2.2235400676727295
1761399794505142800,5.288142822265625,-0.4480150043964386,-2.224437952041626,-2.434828281402588
1761399794515223800,5.298223876953125,-0.5877765417098999,-2.7129297256469727,-2.6517279148101807
1761399794525292300,5.308292236328125,-0.3395277261734009,-4.07358455657959,-2.8778305053710938
1761399794535386400,5.318386474609375,-0.5374982953071594,-6.286874294281006,-4.029965400695801
1761399794545469000,5.328468994140625,-1.1540800333023071,-9.080832481384277,-5.885396480560303
1761399794555533300,5.338533203125,-1.637559175491333,-11.61943531036377,-6.984410285949707
1761399794565627000,5.348626953125,-1.498845100402832,-12.984204292297363,-6.645031929016113
1761399794575697000,5.35869677734375,-0.6137386560440063,-12.576217651367188,-5.406930446624756
1761399794585790700,5.368790771484375,0.5710170865058899,-11.012430191040039,-4.244096755981445
1761399794595871500,5.37887158203125,0.9509469866752625,-9.22979736328125,-3.473762273788452
1761399794605950700,5.38895068359375,0.9231892228126526,-8.408137321472168,-3.000608205795288
1761399794616031700,5.39903173828125,0.5221604108810425,-8.28663158416748,-2.906710386276245
1761399794626114800,5.40911474609375,0.24607904255390167,-8.184877395629883,-2.9600563049316406
1761399794636182500,5.4191826171875,0.34349313378334045,-8.080056190490723,-3.000084400177002
1761399794646276600,5.429276611328125,0.41210195422172546,-8.151583671569824,-2.9734489917755127
1761399794656358000,5.43935791015625,0.3125181496143341,-8.374992370605469,-2.9297547340393066
1761399794666426000,5.449426025390625,0.13684359192848206,-8.737789154052734,-3.014075517654419
1761399794676517600,5.459517578125,0.133925661444664,-9.067665100097656,-3.1016883850097656
1761399794686588700,5.469588623046875,0.13781623542308807,-9.343297004699707,-2.9967174530029297
1761399794696681700,5.479681640625,0.3042132556438446,-9.36776351928711,-2.7801918983459473
1761399794706760400,5.489760498046875,0.30189386010169983,-9.143381118774414,-2.75003981590271
1761399794716843500,5.499843505859375,-0.01668459363281727,-8.795698165893555,-2.9968671798706055
1761399794726925600,5.509925537109375,-0.4431517720222473,-8.530091285705566,-3.363105297088623
1761399794736991000,5.519990966796875,-0.8583213090896606,-8.374319076538086,-3.6979942321777344
1761399794747087000,5.530087158203125,-1.1507880687713623,-8.450859069824219,-3.8616976737976074
1761399794757167900,5.54016796875,-1.316511631011963,-8.807594299316406,-3.885789394378662
1761399794767237600,5.550237548828125,-1.1609634160995483,-9.160215377807617,-3.809025287628174
1761399794777316600,5.560316650390625,-0.8258499503135681,-9.384522438049316,-3.8184523582458496
1761399794787410200,5.57041015625,-0.6687304377555847,-9.481712341308594,-4.046799659729004
1761399794807579600,5.59057958984375,-0.43200376629829407,-9.467720985412598,-4.163815975189209
1761399794817654300,5.600654296875,-0.5680243372917175,-9.51193904876709,-4.481421947479248
1761399794827735000,5.610735107421875,-0.7148188352584839,-9.534459114074707,-4.251354217529297
1761399794837804300,5.62080419921875,-0.8144775032997131,-9.4729585647583,-3.8156840801239014
1761399794847896300,5.630896240234375,-0.9935188889503479,-9.297508239746094,-3.6495115756988525
1761399794857977600,5.6409775390625,-1.0762684345245361,-8.748637199401855,-3.467402696609497
1761399794868057000,5.65105712890625,-1.1596914529800415,-8.315885543823242,-3.3236007690429688
1761399794878114300,5.6611142578125,-1.0951976776123047,-8.442179679870605,-3.1698482036590576
1761399794888221200,5.67122119140625,-0.9778069257736206,-9.094225883483887,-3.3942298889160156
1761399794898301700,5.6813017578125,-0.8036287426948547,-9.433304786682129,-3.3768718242645264
1761399794908375800,5.691375732421875,-0.6448632478713989,-9.522638320922852,-3.5491795539855957
1761399794918464300,5.70146435546875,-0.760757565498352,-9.463979721069336,-3.8336405754089355
1761399794928542500,5.71154248046875,-0.9049334526062012,-9.344569206237793,-4.411017417907715
1761399794938633200,5.72163330078125,-1.2259808778762817,-9.11001205444336,-4.787131309509277
1761399794948703000,5.731702880859375,-1.5686510801315308,-8.851064682006836,-4.948964595794678
1761399794958787000,5.741787109375,-1.8796727657318115,-8.71145248413086,-4.779350280761719
1761399794968878600,5.751878662109375,-2.054150342941284,-8.683245658874512,-4.667196750640869
1761399794978949600,5.76194970703125,-1.935113549232483,-8.790236473083496,-4.520327568054199
1761399794989021200,5.772021240234375,-1.780911922454834,-9.114052772521973,-4.167332649230957
1761399794999089200,5.782089111328125,-1.6921768188476562,-9.411980628967285,-4.054879665374756
1761399795009193200,5.792193115234375,-1.6951695680618286,-9.618106842041016,-4.009090900421143
1761399795019283000,5.802282958984375,-1.7043722867965698,-10.12021541595459,-4.245368480682373
1761399795029354800,5.812354736328125,-1.6535704135894775,-10.801216125488281,-4.499004364013672
1761399795039422700,5.822422607421875,-1.4956278800964355,-11.262699127197266,-4.675950527191162
1761399795049516300,5.832516357421875,-1.1416600942611694,-11.055675506591797,-4.739322185516357
1761399795059604500,5.8426044921875,-0.5529857873916626,-10.325892448425293,-5.140650272369385
1761399795069665500,5.85266552734375,0.05065232887864113,-9.509919166564941,-5.434389114379883
1761399795079759600,5.862759521484375,0.6405237913131714,-9.033247947692871,-5.65959358215332
1761399795089840600,5.872840576171875,0.9454103708267212,-9.161861419677734,-5.922431945800781
1761399795099911200,5.8829111328125,0.9979332089424133,-9.833210945129395,-6.119654178619385
1761399795110004700,5.893004638671875,0.9566332101821899,-10.23962688446045,-5.6897454261779785
1761399795120082000,5.90308203125,0.9668834209442139,-10.403853416442871,-4.909834384918213
1761399795130155500,5.913155517578125,1.1128548383712769,-10.058639526367188,-3.919083833694458
1761399795140246000,5.92324609375,1.3801076412200928,-9.752107620239258,-3.475482940673828
1761399795150316000,5.93331591796875,1.690904974937439,-9.371728897094727,-3.04138445854187
1761399795160407000,5.943406982421875,1.8529624938964844,-9.168071746826172,-2.734328031539917
1761399795170489000,5.953489013671875,1.8623896837234497,-9.368885040283203,-2.887482166290283
1761399795180567300,5.9635673828125,1.698162317276001,-9.809792518615723,-3.4361283779144287
1761399795190646000,5.97364599609375,1.3533225059509277,-10.421212196350098,-4.147281169891357
1761399795200730000,5.983730224609375,0.6691045761108398,-10.989909172058105,-4.54531717300415
1761399795210812700,5.993812744140625,-0.17672201991081238,-11.29023265838623,-5.063212871551514
1761399795220893700,6.003893798828125,-0.8211363554000854,-11.05298137664795,-5.09224271774292
1761399795230953000,6.013952880859375,-1.4048726558685303,-10.343026161193848,-5.280336856842041
1761399795241044700,6.024044677734375,-1.4218565225601196,-9.613692283630371,-5.2876691818237305
1761399795251140400,6.034140380859375,-1.5444844961166382,-9.4752779006958,-5.323731899261475
1761399795261217500,6.044217529296875,-1.7935563325881958,-9.686341285705566,-5.2946271896362305
1761399795271295700,6.054295654296875,-1.8917186260223389,-9.905486106872559,-5.011138916015625
1761399795281379600,6.064379638671875,-1.84233820438385,-9.994370460510254,-5.095310211181641
1761399795291460400,6.07446044921875,-1.4560487270355225,-10.098443031311035,-5.302857398986816
1761399795301528600,6.084528564453125,-0.4345476031303406,-10.333000183105469,-4.961010456085205
1761399795311606500,6.0946064453125,0.6013935208320618,-10.520795822143555,-4.2509050369262695
1761399795321698600,6.104698486328125,0.8699182271957397,-10.523414611816406,-3.504737138748169
1761399795331784400,6.114784423828125,0.7835773229598999,-10.93416976928711,-2.465803384780884
1761399795351928800,6.1349287109375,0.05117605999112129,-10.28818416595459,-1.843535304069519
1761399795362027000,6.145027099609375,-0.00823006872087717,-9.872490882873535,-1.7046716213226318
1761399795372108500,6.155108642578125,-0.06299743056297302,-9.379060745239258,-1.7857003211975098
1761399795382165200,6.165165283203125,-0.15001170337200165,-8.80856704711914,-2.1623382568359375
1761399795392258300,6.17525830078125,-0.16392800211906433,-8.249595642089844,-2.3925557136535645
1761399795402351000,6.18535107421875,-0.036736033856868744,-7.9112653732299805,-2.539050817489624
1761399795412420400,6.19542041015625,0.09546878933906555,-7.69735860824585,-3.3494882583618164
1761399795422513700,6.205513671875,0.24839842319488525,-7.6933183670043945,-3.9119012355804443
1761399795432595000,6.215594970703125,0.3626467287540436,-7.56784725189209,-4.243497848510742
1761399795442660600,6.22566064453125,0.43043258786201477,-7.710302352905273,-4.021585464477539
1761399795452743700,6.23574365234375,0.42594343423843384,-7.456591606140137,-3.8697032928466797
1761399795462837200,6.245837158203125,0.6970868110656738,-7.032593250274658,-3.505260944366455
1761399795472918500,6.25591845703125,0.8409633636474609,-6.647949695587158,-2.825307607650757
1761399795482995700,6.26599560546875,1.0540473461151123,-6.267720699310303,-2.0852749347686768
1761399795493080600,6.27608056640625,1.336862325668335,-5.787384033203125,-1.3769652843475342
1761399795503161000,6.2861611328125,1.6350901126861572,-5.413813591003418,-0.8845826983451843
1761399795513240800,6.29624072265625,1.8674025535583496,-5.304728031158447,-0.727687656879425
1761399795523323100,6.3063232421875,2.128220796585083,-5.381865978240967,-0.7122750282287598
1761399795533390300,6.316390380859375,2.424877405166626,-5.421445369720459,-0.9068039059638977
1761399795543485000,6.32648486328125,2.657489061355591,-5.28924036026001,-1.2903250455856323
1761399795553566200,6.336566162109375,2.8733413219451904,-5.161300182342529,-1.8768296241760254
1761399795563643000,6.346642822265625,3.1629648208618164,-5.274875164031982,-2.524386405944824
1761399795573737500,6.356737548828125,3.3045969009399414,-5.580360412597656,-3.129371166229248
1761399795583809300,6.366809326171875,4.075305461883545,-6.322787284851074,-4.060640811920166
1761399795593880800,6.376880859375,4.998868465423584,-7.445967197418213,-5.192200660705566
1761399795603958300,6.386958251953125,5.009942054748535,-8.817620277404785,-6.569614410400391
1761399795614052400,6.39705224609375,4.5079827308654785,-10.585289001464844,-8.437091827392578
1761399795624133400,6.40713330078125,4.400467872619629,-12.33717155456543,-10.672452926635742
1761399795634214700,6.417214599609375,4.212897300720215,-12.786832809448242,-12.370915412902832
1761399795644293400,6.42729345703125,3.931204319000244,-10.92489242553711,-12.565743446350098
1761399795654376200,6.437376220703125,3.9083099365234375,-8.245182037353516,-11.716100692749023
1761399795664439600,6.447439453125,3.1403696537017822,-6.080898284912109,-10.784381866455078
1761399795674538000,6.4575380859375,2.756998062133789,-4.626345634460449,-9.92097282409668
1761399795684619300,6.467619384765625,2.025569438934326,-5.16204833984375,-9.267805099487305
1761399795694687700,6.477687744140625,-0.34027591347694397,-9.56865119934082,-9.993247985839844
1761399795704779000,6.487779052734375,-0.27316343784332275,-16.192060470581055,-10.086771965026855
1761399795714862300,6.4978623046875,-0.30226796865463257,-20.372636795043945,-8.193930625915527
1761399795724946700,6.50794677734375,0.3982604742050171,-20.075979232788086,-6.499359607696533
1761399795735024000,6.518024169921875,0.08716390281915665,-15.622016906738281,-4.536338806152344
1761399795745105400,6.52810546875,0.9885808229446411,-10.048315048217773,-2.765901565551758
1761399795755183400,6.538183349609375,2.511667251586914,-5.244648456573486,-0.06322188675403595
1761399795765266000,6.548265869140625,1.708711862564087,-0.9634417295455933,1.4657751321792603
1761399795775348000,6.558347900390625,0.19714754819869995,1.7329530715942383,2.7300631999969482
1761399795785429500,6.568429443359375,-0.4874444901943207,1.4802900552749634,5.141473293304443
1761399795795497200,6.578497314453125,-0.6432172656059265,-0.9087491631507874,6.210110187530518
1761399795805589000,6.588589111328125,-1.9054852724075317,-5.673734188079834,5.193172931671143
1761399795815672300,6.59867236328125,-4.39620304107666,-11.883844375610352,2.3908348083496094
1761399795825728000,6.60872802734375,-9.65835952758789,-15.448736190795898,-0.058957215398550034
1761399795835808800,6.618808837890625,-7.549516677856445,-17.71769142150879,-2.388291120529175
1761399795845890000,6.62889013671875,-1.3010241985321045,-18.43669891357422,-5.422717094421387
1761399795855964700,6.638964599609375,1.3666402101516724,-17.733327865600586,-8.154726028442383
1761399795866051800,6.6490517578125,0.7615057826042175,-14.463671684265137,-7.8006086349487305
1761399795876126700,6.659126708984375,0.3034650683403015,-9.396418571472168,-2.8384008407592773
1761399795886203000,6.669202880859375,0.09299977123737335,-7.591041088104248,-0.32119712233543396
1761399795896283100,6.679283203125,0.3990834951400757,-8.141857147216797,-0.5125836133956909
1761399795906384600,6.689384521484375,0.40215107798576355,-9.140987396240234,-1.144877314567566
1761399795916466000,6.6994658203125,-0.039803601801395416,-9.654618263244629,-1.6645687818527222
1761399795926555000,6.709554931640625,-0.6277297735214233,-9.676166534423828,-1.7699135541915894
1761399795936638000,6.719637939453125,-1.0547206401824951,-9.323919296264648,-1.5667805671691895
1761399795946724900,6.729724853515625,-1.140163779258728,-9.001375198364258,-1.254636526107788
1761399795956804000,6.73980419921875,-1.2345850467681885,-8.950424194335938,-1.2065280675888062
1761399795966897000,6.74989697265625,-1.2575544118881226,-8.822484016418457,-1.1641805171966553
1761399795976968200,6.75996826171875,-1.0645967721939087,-8.540790557861328,-1.181837797164917
1761399795987049500,6.770049560546875,-0.627056360244751,-8.338255882263184,-1.4675707817077637
1761399795997136400,6.780136474609375,-0.1429039090871811,-8.190488815307617,-1.9856162071228027
1761399796007211300,6.790211181640625,0.17148469388484955,-8.134973526000977,-2.444031000137329
1761399796017290000,6.8002900390625,0.2944119870662689,-7.911489963531494,-2.7032034397125244
1761399796027360800,6.81036083984375,0.22527942061424255,-7.8372697830200195,-2.9845221042633057
1761399796037454600,6.82045458984375,0.06958148628473282,-7.687632083892822,-2.994921922683716
1761399796047534800,6.830534912109375,0.09703999012708664,-7.667954444885254,-2.8230631351470947
1761399796057616100,6.8406162109375,0.025438392534852028,-7.730204105377197,-2.5370306968688965
1761399796067684400,6.850684326171875,-0.24181437492370605,-7.771653652191162,-2.393977165222168
1761399796077752600,6.860752685546875,-0.6154595017433167,-7.891363620758057,-2.354846954345703
1761399796087859000,6.87085888671875,-1.0541969537734985,-8.14836597442627,-2.368389129638672
1761399796097940000,6.88093994140625,-1.2158055305480957,-8.641048431396484,-2.528576374053955
1761399796108021500,6.891021484375,-1.028234839439392,-9.234360694885254,-2.6791865825653076
1761399796118102000,6.90110205078125,-0.6051344871520996,-10.043301582336426,-2.9053637981414795
1761399796128182800,6.911182861328125,-0.15682020783424377,-10.574515342712402,-2.754080057144165
1761399796138253000,6.921253173828125,0.10265139490365982,-10.62112808227539,-2.84790301322937
1761399796148342800,6.9313427734375,0.2976292073726654,-10.455554008483887,-3.03098464012146
1761399796158426000,6.941426025390625,0.34094929695129395,-10.34594440460205,-3.329436779022217
1761399796168507600,6.951507568359375,0.2339583933353424,-10.06507396697998,-4.071788787841797
1761399796178576000,6.961575927734375,-0.19976620376110077,-9.572542190551758,-4.984129428863525
1761399796188665300,6.971665283203125,-0.38965633511543274,-9.105972290039062,-5.925948619842529
1761399796198750000,6.98175,0.11716624349355698,-8.796371459960938,-5.920412063598633
1761399796208818000,6.99181787109375,0.2751835584640503,-9.233388900756836,-5.930811882019043
1761399796218912300,7.001912353515625,-0.548496663570404,-9.737892150878906,-5.854122638702393
1761399796228992500,7.011992431640625,-1.136348009109497,-10.03492259979248,-5.467010021209717
1761399796239067600,7.022067626953125,-1.0593594312667847,-10.302324295043945,-5.079747676849365
1761399796249154800,7.03215478515625,-0.47248074412345886,-10.518401145935059,-4.742913722991943
1761399796259236000,7.042236083984375,0.05776011571288109,-10.553192138671875,-4.556390285491943
1761399796269310000,7.05231005859375,-0.27301380038261414,-10.541296005249023,-5.023932933807373
1761399796279395800,7.062395751953125,-1.2417676448822021,-10.683675765991211,-6.2894182205200195
1761399796289455900,7.072455810546875,-2.189422607421875,-11.136853218078613,-7.622913837432861
1761399796299559700,7.0825595703125,-1.820491075515747,-10.868553161621094,-7.962067604064941
1761399796309641200,7.09264111328125,-1.2675052881240845,-10.612672805786133,-7.764695167541504
1761399796319722200,7.10272216796875,-1.0524760484695435,-10.563142776489258,-6.6158528327941895
1761399796329790200,7.112790283203125,-0.11993454396724701,-10.389039993286133,-4.606294631958008
1761399796339875000,7.122875,1.2600234746932983,-11.269956588745117,-2.750638484954834
1761399796349965300,7.13296533203125,2.558279275894165,-13.240833282470703,-1.4029273986816406
1761399796360034300,7.143034423828125,2.3107786178588867,-15.093496322631836,-0.5030816197395325
1761399796370122000,7.1531220703125,0.9916484355926514,-15.638401985168457,0.12030863761901855
1761399796380209400,7.16320947265625,-0.5805938839912415,-14.510358810424805,0.5665279626846313
1761399796390289400,7.173289306640625,-1.657610535621643,-13.230209350585938,0.6369324922561646
1761399796400344000,7.183343994140625,-2.326266288757324,-12.35565185546875,0.010549451224505901
1761399796410451200,7.193451171875,-2.335169553756714,-11.616517066955566,-1.1658265590667725
1761399796420530700,7.20353076171875,-1.4900164604187012,-10.810419082641602,-2.98781418800354
1761399796430610200,7.213610107421875,0.02356792241334915,-10.498649597167969,-4.694805145263672
1761399796440692700,7.223692626953125,1.3498808145523071,-10.537704467773438,-5.376554012298584
1761399796450774800,7.23377490234375,1.4113819599151611,-10.754454612731934,-5.849034786224365
1761399796460855800,7.243855712890625,0.6748656034469604,-10.589703559875488,-5.699397087097168
1761399796470929000,7.253928955078125,0.1678933948278427,-10.239776611328125,-4.849605083465576
1761399796481017600,7.264017578125,-0.2659808397293091,-9.800739288330078,-3.900378942489624
1761399796491099000,7.274098876953125,-0.2008884847164154,-9.426495552062988,-3.3809869289398193
1761399796501180000,7.284179931640625,-0.006808510981500149,-9.070657730102539,-2.694075345993042
1761399796511261400,7.294261474609375,-0.22348377108573914,-8.752303123474121,-2.4357261657714844
1761399796531408100,7.314408203125,-1.0174609422683716,-7.535151481628418,-2.423156499862671
1761399796541492700,7.32449267578125,-0.7928548455238342,-7.113397598266602,-1.8403180837631226
1761399796551585000,7.3345849609375,-0.6584802865982056,-6.857143402099609,-1.2205191850662231
1761399796561665300,7.344665283203125,-0.629824697971344,-6.674959659576416,-0.8659528493881226
1761399796571749000,7.3547490234375,-0.6507739424705505,-6.4449663162231445,-0.8873509764671326
1761399796581827800,7.364827880859375,-0.4867711365222931,-6.71102237701416,-0.5796212553977966
1761399796591908600,7.37490869140625,-0.42115503549575806,-6.640617847442627,-1.018059492111206
1761399796601984500,7.384984619140625,0.029029695317149162,-6.671892166137695,-0.7015010714530945
1761399796612070700,7.395070556640625,0.35434186458587646,-6.712668418884277,-0.24757541716098785
1761399796622151700,7.405151611328125,0.8337059020996094,-6.3617682456970215,-0.21592706441879272
1761399796632220200,7.41522021484375,0.9956138134002686,-5.927370071411133,-0.27884969115257263
1761399796642313700,7.425313720703125,1.1659762859344482,-5.516689777374268,0.023418284952640533
1761399796652405800,7.43540576171875,1.4053963422775269,-5.103764533996582,0.4886415898799896
1761399796662473700,7.4454736328125,1.6160861253738403,-4.770072937011719,0.9050830602645874
1761399796672556300,7.455556396484375,1.9113959074020386,-4.520028114318848,1.0842740535736084
1761399796682637800,7.465637939453125,2.3238720893859863,-4.473790168762207,0.7732523083686829
1761399796692718800,7.47571875,3.100191831588745,-4.6204352378845215,0.00793079286813736
1761399796702799600,7.485799560546875,4.26706600189209,-4.94155740737915,-1.1257237195968628
1761399796712869600,7.49586962890625,5.789778232574463,-5.750648021697998,-2.7736079692840576
1761399796722960000,7.5059599609375,6.607772350311279,-7.411550521850586,-4.9724578857421875
1761399796733042700,7.516042724609375,4.42081880569458,-9.781211853027344,-7.329998016357422
1761399796743124200,7.526124267578125,3.3132009506225586,-13.107057571411133,-10.198101997375488
1761399796753196800,7.53619677734375,4.020313739776611,-17.345468521118164,-12.938864707946777
1761399796763285200,7.54628515625,5.0038065910339355,-19.563995361328125,-13.073163986206055
1761399796773366800,7.55636669921875,5.573028087615967,-16.69529151916504,-10.834586143493652
1761399796783422000,7.566421875,5.60722017288208,-12.321235656738281,-8.45003604888916
1761399796793526800,7.57652685546875,5.587767601013184,-8.724994659423828,-6.9240312576293945
1761399796803609300,7.586609375,4.827907562255859,-5.817461013793945,-5.839981555938721
1761399796813682000,7.596681884765625,3.8734443187713623,-3.4262523651123047,-5.275399208068848
1761399796823771600,7.606771728515625,3.6240732669830322,-1.671900987625122,-5.191601753234863
1761399796833852700,7.616852783203125,3.6220531463623047,-1.4778209924697876,-5.267617702484131
1761399796843911000,7.626910888671875,2.0969464778900146,-5.387402534484863,-6.096236228942871
1761399796864082400,7.64708251953125,-0.25318682193756104,-16.551265716552734,-5.862951278686523
1761399796874176500,7.657176513671875,-1.9722236394882202,-19.488128662109375,-4.621333122253418
1761399796884257800,7.6672578125,-1.4468460083007812,-17.801937103271484,-4.505513668060303
1761399796894325800,7.67732568359375,1.2602479457855225,-13.071517944335938,-4.584147930145264
1761399796904406800,7.68740673828125,3.138873338699341,-8.253860473632812,-4.113163471221924
1761399796914500400,7.697500244140625,1.5902736186981201,-4.594472885131836,-2.8610711097717285
1761399796924579800,7.707579833984375,-1.078737497329712,-2.689361810684204,-1.1203367710113525
1761399796934657500,7.717657470703125,-2.8110921382904053,-3.067645788192749,0.1794154942035675
1761399796944743400,7.727743408203125,-3.7894227504730225,-4.856637954711914,0.4587889015674591
1761399796954837200,7.737837158203125,-4.366949081420898,-7.415441036224365,-0.1735047996044159
1761399796964892700,7.747892578125,-4.266916275024414,-10.933944702148438,-0.7916577458381653
1761399796974986500,7.757986572265625,-3.576338768005371,-14.227468490600586,-1.4327800273895264
1761399796985065200,7.768065185546875,-2.243666172027588,-14.39304256439209,-1.8160020112991333
1761399796995148500,7.7781484375,-0.8131307363510132,-14.021866798400879,-2.8009915351867676
1761399797005216300,7.78821630859375,-0.4507084786891937,-11.420940399169922,-2.8948142528533936
1761399797015310800,7.798310791015625,-0.12674304842948914,-9.255085945129395,-2.7380688190460205
1761399797025391400,7.808391357421875,0.48722004890441895,-8.613439559936523,-2.5136125087738037
1761399797035472400,7.818472412109375,0.7970446944236755,-8.877849578857422,-2.6093058586120605
1761399797045538300,7.828538330078125,0.8349030017852783,-9.549123764038086,-2.984297513961792
1761399797055632100,7.838632080078125,0.9664344787597656,-10.295066833496094,-2.8168530464172363
1761399797065716000,7.848716064453125,0.9561094641685486,-10.725200653076172,-2.181267499923706
1761399797075796700,7.858796630859375,0.834678590297699,-10.606911659240723,-1.3894599676132202
1761399797085877500,7.86887744140625,0.7499088644981384,-10.197578430175781,-0.903287410736084
1761399797095945700,7.87894580078125,0.8246528506278992,-9.627309799194336,-0.7653215527534485
1761399797106037500,7.88903759765625,0.9036614894866943,-9.213561058044434,-1.0353425741195679
1761399797116110000,7.899110107421875,0.9344120025634766,-8.797194480895996,-1.304166555404663
1761399797126201900,7.909201904296875,0.8622866868972778,-8.47098445892334,-1.6479589939117432
1761399797136269600,7.91926953125,0.6869862675666809,-8.253786087036133,-2.0587141513824463
1761399797146350600,7.9293505859375,0.49155953526496887,-8.164826393127441,-2.4304888248443604
1761399797156444200,7.939444091796875,0.35987845063209534,-8.028132438659668,-2.7613375186920166
1761399797166523400,7.9495234375,0.17672201991081238,-7.8278422355651855,-3.032032012939453
1761399797176591400,7.95959130859375,0.03538929298520088,-7.61565637588501,-3.403956174850464
1761399797186687500,7.9696875,-0.046911388635635376,-7.358579158782959,-3.579256772994995
1761399797196768000,7.97976806640625,-0.020350715145468712,-7.159635543823242,-3.5929486751556396
1761399797206849000,7.98984912109375,-0.0007481880020350218,-7.137564182281494,-3.6278889179229736
1761399797216927200,7.99992724609375,-0.016310499981045723,-7.2521867752075195,-3.6238486766815186
1761399797227011600,8.010011474609374,-0.030226796865463257,-7.563357830047607,-3.695375442504883
1761399797237090800,8.0200908203125,-0.016160860657691956,-7.9456071853637695,-3.7409400939941406
1761399797247171600,8.030171630859375,-0.013691840693354607,-8.343343734741211,-3.722609519958496
1761399797257254100,8.040254150390625,-0.009726444259285927,-8.661323547363281,-3.669188976287842
1761399797267344600,8.0503447265625,0.04571428894996643,-8.932168006896973,-3.6082115173339844
1761399797277416400,8.06041650390625,-0.007631517946720123,-9.126996040344238,-3.4543840885162354
1761399797287486200,8.070486328125,-0.12868833541870117,-9.392976760864258,-3.2137668132781982
1761399797297576400,8.080576416015624,-0.12262801826000214,-9.520318984985352,-2.9228713512420654
1761399797307637200,8.09063720703125,-0.14686931669712067,-9.639505386352539,-2.8942906856536865
1761399797317740300,8.100740234375,-0.5675754547119141,-9.738863945007324,-3.4059016704559326
1761399797327821300,8.1108212890625,-1.3379098176956177,-9.75173282623291,-3.9328503608703613
1761399797337898500,8.1208984375,-1.8378490209579468,-9.727492332458496,-4.337245941162109
1761399797347983000,8.130983154296874,-1.6537200212478638,-9.551667213439941,-4.707374572753906
1761399797358062300,8.141062255859374,-1.3392565250396729,-9.79176139831543,-5.236493110656738
1761399797368145700,8.151145751953125,-1.1060463190078735,-10.406697273254395,-5.461548328399658
1761399797378221000,8.161220947265624,-1.020453691482544,-10.90798282623291,-5.244648456573486
1761399797388294100,8.171294189453125,-0.9928455352783203,-10.901773452758789,-4.902801513671875
1761399797398384600,8.181384521484375,-0.8592191338539124,-10.555960655212402,-4.965125560760498
1761399797408444000,8.19144384765625,-0.9479542374610901,-10.210746765136719,-5.001636981964111
1761399797418550500,8.201550537109375,-1.114500880241394,-9.931148529052734,-5.596221923828125
1761399797428629000,8.21162890625,-1.4041244983673096,-9.863886833190918,-6.578218936920166
1761399797438712300,8.22171240234375,-1.6884359121322632,-9.966238975524902,-7.291990280151367
1761399797448793300,8.23179345703125,-1.3891607522964478,-10.117522239685059,-7.405490398406982
1761399797458861600,8.241861572265625,-1.2699743509292603,-10.198925018310547,-7.119458198547363
1761399797468955100,8.251955078125,-1.2410194873809814,-10.229001998901367,-6.47092866897583
1761399797479036000,8.262035888671875,-0.6651391386985779,-10.453533172607422,-5.440224647521973
1761399797489115600,8.27211572265625,-0.08289923518896103,-10.970232009887695,-4.359392166137695
1761399797499185400,8.282185302734375,0.2488473355770111,-11.307515144348145,-2.8029367923736572
1761399797509279500,8.292279541015626,0.19849428534507751,-11.08059024810791,-1.9607763290405273
1761399797519360000,8.302360107421874,0.5091419816017151,-10.490419387817383,-0.7852981686592102
1761399797529446100,8.312446044921876,1.1139771938323975,-10.647164344787598,0.002843114547431469
1761399797539524600,8.322524658203125,1.9749171733856201,-11.240926742553711,0.974664568901062
1761399797549603300,8.332603271484375,2.3698108196258545,-11.941604614257812,1.3314753770828247
1761399797559671800,8.342671875,1.5834650993347168,-12.230704307556152,1.5369278192520142
1761399797569765000,8.35276513671875,0.35509005188941956,-12.168081283569336,1.18557870388031
1761399797579846100,8.36284619140625,-0.5905448198318481,-11.908834457397461,0.23508067429065704
1761399797589927000,8.372927001953125,-0.6711995005607605,-11.80640697479248,-0.8999953866004944
1761399797599995400,8.382995361328126,-0.05671265348792076,-12.008418083190918,-1.9672107696533203
1761399797610089500,8.39308935546875,0.8173205852508545,-12.32564926147461,-2.8325650691986084
1761399797620168000,8.40316796875,1.4443769454956055,-12.329689979553223,-3.3022027015686035
1761399797630251300,8.413251220703126,1.6942718029022217,-11.702109336853027,-3.402010917663574
1761399797640332500,8.42333251953125,1.4835072755813599,-10.947936058044434,-3.438372850418091
1761399797650413000,8.4334130859375,0.919897198677063,-10.259603500366211,-3.5649664402008057
1761399797660482300,8.443482421875,0.07392098009586334,-9.785177230834961,-3.4815433025360107
1761399797670573000,8.453572998046875,-0.924835205078125,-9.579200744628906,-3.2537949085235596
1761399797680652300,8.46365234375,-0.47061026096343994,-9.28067398071289,-3.5935471057891846
1761399797690735900,8.47373583984375,0.8860042691230774,-9.200693130493164,-3.220425844192505
1761399797700818200,8.483818115234374,1.552190899848938,-9.081581115722656,-2.4718635082244873
1761399797710888200,8.49388818359375,0.6914753913879395,-9.141660690307617,-2.148721218109131
1761399797720979700,8.503979736328125,0.5931634902954102,-9.391106605529785,-1.7370681762695312
1761399797731043300,8.514043212890625,0.8491933941841125,-9.413402557373047,-1.427542805671692
1761399797741118500,8.524118408203124,1.1314098834991455,-9.035492897033691,-1.609576940536499
1761399797751219000,8.534218994140625,1.201141119003296,-8.343942642211914,-1.8864812850952148
1761399797761303800,8.5443037109375,1.078737497329712,-8.212186813354492,-1.2977321147918701
1761399797771377700,8.554377685546875,0.8501660823822021,-7.897947788238525,-0.870217502117157
1761399797781466000,8.564466064453125,0.5883002281188965,-7.161431312561035,-0.8360252976417542
1761399797791547000,8.574546875,0.46694415807724,-6.3838396072387695,-0.8975263833999634
1761399797801634600,8.584634521484375,0.5360767245292664,-5.88352632522583,-0.8919897675514221
1761399797811704800,8.594704833984375,0.5740098357200623,-5.587617874145508,-1.094374656677246
1761399797821789400,8.60478955078125,0.5964555144309998,-5.35665225982666,-1.264886736869812
1761399797831870700,8.61487060546875,0.7338228225708008,-5.180753231048584,-1.400907278060913
1761399797841958100,8.624958251953124,0.9220669269561768,-5.121870994567871,-1.5310919284820557
1761399797852021800,8.635021728515625,1.1252747774124146,-5.12119722366333,-1.545831322669983
1761399797862097400,8.645097412109376,1.479915976524353,-5.136236190795898,-1.4994436502456665
1761399797872178200,8.65517822265625,1.851091980934143,-5.181501388549805,-1.6196026802062988
1761399797882260500,8.665260498046875,2.3073370456695557,-5.1472344398498535,-1.9216461181640625
1761399797892346600,8.6753466796875,2.7125556468963623,-4.926070213317871,-2.5626935958862305
1761399797902425300,8.68542529296875,3.3611598014831543,-4.804414749145508,-3.2875382900238037
1761399797912517000,8.69551708984375,3.9333741664886475,-5.013308525085449,-4.240804672241211
1761399797922600000,8.705599853515626,3.8872108459472656,-5.675230503082275,-5.3017354011535645
1761399797932680700,8.7156806640625,3.436652183532715,-6.750152587890625,-6.337676525115967
1761399797942747000,8.725746826171875,3.864316463470459,-8.348132133483887,-7.3430914878845215
1761399797952842800,8.7358427734375,3.853243112564087,-10.315118789672852,-8.05850887298584
1761399797962923500,8.745923583984375,4.35452938079834,-12.335001945495605,-8.399383544921875
1761399797973005000,8.756005126953125,5.2177886962890625,-13.982362747192383,-8.460884094238281
1761399797983046100,8.766046142578125,5.8588361740112305,-14.21108341217041,-8.117241859436035
1761399797993156600,8.776156494140626,5.875296115875244,-12.839579582214355,-6.838737964630127
1761399798003245800,8.786245849609376,5.460201263427734,-10.863316535949707,-5.140126705169678
1761399798013326600,8.79632666015625,5.118653774261475,-9.042824745178223,-4.079869270324707
1761399798023409700,8.80640966796875,4.886565685272217,-7.881263256072998,-3.9320273399353027
1761399798033488400,8.81648828125,4.49675989151001,-7.270517349243164,-3.919607400894165
1761399798043572000,8.826572021484376,4.172195911407471,-6.667926788330078,-3.8717234134674072
1761399798053652500,8.836652587890624,4.0953569412231445,-6.382717132568359,-3.5835213661193848
1761399798063715300,8.84671533203125,3.7231333255767822,-8.277728080749512,-3.7630116939544678
1761399798073812500,8.8568125,3.091063976287842,-12.534693717956543,-4.931232452392578
1761399798083873800,8.866873779296874,3.3638534545898438,-15.968427658081055,-4.931382179260254
1761399798093976800,8.876976806640625,3.193042039871216,-16.701353073120117,-4.821024417877197
1761399798104057900,8.887057861328126,-0.419209748506546,-14.089577674865723,-5.722291469573975
1761399798114126600,8.897126708984375,-1.483656883239746,-10.074576377868652,-5.686977386474609
1761399798124220000,8.907219970703125,0.14612112939357758,-7.1151933670043945,-4.756979465484619
1761399798134286300,8.917286376953125,0.10512042045593262,-5.7877583503723145,-3.5254619121551514
1761399798144369000,8.927368896484374,-1.0452934503555298,-5.680243492126465,-2.1105635166168213
1761399798154465500,8.937465576171874,-2.4433577060699463,-6.03383731842041,-0.7134721279144287
1761399798164543500,8.94754345703125,-2.976067543029785,-6.324882507324219,0.0644189864397049
1761399798174624800,8.957624755859374,-2.8133366107940674,-6.95350980758667,-0.15524901449680328
1761399798184705500,8.96770556640625,-2.378938674926758,-8.373196601867676,-1.2731167078018188
1761399798194786600,8.97778662109375,-1.627308964729309,-10.569952011108398,-3.030311107635498
1761399798204854300,8.987854248046874,-0.6896049380302429,-12.548759460449219,-4.514641284942627
1761399798214948600,8.997948486328125,0.07915829122066498,-13.278766632080078,-5.200355529785156
1761399798225029400,9.008029296875,0.522758960723877,-11.953874588012695,-4.651484966278076
1761399798235099600,9.018099609375,0.5187935829162598,-9.953893661499023,-3.8627452850341797
1761399798245191400,9.02819140625,0.5550059080123901,-8.449511528015137,-3.188403367996216
1761399798255250200,9.038250244140626,1.013719916343689,-7.905130386352539,-2.6385598182678223
1761399798265351200,9.04835107421875,1.0560673475265503,-8.17141056060791,-2.381706953048706
1761399798275408100,9.058408203125,0.6711246371269226,-8.627580642700195,-2.3500585556030273
1761399798285502200,9.068502197265625,0.4122515916824341,-9.156399726867676,-2.305391788482666
1761399798295594800,9.0785947265625,0.499340683221817,-9.561918258666992,-2.2649147510528564
1761399798305676300,9.08867626953125,0.7355436682701111,-9.76550006866455,-2.4310872554779053
1761399798315756300,9.09875634765625,0.8855553269386292,-9.643918991088867,-2.761636734008789
1761399798325833500,9.10883349609375,0.9459341168403625,-9.218574523925781,-3.134159564971924
1761399798335920000,9.118920166015625,1.0195558071136475,-8.622118949890137,-3.2956933975219727
1761399798345986300,9.128986328125,1.1382184028625488,-8.098686218261719,-3.235464334487915
1761399798356082400,9.13908251953125,1.1044751405715942,-7.8372697830200195,-2.9885623455047607
1761399798366152000,9.14915185546875,1.0278607606887817,-7.918672561645508,-2.888080596923828
1761399798376233000,9.15923291015625,1.001225233078003,-8.226851463317871,-3.035698175430298
1761399798386323200,9.1693232421875,0.876502275466919,-8.516324996948242,-3.2083051204681396
1761399798396392000,9.179391845703124,0.736591100692749,-8.631321907043457,-3.461491823196411
1761399798406487800,9.18948779296875,0.5270984768867493,-8.562788009643555,-3.644049882888794
1761399798416565200,9.199565185546875,0.3725976347923279,-8.348955154418945,-3.746027946472168
1761399798426649300,9.2096494140625,0.36638766527175903,-8.131681442260742,-3.7166988849639893
1761399798436730600,9.219730712890625,0.3858405649662018,-8.024765968322754,-3.6378397941589355
1761399798446791200,9.229791259765625,0.37656304240226746,-8.062623977661133,-3.464559555053711
1761399798456892400,9.239892333984375,0.23111528158187866,-8.209343910217285,-3.1968579292297363
1761399798466973700,9.2499736328125,-0.04945522919297218,-8.449137687683105,-2.9910314083099365
1761399798477054200,9.26005419921875,-0.4282628297805786,-8.572364807128906,-2.683600902557373
1761399798487133700,9.2701337890625,-0.823156476020813,-8.622118949890137,-2.4472482204437256
1761399798497203500,9.280203369140626,-1.1243770122528076,-8.612242698669434,-2.236483573913574
1761399798507297000,9.290297119140625,-1.2122142314910889,-8.60124397277832,-2.284891366958618
1761399798517376300,9.300376220703125,-1.1484686136245728,-8.603339195251465,-2.3877673149108887
1761399798527459600,9.31045947265625,-0.9850643873214722,-8.669329643249512,-2.488922357559204
1761399798537535700,9.32053564453125,-0.8693944811820984,-8.82787036895752,-2.6563668251037598
1761399798547621400,9.330621337890625,-0.946532666683197,-8.857423782348633,-2.7275943756103516
1761399798557702400,9.340702392578125,-1.2254571914672852,-8.922591209411621,-2.7165210247039795
1761399798567783200,9.350783203125,-0.9897779226303101,-10.01187801361084,-3.0848541259765625
1761399798577851100,9.36085107421875,-1.090409278869629,-10.300529479980469,-3.2117466926574707
1761399798587945700,9.37094580078125,-1.0191068649291992,-10.10053825378418,-3.676072359085083
1761399798598026500,9.381026611328124,-0.9401730895042419,-9.86074447631836,-4.086752891540527
1761399798608095000,9.391094970703126,-0.8844330906867981,-9.775376319885254,-4.403385639190674
1761399798618175700,9.40117578125,-1.0724526643753052,-10.007015228271484,-4.659565448760986
1761399798628269600,9.41126953125,-1.2889034748077393,-10.498948097229004,-4.810250282287598
1761399798638335500,9.42133544921875,-1.3168857097625732,-10.919729232788086,-4.874968528747559
1761399798648422000,9.431421875,-1.276259183883667,-11.131017684936523,-4.636446475982666
1761399798658512400,9.441512451171874,-1.1186907291412354,-11.216909408569336,-4.654702186584473
1761399798668580600,9.45158056640625,-0.9240122437477112,-10.877382278442383,-4.90684175491333
1761399798678674200,9.461674072265625,-0.9062801599502563,-10.476054191589355,-5.526191711425781
1761399798688755700,9.471755615234375,-1.166948914527893,-10.2700777053833,-6.663362503051758
1761399798698824000,9.481823974609375,-1.376217007637024,-10.072406768798828,-7.523105621337891
1761399798708915700,9.491915771484376,-1.2563573122024536,-10.053177833557129,-8.04002857208252
1761399798718998300,9.501998291015624,-1.1778724193572998,-9.9208984375,-8.215253829956055
1761399798729060000,9.51206005859375,-1.1715128421783447,-9.725321769714355,-7.744344711303711
1761399798739160300,9.522160400390625,-0.5324854254722595,-9.885957717895508,-6.5622076988220215
1761399798749241300,9.532241455078125,0.4064905643463135,-10.506804466247559,-5.08146858215332
1761399798759322600,9.542322509765626,0.7597849369049072,-11.33504867553711,-3.813663959503174
1761399798769400800,9.55240087890625,0.48714521527290344,-11.615544319152832,-2.7177181243896484
1761399798779484400,9.562484375,-0.04997896030545235,-11.061436653137207,-1.7553987503051758
1761399798789565200,9.572565185546875,0.3933972716331482,-10.408417701721191,-0.7252934575080872
1761399798799631400,9.58263134765625,1.1144260168075562,-10.362628936767578,-0.1272667795419693
1761399798809727200,9.592727294921875,1.7272669076919556,-10.844162940979004,0.28311434388160706
1761399798819795200,9.602795166015625,1.4610615968704224,-11.555913925170898,0.3725976347923279
1761399798829889500,9.6128896484375,0.557250440120697,-12.079794883728027,0.6051344871520996
1761399798839959800,9.622959716796874,-0.24585458636283875,-12.412065505981445,0.2506429851055145
1761399798850051600,9.633051513671875,-0.6352116465568542,-12.64130973815918,-0.5221604108810425
1761399798860132000,9.643132080078125,-0.8135048747062683,-12.472145080566406,-1.240645408630371
1761399798870201300,9.653201416015625,-0.6815993189811707,-12.039168357849121,-1.7827824354171753
1761399798880294100,9.663294189453126,-0.06703764945268631,-11.672780990600586,-2.225560188293457
1761399798890375000,9.673375,0.87530517578125,-11.3385648727417,-2.6903345584869385
1761399798900443100,9.683443115234375,1.423727035522461,-10.837353706359863,-2.987365245819092
1761399798910524700,9.693524658203126,1.632546305656433,-10.272920608520508,-3.3032500743865967
1761399798920615700,9.70361572265625,0.8583961129188538,-10.000205993652344,-3.1419408321380615
1761399798930697700,9.71369775390625,-0.23665186762809753,-9.573664665222168,-2.6240451335906982
1761399798940768300,9.723768310546875,-0.8654291033744812,-9.0859956741333,-2.43243408203125
1761399798950861300,9.733861328125,-0.7116764783859253,-8.880168914794922,-2.493561029434204
1761399798960938000,9.74393798828125,0.37155017256736755,-8.718709945678711,-2.5405473709106445
1761399798971029200,9.754029296875,1.3554174900054932,-8.504728317260742,-2.2730700969696045
1761399798981104000,9.764104248046875,0.8103624582290649,-8.52148723602295,-1.8279730081558228
1761399798991185000,9.774184814453125,0.035838205367326736,-8.589123725891113,-1.6689082384109497
1761399799001253000,9.784253173828125,0.06636428087949753,-8.396615028381348,-1.6404023170471191
1761399799011346700,9.7943466796875,0.41457098722457886,-7.9707465171813965,-1.4471453428268433
1761399799021428500,9.804428466796875,0.5829881429672241,-7.36164665222168,-1.4991443157196045
1761399799031494100,9.814494140625,0.8481459617614746,-7.229067802429199,-1.1108347177505493
1761399799041590000,9.824590087890625,0.9383026361465454,-7.168688774108887,-0.9507973790168762
1761399799051649800,9.83464990234375,0.9756371974945068,-7.3623199462890625,-0.5673509836196899
1761399799061751800,9.844751708984376,1.1357494592666626,-7.141754150390625,-0.7107037901878357
1761399799071833000,9.8548330078125,1.2205191850662231,-6.6781768798828125,-1.1210849285125732
1761399799081906400,9.864906494140625,1.3643957376480103,-6.581884860992432,-0.8961796164512634
1761399799091980300,9.874980224609375,1.2154314517974854,-6.0749125480651855,-1.1041010618209839
1761399799102050800,9.88505078125,1.1094132661819458,-5.4944682121276855,-1.1537808179855347
1761399799112131600,9.895131591796876,1.2091466188430786,-5.0330610275268555,-0.8450035452842712
1761399799122213000,9.905213134765624,1.292794108390808,-4.676249980926514,-0.5506663918495178
1761399799132293400,9.91529345703125,1.5285481214523315,-4.518831253051758,-0.24443303048610687
1761399799142368800,9.92536865234375,1.7119290828704834,-4.561851978302002,-0.10444705188274384
1761399799152444400,9.9354443359375,1.912069320678711,-4.778602123260498,-0.22415713965892792
1761399799162544000,9.945544189453125,2.200421094894409,-5.14932918548584,-0.5976526141166687
1761399799172626400,9.95562646484375,2.6785879135131836,-5.701417446136475,-1.317035436630249
1761399799182715600,9.965715576171876,3.3424551486968994,-6.540884017944336,-2.3918824195861816
1761399799192804600,9.9758046875,4.190152168273926,-7.738059997558594,-3.639934778213501
1761399799202885400,9.985885498046875,5.182623863220215,-9.328857421875,-5.054234504699707
1761399799212967000,9.995966796875,5.587468147277832,-11.364826202392578,-6.878242015838623
1761399799223036200,10.0060361328125,5.3645830154418945,-13.689072608947754,-9.292943954467773
1761399799233129200,10.016129150390626,5.331363677978516,-15.591191291809082,-11.21975326538086
1761399799243209700,10.026209716796876,5.751845359802246,-15.686136245727539,-11.671658515930176
1761399799253271600,10.036271484375,5.649941921234131,-13.466636657714844,-10.561796188354492
1761399799263371500,10.04637158203125,5.106533050537109,-10.731036186218262,-8.933290481567383
1761399799273452500,10.05645263671875,4.978817462921143,-8.153753280639648,-7.579070091247559
1761399799283519000,10.06651904296875,5.318718910217285,-5.760449409484863,-7.042843341827393
1761399799293614300,10.0766142578125,5.296198844909668,-3.6016275882720947,-7.20400333404541
1761399799303696000,10.08669580078125,4.768950462341309,-1.7361702919006348,-7.284433364868164
1761399799323845400,10.106845458984376,2.3947253227233887,-3.254094123840332,-6.191330909729004
1761399799333938700,10.116938720703125,0.5657049417495728,-9.94169807434082,-6.66672945022583
1761399799344007000,10.1270068359375,-1.0898107290267944,-17.42971420288086,-6.41855525970459
1761399799354099000,10.137098876953125,-3.80954909324646,-22.712369918823242,-5.642759323120117
1761399799364172000,10.147172119140626,-5.064260482788086,-20.621932983398438,-5.942633152008057
1761399799374239200,10.1572392578125,1.6354641914367676,-14.730550765991211,-5.502623558044434
1761399799384330800,10.167330810546876,4.431667327880859,-10.643722534179688,-1.2556840181350708
1761399799394412000,10.177412109375,1.9603275060653687,-7.27029275894165,1.3358896970748901
1761399799404493600,10.18749365234375,1.7393875122070312,-4.411092281341553,3.375225782394409
1761399799414574000,10.197573974609375,1.9051111936569214,-2.689361810684204,6.385560512542725
1761399799424648700,10.207648681640626,0.019901800900697708,-2.178873300552368,7.4136457443237305
1761399799434749000,10.2177490234375,-1.7093104124069214,-3.610156774520874,6.492251873016357
1761399799444817000,10.22781689453125,-4.222847938537598,-8.619200706481934,3.327641010284424
1761399799454911200,10.2379111328125,-8.16796875,-13.213075637817383,0.8452280163764954
1761399799464991500,10.247991455078125,-8.614562034606934,-15.335161209106445,-0.8906430602073669
1761399799475072500,10.258072509765626,-5.134140968322754,-16.684219360351562,-3.77565598487854
1761399799485152000,10.268152099609376,-0.8361001014709473,-16.93710708618164,-7.160608291625977
1761399799495223600,10.2782236328125,0.5478981137275696,-14.101997375488281,-8.295310020446777
1761399799505307100,10.28830712890625,0.018330607563257217,-10.304943084716797,-6.056656837463379
1761399799515396600,10.298396728515625,-0.33369186520576477,-8.409184455871582,-3.8833203315734863
1761399799525476600,10.3084765625,0.016310499981045723,-8.301819801330566,-2.660332202911377
1761399799535548200,10.318548095703125,0.2663549482822418,-8.98820686340332,-1.6676362752914429
1761399799545632300,10.32863232421875,-0.19220951199531555,-9.0859956741333,-0.9408464431762695
1761399799555720700,10.338720703125,-0.8271218538284302,-9.28957748413086,-0.5552303194999695
1761399799565795800,10.3487958984375,-1.4017302989959717,-9.179219245910645,-0.25647884607315063
1761399799575870700,10.35887060546875,-1.6514005661010742,-8.91877555847168,-0.4272901713848114
1761399799585952000,10.368951904296875,-1.7673697471618652,-8.76577091217041,-1.1097873449325562
1761399799596042500,10.37904248046875,-1.8026841878890991,-8.59196662902832,-2.2749404907226562
1761399799606123000,10.389123046875,-1.647435188293457,-8.343343734741211,-3.3563714027404785
1761399799616206600,10.39920654296875,-1.3491326570510864,-7.964386940002441,-4.082188606262207
1761399799626262300,10.40926220703125,-1.1876736879348755,-7.766865253448486,-4.484714031219482
1761399799636333800,10.419333740234375,-0.9044845104217529,-7.875277519226074,-4.6414594650268555
1761399799646424300,10.42942431640625,-0.8664765357971191,-7.6758856773376465,-4.4467058181762695
1761399799656530200,10.4395302734375,-0.7686135768890381,-7.5965776443481445,-4.152294158935547
1761399799666609400,10.449609375,-0.5102642178535461,-7.700126647949219,-3.853916645050049
1761399799676684500,10.4596845703125,-0.030376434326171875,-7.737087249755859,-3.434706687927246
1761399799686762800,10.4697626953125,0.37386956810951233,-7.905205249786377,-3.0674211978912354
1761399799696854500,10.4798544921875,0.41038113832473755,-8.099434852600098,-2.668562173843384
1761399799706923000,10.489923095703125,0.14282909035682678,-8.39145278930664,-2.660332202911377
1761399799717016600,10.5000166015625,-0.29201778769493103,-8.55148983001709,-2.7853543758392334
1761399799727095600,10.510095458984376,-0.5035305619239807,-8.553509712219238,-2.736497640609741
1761399799737165800,10.520165771484375,-0.5796960592269897,-8.697311401367188,-2.768669843673706
1761399799747259600,10.530259765625,-0.29800328612327576,-9.043947219848633,-2.815431594848633
1761399799757340400,10.54034033203125,0.06419453024864197,-9.264962196350098,-3.0794670581817627
1761399799767408400,10.550408447265625,0.4390367269515991,-9.30005168914795,-3.2264113426208496
1761399799777502000,10.560501953125,0.09576806426048279,-9.160290718078613,-3.8133647441864014
1761399799787583000,10.5705830078125,-0.43020811676979065,-8.849193572998047,-4.634650707244873
1761399799797662200,10.580662109375,-0.8999953866004944,-9.058387756347656,-5.745036602020264
1761399799807745500,10.59074560546875,-1.4202104806900024,-8.864232063293457,-5.762394428253174
1761399799817826600,10.60082666015625,-1.1176432371139526,-8.966435432434082,-5.771223068237305
1761399799827895800,10.610895751953125,-0.5564274191856384,-9.347935676574707,-4.875492572784424
1761399799837988000,10.620988037109376,-0.09060557186603546,-10.065896987915039,-3.7508163452148438
1761399799848069000,10.631069091796874,-0.3536684811115265,-10.692355155944824,-3.354800224304199
1761399799858139400,10.641139404296876,-0.8783727288246155,-10.846631050109863,-3.86775803565979
1761399799868231200,10.651231201171875,-0.983568012714386,-10.515109062194824,-4.6017303466796875
1761399799878312200,10.661312255859375,-0.42369887232780457,-10.24927806854248,-4.813692092895508
1761399799888393500,10.6713935546875,0.39646482467651367,-9.774028778076172,-4.297667026519775
1761399799898474000,10.681473876953126,0.6609492897987366,-10.49213981628418,-4.156184673309326
1761399799908542500,10.69154248046875,0.017956512048840523,-10.76492977142334,-4.620210647583008
1761399799918634500,10.701634521484374,-0.9320926666259766,-10.747945785522461,-5.499182224273682
1761399799928704300,10.711704345703126,-0.3015197813510895,-10.35058307647705,-6.132747650146484
1761399799938798300,10.72179833984375,0.7084592580795288,-10.06507396697998,-6.802375793457031
1761399799948866300,10.7318662109375,-0.20148703455924988,-9.959579467773438,-7.087884426116943
1761399799958947600,10.741947509765625,-0.5386205911636353,-9.859023094177246,-6.127584934234619
1761399799969041000,10.752041015625,0.10437223315238953,-10.08205795288086,-4.7294464111328125
1761399799979122400,10.762122314453125,1.4268693923950195,-11.577461242675781,-3.1694741249084473
1761399799989201000,10.772200927734374,2.5872342586517334,-14.256423950195312,-1.4984710216522217
1761399799999284200,10.7822841796875,2.2566099166870117,-16.675090789794922,0.061126962304115295
1761399800009342000,10.792342041015624,1.1280430555343628,-17.57037353515625,1.725321650505066
1761399800019421000,10.8024208984375,0.10766425728797913,-16.44704246520996,2.886958360671997
1761399800029527000,10.812527099609374,-1.1572223901748657,-14.568492889404297,2.8178257942199707
1761399800039608300,10.8226083984375,-2.0131494998931885,-12.61819076538086,1.5019127130508423
1761399800049686800,10.832686767578124,-1.7628806829452515,-11.0655517578125,-0.8444049954414368
1761399800069838600,10.852838623046875,1.721505880355835,-10.468571662902832,-5.443816184997559
1761399800110162700,10.89316259765625,0.9278279542922974,-9.650203704833984,-4.690091609954834
1761399800120243500,10.903243408203124,1.0384101867675781,-9.672201156616211,-3.9658455848693848
1761399800130337000,10.9133369140625,1.0361655950546265,-9.266159057617188,-3.257161855697632
1761399800140416300,10.923416259765625,1.1012579202651978,-8.497920036315918,-2.647463321685791
1761399800150494200,10.933494140625,-0.07152677327394485,-8.01571273803711,-2.1237316131591797
1761399800160577800,10.943577880859374,-0.5036801695823669,-7.620818614959717,-1.682076334953308
1761399800170659000,10.9536591796875,-0.4795885384082794,-7.369203090667725,-1.20600426197052
1761399800180737800,10.96373779296875,-0.5791723728179932,-7.143549919128418,-0.8331073522567749
1761399800190823200,10.9738232421875,-0.23912090063095093,-6.936077117919922,-0.6169558763504028
1761399800200887300,10.98388720703125,0.1007809266448021,-6.713790416717529,-0.4834791123867035
1761399800210985000,10.99398486328125,0.3256114423274994,-6.414889335632324,-0.5293430089950562
1761399800221066000,11.00406591796875,0.7598597407341003,-6.289642810821533,-0.08065467327833176
1761399800231141400,11.014141357421876,1.2804490327835083,-6.169708251953125,0.4885667860507965
1761399800241223700,11.0242236328125,1.555707335472107,-6.035109043121338,0.812831461429596
1761399800251309000,11.03430908203125,1.5822679996490479,-5.847538471221924,0.8872761726379395
1761399800261367300,11.0443671875,1.4317326545715332,-5.386579513549805,0.5447556972503662
1761399800271471000,11.05447119140625,1.2128876447677612,-4.9596638679504395,0.38389527797698975
1761399800281552400,11.064552490234375,1.0170120000839233,-4.493691921234131,0.20036475360393524
1761399800291633000,11.0746328125,0.856076717376709,-4.0770263671875,-0.07234977930784225
1761399800301714000,11.0847138671875,0.862660825252533,-3.8074541091918945,-0.4264671802520752
1761399800311791400,11.094791259765625,1.012597680091858,-3.727397918701172,-0.9861118197441101
1761399800321875700,11.104875732421876,1.459265947341919,-3.885340452194214,-1.645190715789795
1761399800331957000,11.11495703125,2.1267993450164795,-4.38961935043335,-2.345120668411255
1761399800342037800,11.125037841796875,3.1709704399108887,-5.146636009216309,-3.3489644527435303
1761399800352118800,11.135118896484375,5.305176734924316,-6.372916221618652,-4.954501152038574
1761399800362187500,11.1451875,7.698854923248291,-8.260594367980957,-6.635156154632568
1761399800372266200,11.155266357421874,6.354286193847656,-10.724377632141113,-8.373645782470703
1761399800382356500,11.1653564453125,5.057900905609131,-13.53150463104248,-10.914791107177734
1761399800392443400,11.175443359375,5.703212738037109,-16.449586868286133,-13.181876182556152
1761399800402513200,11.18551318359375,6.255824565887451,-16.848970413208008,-13.442694664001465
1761399800412592400,11.19559228515625,6.130652904510498,-13.954753875732422,-11.546486854553223
1761399800422686200,11.205686279296875,5.782296180725098,-11.293599128723145,-8.946009635925293
1761399800432767200,11.215767333984376,5.801300525665283,-9.142109870910645,-7.076138019561768
1761399800442858000,11.22585791015625,5.577741622924805,-7.0767364501953125,-5.686453342437744
1761399800452941800,11.23594189453125,5.047126770019531,-5.099350452423096,-4.542473793029785
1761399800463010000,11.246010009765625,4.880579948425293,-3.255740165710449,-3.447725296020508
1761399800473091300,11.25609130859375,5.033360004425049,-3.0009074211120605,-2.6301801204681396
1761399800483172600,11.266172607421876,4.510451316833496,-6.901735305786133,-3.507730007171631
1761399800493252900,11.2762529296875,4.723236083984375,-13.088951110839844,-4.381762981414795
1761399800503319000,11.286319091796875,4.630236625671387,-18.57496452331543,-3.891774892807007
1761399800513415000,11.296414794921875,1.8427122831344604,-21.03732681274414,-4.2714056968688965
1761399800523496000,11.306495849609375,-3.2269349098205566,-17.139192581176758,-4.912003993988037
1761399800533564000,11.31656396484375,-2.82710337638855,-10.108244895935059,-4.609062671661377
1761399800543632400,11.32663232421875,-0.22415713965892792,-4.99437952041626,-2.2551136016845703
1761399800553738200,11.33673828125,-0.48482584953308105,-2.7200376987457275,0.2554313838481903
1761399800563818000,11.34681787109375,-0.3852420151233673,-2.6145429611206055,2.0200328826904297
1761399800573869000,11.356869140625,-0.37155017256736755,-4.481047630310059,2.6757447719573975
1761399800583982000,11.366982177734375,-0.8368483185768127,-6.14561653137207,2.735599994659424
1761399800594062600,11.3770625,-1.5492730140686035,-7.758186340332031,2.2752397060394287
1761399800604143900,11.387143798828125,-2.880000114440918,-9.898752212524414,0.4792144298553467
1761399800614222000,11.39722216796875,-4.804564476013184,-12.72413444519043,-2.3329999446868896
1761399800624306000,11.407305908203124,-4.7812957763671875,-15.189339637756348,-4.7672295570373535
1761399800634385200,11.41738525390625,-1.6050877571105957,-15.673192977905273,-5.740323066711426
1761399800644473300,11.427473388671874,0.08043020963668823,-13.98296070098877,-6.6425628662109375
1761399800654548700,11.437548828125,-0.18944120407104492,-10.490793228149414,-4.969988822937012
1761399800664629800,11.447629638671875,-0.8610147833824158,-8.588674545288086,-3.8949172496795654
1761399800674710800,11.457710693359376,-0.42676645517349243,-8.26470947265625,-3.3559226989746094
1761399800684791600,11.46779150390625,0.6817489266395569,-8.557550430297852,-2.478372812271118
1761399800694870500,11.47787060546875,0.8018330931663513,-8.78499984741211,-1.488594889640808
1761399800704954000,11.4879541015625,0.28139352798461914,-9.340603828430176,-1.0307037830352783
1761399800715023000,11.498023193359375,-0.278700053691864,-9.68230152130127,-1.0545710325241089
1761399800735178500,11.518178466796876,-0.6490530967712402,-9.435548782348633,-1.3456162214279175
1761399800745277200,11.528277099609374,-0.9237877726554871,-9.289651870727539,-1.7510592937469482
1761399800755359000,11.53835888671875,-1.2688521146774292,-8.867449760437012,-2.236783027648926
1761399800765438000,11.54843798828125,-1.5828665494918823,-8.371550559997559,-2.7548282146453857
1761399800775502000,11.558502197265625,-1.8410662412643433,-8.014664649963379,-3.385176658630371
1761399800785599500,11.568599609375,-2.157325267791748,-7.888744831085205,-4.138602256774902
1761399800795681800,11.578681884765626,-2.029310464859009,-7.941417217254639,-4.759897232055664
1761399800805763600,11.588763671875,-1.8626141548156738,-7.916428089141846,-5.3068976402282715
1761399800815830800,11.598830810546875,-1.4039000272750854,-7.9438862800598145,-5.493495941162109
1761399800825923300,11.60892333984375,-0.712574303150177,-7.967978000640869,-5.407080173492432
1761399800835989200,11.6189892578125,0.09464578330516815,-8.08978271484375,-5.007472991943359
1761399800846084000,11.629083984375,0.6884077787399292,-8.321646690368652,-4.32759428024292
1761399800856169000,11.6391689453125,0.95296710729599,-8.565630912780762,-3.685499429702759
1761399800866249700,11.649249755859374,0.975861668586731,-8.831162452697754,-3.1559319496154785
1761399800876328400,11.659328369140624,0.5977274179458618,-8.831835746765137,-2.7258734703063965
1761399800886393300,11.669393310546875,-0.019976619631052017,-8.70569133758545,-2.6477625370025635
1761399800906560800,11.689560791015625,-0.7026233673095703,-8.376338958740234,-3.0614356994628906
1761399800916643800,11.699643798828125,-0.5394435524940491,-8.246079444885254,-3.1726913452148438
1761399800926735000,11.709735107421874,-0.07018003612756729,-8.00576114654541,-3.202394485473633
1761399800936816600,11.719816650390625,-0.07968202233314514,-8.113051414489746,-3.101388931274414
1761399800946895600,11.7298955078125,-0.4130746126174927,-8.246603012084961,-3.276240587234497
1761399800956982000,11.73998193359375,-1.0013000965118408,-8.33713436126709,-3.874192476272583
1761399800967039000,11.7500390625,-1.0836007595062256,-8.389806747436523,-4.410493850708008
1761399800977127700,11.760127685546875,-0.9359084367752075,-8.887725830078125,-4.94657039642334
1761399800987221500,11.770221435546874,-0.6197989583015442,-9.269227027893066,-4.694206714630127
1761399800997303600,11.780303466796875,-0.3885340392589569,-9.492186546325684,-3.917213201522827
1761399801007381200,11.79038134765625,-0.5833622217178345,-9.79176139831543,-3.51393985748291
1761399801017464600,11.800464599609375,-0.9958382844924927,-9.868226051330566,-3.505934238433838
1761399801027512600,11.8105126953125,-1.4597896337509155,-9.805527687072754,-3.9205801486968994
1761399801037626400,11.82062646484375,-1.6902315616607666,-9.795801162719727,-4.5177836418151855
1761399801047707000,11.830706787109374,-1.31583833694458,-9.906982421875,-4.863521575927734
1761399801057784300,11.840784423828126,-0.7244704961776733,-9.926285743713379,-4.715080738067627
1761399801067869200,11.850869140625,-0.21211130917072296,-9.978808403015137,-4.393435001373291
1761399801077948200,11.8609482421875,-0.19984102249145508,-10.219724655151367,-4.224568843841553
1761399801088031700,11.87103173828125,-0.7729530334472656,-10.105775833129883,-4.244096755981445
1761399801098112300,11.8811123046875,-1.3914800882339478,-10.869525909423828,-6.175394535064697
1761399801108155400,11.8911552734375,-0.1876455545425415,-10.340107917785645,-6.713715553283691
1761399801118274000,11.901274169921875,0.30720600485801697,-9.714024543762207,-7.2387189865112305
1761399801128355000,11.91135498046875,0.013841478154063225,-9.457246780395508,-7.626729488372803
1761399801138421800,11.921421875,0.3208978474140167,-10.02923583984375,-7.5709147453308105
1761399801148517400,11.931517333984376,0.6548141837120056,-11.018265724182129,-6.542156219482422
1761399801158598400,11.941598388671874,1.173158884048462,-11.667094230651855,-4.103137969970703
1761399801168679200,11.95167919921875,1.785251498222351,-12.635848045349121,-1.8315643072128296
1761399801178760000,11.961760009765625,2.1868040561676025,-14.528465270996094,-0.3010708689689636
1761399801188841200,11.97184130859375,2.354921817779541,-16.34020233154297,1.1793687343597412
1761399801198920400,11.98192041015625,1.6468366384506226,-17.168445587158203,2.690558910369873
1761399801208994800,11.991994873046876,0.5129576921463013,-16.86804962158203,3.18825364112854
1761399801219071500,12.002071533203125,-0.8821136951446533,-14.67054557800293,2.414402723312378
1761399801229165000,12.0121650390625,-1.6533459424972534,-11.92813777923584,0.5262006521224976
1761399801239241200,12.0222412109375,-0.9644891619682312,-10.253019332885742,-2.1184945106506348
1761399801249327400,12.032327392578125,0.7812579274177551,-9.970054626464844,-4.165985584259033
1761399801259408000,12.042407958984375,1.7195605039596558,-9.732579231262207,-5.760075092315674
1761399801269476600,12.0524765625,1.0990134477615356,-9.732280731201172,-6.782923221588135
1761399801279570000,12.06256982421875,0.3084031045436859,-9.719860076904297,-7.050325393676758
1761399801289651000,12.07265087890625,0.4066402018070221,-9.824307441711426,-6.335955619812012
1761399801299719000,12.082718994140626,0.6723217368125916,-9.669432640075684,-5.447482109069824
1761399801309813000,12.09281298828125,1.028234839439392,-9.255684852600098,-4.408398628234863
1761399801319894800,12.102894775390626,0.8943091630935669,-8.52485466003418,-3.480870008468628
1761399801329973000,12.112972900390625,0.7769184708595276,-7.779509544372559,-2.4369232654571533
1761399801340051700,12.1230517578125,0.5065981149673462,-7.217021942138672,-2.1657798290252686
1761399801350137000,12.13313720703125,-0.049230773001909256,-6.947299957275391,-1.7908629179000854
1761399801360231400,12.1432314453125,0.325761079788208,-6.82399845123291,-1.0525509119033813
1761399801370299400,12.15329931640625,0.8458265662193298,-6.6804962158203125,-0.5920411944389343
1761399801380378400,12.16337841796875,1.1785458326339722,-6.453944683074951,-0.8695441484451294
1761399801390461200,12.173461181640626,1.3149404525756836,-6.376058578491211,-1.1353005170822144
1761399801400538400,12.183538330078125,1.4005331993103027,-6.541482925415039,-0.8618378043174744
1761399801410597600,12.19359765625,1.2594997882843018,-6.3104424476623535,-1.083675503730774
1761399801420692000,12.20369189453125,1.2511948347091675,-5.9158477783203125,-1.4930092096328735
1761399801430784800,12.21378466796875,1.1729344129562378,-5.586944580078125,-1.3921535015106201
1761399801440866300,12.2238662109375,1.0307786464691162,-5.373037338256836,-1.2146084308624268
1761399801450947000,12.233947021484376,0.8899696469306946,-5.3640594482421875,-1.0795605182647705
1761399801461024500,12.2440244140625,0.7582137584686279,-5.393836975097656,-1.0007762908935547
1761399801471109000,12.254109130859375,0.7059153914451599,-5.4200239181518555,-0.9423428177833557
1761399801481190000,12.26418994140625,0.8302642703056335,-5.499556064605713,-0.9811738133430481
1761399801491258600,12.274258544921874,1.0396820306777954,-5.5802106857299805,-1.0220996141433716
1761399801501351700,12.2843515625,1.227851390838623,-5.750423431396484,-1.096469521522522
1761399801511433000,12.294432861328126,1.484330177307129,-5.98146390914917,-1.2583774328231812
1761399801521509600,12.304509521484375,1.7132757902145386,-6.1308770179748535,-1.4702643156051636
1761399801531582000,12.31458203125,1.84233820438385,-6.178611755371094,-1.7452982664108276
1761399801541663200,12.324663330078126,2.0947768688201904,-6.293982028961182,-2.0620810985565186
1761399801551757000,12.334757080078125,2.57234525680542,-6.4782609939575195,-2.5608980655670166
1761399801561838000,12.344838134765626,3.197606086730957,-6.898443222045898,-3.446977138519287
1761399801571898600,12.354898681640625,4.101566791534424,-7.609147071838379,-4.653954029083252
1761399801582000400,12.36500048828125,5.002011299133301,-8.591218948364258,-5.984980583190918
1761399801592079400,12.375079345703124,5.4549641609191895,-10.067917823791504,-7.596053600311279
1761399801602139100,12.38513916015625,5.192200660705566,-12.078224182128906,-9.105822563171387
1761399801612243200,12.3952431640625,4.221501350402832,-13.648446083068848,-10.708815574645996
1761399801622323700,12.40532373046875,3.472565174102783,-13.539809226989746,-11.440767288208008
1761399801632392000,12.415391845703125,3.620107889175415,-11.509376525878906,-11.543418884277344
1761399801642486000,12.425486083984374,4.177807331085205,-9.172186851501465,-11.733384132385254
1761399801652564700,12.435564697265624,5.921908378601074,-8.002020835876465,-11.147927284240723
1761399801662641200,12.44564111328125,7.316830158233643,-9.999308586120605,-9.87346363067627
1761399801672716300,12.45571630859375,4.812719345092773,-14.253580093383789,-9.32893180847168
1761399801682809900,12.465809814453126,4.921580791473389,-17.63524055480957,-8.036736488342285
1761399801692890000,12.47589013671875,4.710891246795654,-17.860071182250977,-5.563675880432129
1761399801702972000,12.485971923828124,1.3768904209136963,-15.982044219970703,-3.024624824523926
1761399801713053200,12.49605322265625,-2.987888813018799,-12.081890106201172,-1.054795503616333
1761399801723132200,12.506132080078125,-6.690521717071533,-7.294309616088867,0.6973112225532532
1761399801733209900,12.5162099609375,-4.090194225311279,-4.0743327140808105,2.6455180644989014
1761399801743296000,12.5262958984375,1.2909984588623047,-2.9305028915405273,5.077503204345703
1761399801753377000,12.536376953125,3.0558242797851562,-2.929081439971924,4.5352911949157715
1761399801763458000,12.5464580078125,0.9123404622077942,-3.3867478370666504,2.617161750793457
1761399801773526800,12.55652685546875,-1.142557978630066,-4.29018497467041,2.262371063232422
1761399801783605000,12.56660498046875,-1.4067431688308716,-6.719925403594971,2.0628292560577393
1761399801793700900,12.576700927734375,-1.4194623231887817,-10.699986457824707,0.7196072340011597
1761399801803762000,12.586761962890625,-3.855637311935425,-15.33276653289795,-2.190095901489258
1761399801813862700,12.596862548828126,-6.299892902374268,-16.24608039855957,-3.5779848098754883
1761399801823944000,12.60694384765625,-5.067178249359131,-16.747066497802734,-5.831527233123779
1761399801834025000,12.61702490234375,-2.494832992553711,-16.0059871673584,-7.830236434936523
1761399801844094500,12.627094482421874,-0.6892307996749878,-12.272603034973145,-7.023839473724365
1761399801854186200,12.637186279296875,-0.667832612991333,-9.62020206451416,-5.083414077758789
1761399801864265700,12.647265625,-0.9693524241447449,-8.962470054626465,-3.870002508163452
1761399801874348300,12.657348388671876,0.10220248252153397,-8.998906135559082,-2.5351603031158447
1761399801884429600,12.6674296875,0.7261912822723389,-9.171587944030762,-1.231667160987854
1761399801894510600,12.677510498046875,0.3853168487548828,-10.120514869689941,0.041299980133771896
1761399801904592000,12.687591796875,-0.1999906599521637,-11.251700401306152,0.276754766702652
1761399801914639000,12.69763916015625,-1.115623116493225,-11.56668758392334,-0.7818564772605896
1761399801924728600,12.707728515625,-1.856628656387329,-10.693327903747559,-1.8567034006118774
1761399801934809000,12.71780908203125,-2.1530606746673584,-9.807547569274902,-2.3499836921691895
1761399801944889000,12.72788916015625,-2.651428699493408,-9.113004684448242,-2.8826937675476074
1761399801954996700,12.737996826171875,-3.0649523735046387,-8.563385963439941,-3.4257285594940186
1761399801965077500,12.748077392578125,-2.951826333999634,-8.029179573059082,-3.833266496658325
1761399801975156500,12.758156494140625,-2.400860548019409,-7.574206829071045,-4.248960018157959
1761399801985227000,12.76822705078125,-1.8976292610168457,-7.294833183288574,-4.228459358215332
1761399801995320300,12.7783203125,-1.5816694498062134,-7.410877227783203,-4.11787748336792
1761399802005389600,12.7883896484375,-1.3429226875305176,-7.741875648498535,-4.0761284828186035
1761399802015470800,12.798470947265624,-1.1274445056915283,-8.196249961853027,-4.018068790435791
1761399802025549300,12.80854931640625,-0.870067834854126,-8.582465171813965,-3.941155195236206
1761399802035643400,12.818643310546875,-0.5481973886489868,-8.798017501831055,-3.856684923171997
1761399802045712600,12.828712646484375,-0.28797757625579834,-8.849642753601074,-3.8068554401397705
1761399802055806500,12.838806396484374,-0.6228665113449097,-8.79465103149414,-3.7672016620635986
1761399802065880300,12.84888037109375,-0.9801263213157654,-8.6851167678833,-3.9363667964935303
1761399802075968300,12.85896826171875,-1.1581202745437622,-8.426841735839844,-4.206612586975098
1761399802086049800,12.8690498046875,-1.0429741144180298,-8.050802230834961,-4.446780681610107
1761399802096119600,12.87911962890625,-0.7990648150444031,-7.814001083374023,-4.796034812927246
1761399802106209500,12.88920947265625,-0.7527520060539246,-7.642366409301758,-5.084237098693848
1761399802116292600,12.899292724609374,-0.3399018347263336,-7.721150875091553,-4.924349308013916
1761399802126373400,12.909373291015624,-0.3506008982658386,-8.146719932556152,-4.768800735473633
1761399802136438500,12.9194384765625,-0.48624739050865173,-8.3399019241333,-4.020912170410156
1761399802156614100,12.9396142578125,-0.6636427640914917,-8.095993041992188,-3.0482676029205322
1761399802166672000,12.949671875,-0.5055506229400635,-8.315436363220215,-3.004723072052002
1761399802176755000,12.9597548828125,-0.4049193561077118,-8.820313453674316,-3.1856350898742676
