time,seconds_elapsed,z,y,x
1761400324882803200,0.11680322265625,0.016008079051971436,0.035724639892578125,0.3713405132293701
1761400324902937600,0.1369375,0.11459839344024658,-0.050273895263671875,0.3631545305252075
1761400324923123700,0.157123779296875,0.1517229676246643,-0.05414772033691406,0.32264602184295654
1761400324943287600,0.17728759765625,0.11252838373184204,-0.05209922790527344,0.2796849012374878
1761400324963449900,0.197449951171875,0.16548669338226318,0.0490570068359375,0.39869165420532227
1761400324983597800,0.217597900390625,0.10714471340179443,0.03346443176269531,0.2189784049987793
1761400325003749400,0.237749267578125,0.13587969541549683,0.043071746826171875,0.32733702659606934
1761400325023924200,0.25792431640625,0.14104294776916504,0.020699501037597656,0.39292848110198975
1761400325044086300,0.278086181640625,0.1628514528274536,0.02027130126953125,0.4488704204559326
1761400325064261600,0.29826171875,0.23569363355636597,-0.014920234680175781,0.45775163173675537
1761400325084428300,0.31842822265625,0.24029481410980225,-0.04735851287841797,0.4309927225112915
1761400325104586500,0.33858642578125,0.2458897829055786,-0.0026350021362304688,0.3405110836029053
1761400325124748800,0.358748779296875,0.26195597648620605,0.1376800537109375,0.2706211805343628
1761400325144898800,0.37889892578125,0.25819826126098633,0.2400503158569336,0.2700834274291992
1761400325165061000,0.39906103515625,0.2853337526321411,0.33716487884521484,0.2881358861923218
1761400325185236500,0.419236572265625,0.36256492137908936,0.53839111328125,0.33497750759124756
1761400325205398800,0.439398681640625,0.539359450340271,0.7446088790893555,0.2749384641647339
1761400325225559000,0.45955908203125,0.7493705153465271,0.6017827987670898,0.10182106494903564
1761400325245724400,0.479724365234375,1.0513219833374023,0.4927511215209961,0.25448477268218994
1761400325265886000,0.499885986328125,1.1262966394424438,1.2164688110351562,0.7782406806945801
1761400325286043100,0.520043212890625,-0.12926089763641357,3.023691177368164,1.1495046615600586
1761400325306197800,0.54019775390625,-0.20660102367401123,4.034891605377197,1.166406273841858
1761400325326373000,0.560373046875,2.794818878173828,4.258449077606201,1.7491858005523682
1761400325346535400,0.580535400390625,3.1098556518554688,2.447145462036133,2.650242805480957
1761400325366696000,0.600696044921875,-1.1689409017562866,1.043135166168213,-1.0649595260620117
1761400325386847500,0.620847412109375,-4.276425361633301,2.750094413757324,-0.5935204029083252
1761400325407016400,0.641016357421875,-3.1799285411834717,2.0308666229248047,2.4323461055755615
1761400325427183000,0.66118310546875,0.7464313507080078,0.5161809921264648,2.83070969581604
1761400325447334700,0.681334716796875,1.2745964527130127,-0.5767621994018555,0.7052555084228516
1761400325467509800,0.701509765625,1.2575149536132812,-1.4805874824523926,-0.3889956474304199
1761400325487666400,0.72166650390625,-0.7507636547088623,0.3213529586791992,-0.41565704345703125
1761400325507831600,0.74183154296875,1.1347076892852783,0.3697223663330078,-1.9904112815856934
1761400325527997000,0.761996826171875,1.279686450958252,-4.188116073608398,-3.6599082946777344
1761400325548136400,0.782136474609375,2.6390438079833984,-8.047399520874023,-6.778417587280273
1761400325568308700,0.802308837890625,4.278526306152344,-9.433433532714844,-8.377860069274902
1761400325588484000,0.822484130859375,6.429692268371582,-12.526830673217773,-11.740450859069824
1761400325608646100,0.842646240234375,6.740260124206543,-16.741472244262695,-12.147906303405762
1761400325628808700,0.86280859375,3.763434886932373,-16.00104522705078,-8.19780445098877
1761400325648973000,0.88297314453125,0.9636938571929932,-12.807658195495605,-2.745950222015381
1761400325669133800,0.9031337890625,-1.790777325630188,-10.529668807983398,0.3122706413269043
1761400325689309400,0.923309326171875,0.7594715356826782,-10.043676376342773,0.9309110641479492
1761400325709463800,0.9434638671875,7.102196216583252,-6.158625602722168,-3.0451409816741943
1761400325729611300,0.963611328125,4.955225467681885,4.413467884063721,-0.5317554473876953
1761400325749770800,0.983770751953125,-3.2062549591064453,4.27031135559082,0.9360381364822388
1761400325769945900,1.00394580078125,-2.925138235092163,8.0518159866333,1.788712978363037
1761400325790107600,1.024107666015625,2.2521727085113525,15.335151672363281,3.7043423652648926
1761400325810268400,1.044268310546875,-3.6133787631988525,7.715899467468262,8.084665298461914
1761400325830420700,1.064420654296875,-3.496183156967163,5.688180446624756,9.005903244018555
1761400325850580500,1.08458056640625,-4.980423927307129,7.801406383514404,10.055347442626953
1761400325870746400,1.104746337890625,-9.725910186767578,6.042182922363281,6.175994396209717
1761400325890887400,1.124887451171875,-5.697015285491943,6.540756702423096,1.8140616416931152
1761400325911082500,1.14508251953125,-4.563924312591553,9.177103042602539,0.4671592712402344
1761400325931235800,1.16523583984375,-6.705571174621582,11.655689239501953,5.552559852600098
1761400325951406800,1.18540673828125,-6.054367542266846,10.6078519821167,7.145354270935059
1761400325971558000,1.205557861328125,-4.805244445800781,8.888134002685547,6.434072971343994
1761400325991719200,1.22571923828125,-4.323735237121582,8.47056770324707,5.715946674346924
1761400326011889700,1.2458896484375,-4.360469818115234,8.850321769714355,4.681587219238281
1761400326032056600,1.266056640625,-3.9196221828460693,9.043404579162598,3.635701894760132
1761400326052193500,1.286193603515625,-1.772417664527893,10.286446571350098,3.787684440612793
1761400326072355800,1.30635595703125,-1.3710145950317383,9.75767993927002,4.115418434143066
1761400326092512500,1.326512451171875,-1.263366937637329,8.0197172164917,2.972144842147827
1761400326112690000,1.34668994140625,0.09223264455795288,6.2946624755859375,0.9816322326660156
1761400326132867000,1.3668671875,3.1006555557250977,2.9376726150512695,0.5767823457717896
1761400326153031000,1.387031005859375,4.103232383728027,0.3412656784057617,-2.9846789836883545
1761400326173193000,1.40719287109375,18.560604095458984,-9.059856414794922,-12.077781677246094
1761400326193339000,1.4273388671875,4.490338325500488,-26.538738250732422,8.940321922302246
1761400326213518000,1.44751806640625,-19.60442352294922,-17.539691925048828,6.550153732299805
1761400326233669600,1.467669677734375,-1.8091280460357666,-15.638628005981445,-18.35270118713379
1761400326253842400,1.487842529296875,4.0157318115234375,-11.831326484680176,-9.218282699584961
1761400326273994000,1.507993896484375,5.599929332733154,-24.761125564575195,-12.910087585449219
1761400326294155000,1.528155029296875,6.480964660644531,-23.31124496459961,-18.539684295654297
1761400326314329900,1.548329833984375,7.1145524978637695,-18.570049285888672,-13.032509803771973
1761400326334485500,1.568485595703125,2.492640972137451,-16.968692779541016,-5.9733991622924805
1761400326354654700,1.58865478515625,2.8662655353546143,-16.717025756835938,-3.007568836212158
1761400326374804200,1.60880419921875,6.709658145904541,-12.720836639404297,-6.152442455291748
1761400326394977500,1.6289775390625,7.526752948760986,0.2986259460449219,-9.519789695739746
1761400326415129000,1.649129150390625,1.8528125286102295,7.369023323059082,-5.533409118652344
1761400326435278800,1.66927880859375,0.10602885484695435,8.663509368896484,-0.7820332050323486
1761400326455466200,1.68946630859375,1.8975554704666138,8.716689109802246,1.4016673564910889
1761400326475627000,1.709626953125,-4.361896514892578,9.417356491088867,10.989951133728027
1761400326495778300,1.7297783203125,-1.9937646389007568,6.925607681274414,16.111623764038086
1761400326515951900,1.749951904296875,-3.327927827835083,3.4711127281188965,15.031150817871094
1761400326536116200,1.7701162109375,-5.7082037925720215,2.91605806350708,11.807476043701172
1761400326556270600,1.7902705078125,-11.016826629638672,6.864006042480469,3.932157516479492
1761400326576438500,1.8104384765625,-13.767068862915039,12.865269660949707,0.16903018951416016
1761400326596603400,1.830603271484375,-8.763364791870117,13.090669631958008,-1.3406333923339844
1761400326616752600,1.850752685546875,-7.951371192932129,8.885805130004883,5.549192905426025
1761400326636926500,1.870926513671875,-7.73560094833374,8.38163948059082,10.590986251831055
1761400326657086500,1.89108642578125,-6.069506645202637,7.914515495300293,11.364609718322754
1761400326677261000,1.911260986328125,-4.713663578033447,7.903136730194092,9.269638061523438
1761400326697417500,1.93141748046875,-4.171098232269287,8.175484657287598,5.743755340576172
1761400326717567200,1.951567138671875,-4.144897937774658,8.35923957824707,2.4506313800811768
1761400326737727000,1.97172705078125,-4.709316253662109,8.286945343017578,0.04540252685546875
1761400326757889300,1.99188916015625,-4.198577404022217,8.507078170776367,0.3587784767150879
1761400326778064600,2.012064697265625,-2.5301623344421387,6.831428050994873,2.4609720706939697
1761400326798210600,2.03221044921875,-2.604091167449951,3.8369998931884766,2.6760549545288086
1761400326818375200,2.052375244140625,-2.141913652420044,2.156494140625,5.834489822387695
1761400326838549800,2.0725498046875,2.49992299079895,1.303396224975586,1.6377036571502686
1761400326858714000,2.092714111328125,29.153989791870117,2.4306421279907227,-5.15765380859375
1761400326878855000,2.11285498046875,-2.5834758281707764,1.0940170288085938,16.643600463867188
1761400326899036700,2.13303662109375,-25.763811111450195,-3.839524269104004,12.354894638061523
1761400326919201300,2.153201171875,27.99553680419922,-20.340423583984375,-0.4215202331542969
1761400326939357000,2.17335693359375,-1.5919069051742554,-33.76814651489258,-27.735137939453125
1761400326959524000,2.193524169921875,6.407045364379883,-40.22734451293945,-43.192344665527344
1761400326979676700,2.2136767578125,2.3260061740875244,-14.117532730102539,-3.4831132888793945
1761400326999846700,2.2338466796875,2.240434408187866,-8.226680755615234,7.362400054931641
1761400327020001000,2.2540009765625,0.9069795608520508,-13.213138580322266,7.998203277587891
1761400327040184000,2.27418408203125,3.2947988510131836,-17.53533172607422,-5.445540904998779
1761400327060315600,2.294315673828125,-0.06244504451751709,-14.168737411499023,-19.974807739257812
1761400327080490500,2.314490478515625,1.3766251802444458,-6.556815147399902,-10.863245964050293
1761400327100637400,2.334637451171875,-2.1317248344421387,-7.724510192871094,-3.244816303253174
1761400327120800000,2.354800048828125,5.836308002471924,-5.606108665466309,-1.1004862785339355
1761400327140962000,2.374962158203125,16.502031326293945,-9.32451343536377,-5.09411096572876
1761400327161132000,2.395132080078125,7.832453727722168,-1.384878158569336,-8.790095329284668
1761400327181293300,2.415293212890625,0.2807435095310211,4.81821870803833,-8.733817100524902
1761400327201462800,2.435462890625,-1.0658693313598633,8.178831100463867,-0.7391278743743896
1761400327221622000,2.4556220703125,3.0948305130004883,15.274402618408203,11.5873441696167
1761400327241787100,2.475787109375,2.602078914642334,11.815361976623535,13.719696998596191
1761400327261961500,2.49596142578125,0.5745317935943604,7.215855598449707,12.356162071228027
1761400327282122500,2.51612255859375,-8.724374771118164,3.6435890197753906,5.738283157348633
1761400327302273800,2.536273681640625,-12.964414596557617,4.110079765319824,2.32265043258667
1761400327322443500,2.556443603515625,-8.428125381469727,9.003177642822266,-1.385301113128662
1761400327342611000,2.57661083984375,-8.18793773651123,17.520050048828125,0.9798598289489746
1761400327362763000,2.596762939453125,-7.119342803955078,11.88685131072998,5.959847450256348
1761400327382935800,2.616935791015625,-7.6998491287231445,10.431851387023926,6.574350357055664
1761400327403085600,2.63708544921875,-6.283663749694824,10.590001106262207,6.377060890197754
1761400327423249000,2.657248779296875,-5.551425933837891,8.817926406860352,6.49556827545166
1761400327443423000,2.677423095703125,-4.9672956466674805,7.627059459686279,6.125953674316406
1761400327463585500,2.69758544921875,-4.018781661987305,7.931828022003174,6.0332441329956055
1761400327483721200,2.71772119140625,-3.2930097579956055,7.814562797546387,5.699014663696289
1761400327503910000,2.737909912109375,-2.0386908054351807,7.144063949584961,4.494603157043457
1761400327524072200,2.758072265625,-0.21920382976531982,6.400616645812988,2.108280658721924
1761400327544233000,2.77823291015625,2.186394691467285,6.899640083312988,-2.3228795528411865
1761400327564385500,2.798385498046875,4.7267632484436035,7.4947662353515625,-5.765320301055908
1761400327584560600,2.818560546875,11.6191987991333,5.617542743682861,-14.590632438659668
1761400327604722000,2.838721923828125,9.792070388793945,-1.8531293869018555,-22.366249084472656
1761400327624884700,2.858884765625,5.840524673461914,-17.509994506835938,-3.121396541595459
1761400327645047000,2.879047119140625,-13.09483528137207,-26.022777557373047,4.862115859985352
1761400327665199600,2.89919970703125,9.590543746948242,-28.877952575683594,1.5252723693847656
1761400327685346300,2.91934619140625,-3.1445424556732178,-12.288512229919434,-8.724011421203613
1761400327705509400,2.93950927734375,-0.5277118682861328,-17.02448272705078,-8.68913745880127
1761400327725687800,2.959687744140625,2.555818796157837,-21.875720977783203,-7.158445358276367
1761400327745858600,2.979858642578125,3.327570676803589,-23.197011947631836,-8.79374885559082
1761400327765979400,2.9999794921875,2.8574256896972656,-22.173389434814453,-5.468308925628662
1761400327786183200,3.02018310546875,1.3607215881347656,-19.587921142578125,-0.5074067115783691
1761400327806346200,3.04034619140625,0.21463775634765625,-17.592567443847656,-1.812651515007019
1761400327826483000,3.06048291015625,1.6162189245224,-10.844888687133789,-4.7490363121032715
1761400327846646500,3.080646484375,7.627690315246582,-2.0142641067504883,-6.403363227844238
1761400327866807800,3.100807861328125,12.300958633422852,5.351195812225342,-9.642131805419922
1761400327886996000,3.120995849609375,6.753849029541016,7.127727508544922,-11.58020305633545
1761400327907132700,3.141132568359375,-0.1807267665863037,8.209144592285156,-7.481319904327393
1761400327927320000,3.161320068359375,0.7257968187332153,13.110532760620117,1.2307806015014648
1761400327947481900,3.18148193359375,-1.6547424793243408,12.728147506713867,7.7147746086120605
1761400327967644700,3.201644775390625,-0.9693593978881836,10.18674373626709,7.323862552642822
1761400327987786500,3.221786376953125,-2.3178727626800537,6.867098331451416,7.870850086212158
1761400328007970600,3.241970458984375,-15.292366027832031,3.808290958404541,5.574161052703857
1761400328028128300,3.262128173828125,-13.749841690063477,3.980660915374756,3.093506336212158
1761400328048290000,3.2822900390625,-8.056265830993652,7.23408842086792,6.902379512786865
1761400328068456200,3.302456298828125,-8.457379341125488,9.87702751159668,7.774184226989746
1761400328088595000,3.322594970703125,-6.035114288330078,9.735472679138184,5.868112564086914
1761400328108781600,3.342781494140625,-4.297818660736084,9.40294075012207,3.878634452819824
1761400328128943400,3.362943359375,-3.7464382648468018,9.323347091674805,2.9294371604919434
1761400328149080800,3.383080810546875,-3.7503058910369873,9.841476440429688,2.716622829437256
1761400328169256400,3.40325634765625,-2.377739429473877,10.939336776733398,2.825119733810425
1761400328189431000,3.42343115234375,-1.1744556427001953,11.327484130859375,3.0136356353759766
1761400328209593000,3.443593017578125,-0.9310370683670044,9.137299537658691,1.0394058227539062
1761400328229756000,3.463755859375,0.024825096130371094,7.1583991050720215,-3.5647644996643066
1761400328249918000,3.48391796875,0.08938539028167725,6.797947406768799,-6.38981819152832
1761400328270080000,3.504080078125,1.9284892082214355,4.687255859375,-4.311695575714111
1761400328290232600,3.524232666015625,1.8783586025238037,3.868485927581787,-4.248394966125488
1761400328310402800,3.54440283203125,-0.7987082004547119,5.697022438049316,-8.100946426391602
1761400328330554400,3.564554443359375,18.336843490600586,3.327272415161133,-2.7540502548217773
1761400328350726700,3.5847265625,-11.217535972595215,-8.803462028503418,9.041847229003906
1761400328370888200,3.60488818359375,-17.640913009643555,-31.233325958251953,15.30767822265625
1761400328391054300,3.625054443359375,10.078575134277344,-35.98124313354492,-17.171707153320312
1761400328411191800,3.64519189453125,3.869443416595459,-29.045434951782227,-16.661787033081055
1761400328431379500,3.66537939453125,2.9493215084075928,-18.319580078125,0.603973388671875
1761400328451541800,3.685541748046875,1.386648416519165,-14.268453598022461,5.380882740020752
1761400328471692000,3.705692138671875,0.9467325210571289,-21.552560806274414,2.076038360595703
1761400328491866400,3.725866455078125,-0.818722128868103,-25.532207489013672,-4.371885776519775
1761400328512030000,3.746030029296875,3.780639171600342,-25.84815216064453,-9.563340187072754
1761400328532191000,3.76619091796875,2.9504237174987793,-17.38397216796875,-10.344586372375488
1761400328552327700,3.78632763671875,-0.44434237480163574,-2.5852832794189453,-5.376274585723877
1761400328572515800,3.806515869140625,4.989846229553223,5.311734199523926,-0.6365764141082764
1761400328592658400,3.826658447265625,6.080220699310303,7.024049758911133,0.24763286113739014
1761400328612840700,3.8468408203125,5.274893760681152,6.297657489776611,-1.577627420425415
1761400328633001000,3.8670009765625,-0.4824216365814209,5.3432817459106445,-1.8727757930755615
1761400328653159200,3.8871591796875,-3.8845486640930176,10.414716720581055,3.5071825981140137
1761400328673327600,3.90732763671875,0.5105645656585693,10.894901275634766,11.601850509643555
1761400328693477600,3.9274775390625,1.1152241230010986,8.820693969726562,12.752326965332031
1761400328713652500,3.947652587890625,-5.426873207092285,5.2975921630859375,10.406583786010742
1761400328733802200,3.96780224609375,-18.226154327392578,0.9786148071289062,7.621854782104492
1761400328753956400,3.987956298828125,-9.363326072692871,0.2290205955505371,3.2154784202575684
1761400328774139600,4.0081396484375,-6.796441555023193,6.443691253662109,6.287132263183594
1761400328794301700,4.0283017578125,-9.176431655883789,12.653185844421387,11.17212963104248
1761400328814466000,4.048466064453125,-6.1179351806640625,13.549083709716797,10.882364273071289
1761400328834626800,4.068626708984375,-4.525315761566162,11.463764190673828,8.133262634277344
1761400328854781200,4.08878125,-4.451240539550781,8.545804977416992,6.421350002288818
1761400328874951700,4.10895166015625,-3.897904872894287,7.4935808181762695,6.077269077301025
1761400328895101200,4.12910107421875,-3.6492061614990234,6.7988505363464355,6.082194805145264
1761400328915263200,4.14926318359375,-2.7951717376708984,5.517672538757324,6.1605634689331055
1761400328935426600,4.169426513671875,-1.3044259548187256,4.01956033706665,5.614636421203613
1761400328955586000,4.1895859375,0.7703516483306885,3.709540367126465,2.977597236633301
1761400328975763500,4.209763427734375,0.6389214992523193,5.9836602210998535,0.39379405975341797
1761400328995932200,4.22993212890625,3.7401845455169678,6.594576835632324,-1.3805232048034668
1761400329016085800,4.250085693359375,3.4807496070861816,6.7521772384643555,-7.128237247467041
1761400329036240100,4.270240234375,6.4387383460998535,5.617156505584717,-12.080307960510254
1761400329056412700,4.29041259765625,12.665143013000488,-5.496419906616211,2.743196487426758
1761400329076573000,4.310572998046875,-16.502046585083008,-19.270565032958984,8.343578338623047
1761400329096737800,4.33073779296875,-2.373448371887207,-49.01304626464844,3.8324832916259766
1761400329116899600,4.350899658203125,9.929048538208008,-23.17943000793457,-20.51898956298828
1761400329137044700,4.371044677734375,-0.9936354160308838,-21.04192352294922,3.3733906745910645
1761400329157199400,4.391199462890625,-0.7150026559829712,-17.867027282714844,8.033279418945312
1761400329177364200,4.4113642578125,-0.9808840751647949,-26.15516471862793,2.8556761741638184
1761400329197524200,4.431524169921875,3.9319450855255127,-28.04652976989746,-3.034698486328125
1761400329217695700,4.45169580078125,2.8634228706359863,-23.295013427734375,-3.2276229858398438
1761400329237866000,4.471865966796875,-0.5390658378601074,-17.506423950195312,-3.1280040740966797
1761400329258036500,4.492036376953125,-2.3734002113342285,-6.973320007324219,-3.9065399169921875
1761400329278186000,4.51218603515625,2.7432196140289307,1.7146286964416504,-3.3099582195281982
1761400329298361300,4.532361328125,13.4243803024292,6.019543170928955,-4.790901184082031
1761400329318498300,4.552498291015625,6.846545696258545,4.618618488311768,-10.106806755065918
1761400329338685700,4.572685791015625,-6.531815528869629,3.2014622688293457,-8.399007797241211
1761400329358837500,4.59283740234375,-1.5241563320159912,6.426004409790039,0.7315945625305176
1761400329379010600,4.613010498046875,3.75171160697937,11.117566108703613,13.843791961669922
1761400329399170800,4.6331708984375,2.6216113567352295,9.119011878967285,17.8999080657959
1761400329419322600,4.653322509765625,-12.169882774353027,4.263792991638184,15.669706344604492
1761400329439497500,4.67349755859375,-15.355366706848145,2.454118490219116,14.228923797607422
1761400329459656700,4.69365673828125,-5.896350860595703,3.483402967453003,8.601486206054688
1761400329479809800,4.713809814453125,-7.336474418640137,6.316870212554932,9.080780029296875
1761400329499980300,4.733980224609375,-3.5339865684509277,9.201845169067383,9.89510726928711
1761400329520132600,4.754132568359375,-3.6201605796813965,9.891648292541504,9.8908052444458
1761400329540309200,4.774309326171875,-3.654432535171509,8.909208297729492,8.527915000915527
1761400329560471800,4.794471923828125,-3.751063346862793,8.170721054077148,7.189196586608887
1761400329580622000,4.8146220703125,-3.5130295753479004,8.744976043701172,6.769992828369141
1761400329600771600,4.834771484375,-3.1937594413757324,9.168083190917969,6.062075614929199
1761400329620959700,4.854959716796875,-2.574075222015381,8.111047744750977,4.884544372558594
1761400329641108500,4.8751083984375,-2.0137643814086914,6.57866907119751,2.67753529548645
1761400329661283600,4.89528369140625,-1.7639228105545044,5.522702693939209,-1.6482949256896973
1761400329681434400,4.915434326171875,1.7635679244995117,4.912297248840332,-1.0706021785736084
1761400329701608700,4.935608642578125,2.0445327758789062,2.9237585067749023,-3.2471835613250732
1761400329721755600,4.955755615234375,-0.8246490955352783,3.26104736328125,-7.093989849090576
1761400329741920800,4.975920654296875,16.578466415405273,5.144700050354004,-5.063716411590576
1761400329762095600,4.996095703125,1.1583755016326904,-4.288691520690918,7.879082679748535
1761400329782233900,5.01623388671875,-14.996050834655762,-18.713714599609375,15.269319534301758
1761400329802420200,5.036420166015625,-6.207465171813965,-40.042144775390625,3.341036319732666
1761400329822582300,5.056582275390625,9.037872314453125,-33.45145797729492,-35.875633239746094
1761400329842741800,5.07674169921875,-1.201707363128662,-20.273590087890625,-3.078097343444824
1761400329862893000,5.09689306640625,-1.3594000339508057,-16.894742965698242,6.230226039886475
1761400329883069700,5.117069580078125,-1.664583683013916,-23.45073127746582,3.569377899169922
1761400329903210500,5.13721044921875,-1.7302316427230835,-25.473848342895508,-2.1498680114746094
1761400329923394600,5.15739453125,2.1684746742248535,-24.772724151611328,-6.887778282165527
1761400329943556900,5.177556884765625,3.037019729614258,-17.91064453125,-8.04730224609375
1761400329963710000,5.1977099609375,0.7282464504241943,-4.274029731750488,-2.6593704223632812
1761400329983855600,5.217855712890625,7.415226459503174,3.8657522201538086,1.4045913219451904
1761400330004043800,5.238043701171875,4.2045578956604,5.571804046630859,-0.5018537044525146
1761400330024205300,5.258205322265625,-0.43732357025146484,5.283530235290527,-6.698374271392822
1761400330044366600,5.27836669921875,-2.9739975929260254,4.35497522354126,-6.437232494354248
1761400330064530700,5.29853076171875,-5.12974739074707,7.760968208312988,6.400832653045654
1761400330084693500,5.318693603515625,-3.2086410522460938,9.50890827178955,14.149847030639648
1761400330104854000,5.33885400390625,-1.5551061630249023,6.436102867126465,14.229055404663086
1761400330125017300,5.359017333984375,-12.543706893920898,2.9146509170532227,10.851341247558594
1761400330145180700,5.3791806640625,-20.93609046936035,-1.029043197631836,9.002082824707031
1761400330165343200,5.39934326171875,-7.247307300567627,-1.5811209678649902,2.3172788619995117
1761400330185480000,5.41947998046875,-8.447592735290527,3.7966041564941406,6.12381649017334
1761400330205642200,5.439642333984375,-9.649847030639648,9.437199592590332,13.274393081665039
1761400330225803300,5.45980322265625,-8.759857177734375,9.064079284667969,11.73169994354248
1761400330245955000,5.479955078125,-8.471968650817871,6.693888187408447,9.149029731750488
1761400330266138400,5.500138427734375,-8.888614654541016,4.847891807556152,7.925471782684326
1761400330286316800,5.52031689453125,-8.818029403686523,4.442913055419922,7.014553546905518
1761400330306479400,5.540479248046875,-8.21099853515625,4.321331977844238,6.457601547241211
1761400330326663400,5.560663330078125,-6.740962982177734,3.9593887329101562,5.968572616577148
1761400330346803700,5.5808037109375,-4.5759758949279785,3.1967673301696777,3.1401073932647705
1761400330366959000,5.600958984375,-3.331678628921509,4.713764190673828,-3.2393412590026855
1761400330387128300,5.62112841796875,0.23116445541381836,6.111976623535156,-5.7248735427856445
1761400330407265500,5.641265625,-3.8785641193389893,1.583143711090088,-9.088189125061035
1761400330427453400,5.661453369140625,-4.218789100646973,1.8054594993591309,-7.862850666046143
1761400330447590700,5.681590576171875,14.529037475585938,3.650810480117798,-3.3331351280212402
1761400330467778600,5.701778564453125,-11.414283752441406,-8.78951644897461,7.741163730621338
1761400330487940600,5.721940673828125,-19.489774703979492,-44.20225524902344,19.61025619506836
1761400330508091100,5.742091064453125,9.565982818603516,-37.91197204589844,-27.706554412841797
1761400330528265200,5.76226513671875,1.5469856262207031,-25.005985260009766,-7.007862567901611
1761400330548423700,5.782423583984375,-4.2764692306518555,-14.22409725189209,8.630433082580566
1761400330568590300,5.80259033203125,-6.969570159912109,-19.95001220703125,10.872976303100586
1761400330588726800,5.822726806640625,-7.081164836883545,-31.412418365478516,-4.941238880157471
1761400330608910800,5.842910888671875,-2.9534859657287598,-31.90833854675293,-16.78634262084961
1761400330629077200,5.8630771484375,-3.5263407230377197,-21.928749084472656,-9.491059303283691
1761400330649239300,5.8832392578125,-8.018125534057617,-11.469247817993164,-1.2966923713684082
1761400330669401300,5.9034013671875,-11.73971939086914,-3.929166793823242,4.52099084854126
1761400330689564000,5.92356396484375,9.165563583374023,1.491257667541504,11.131221771240234
1761400330709726000,5.943725830078125,11.906704902648926,2.254794120788574,2.416649103164673
1761400330729888500,5.963888427734375,-7.743534088134766,2.5335798263549805,-8.074116706848145
1761400330750050800,5.98405078125,-10.942588806152344,5.257713794708252,-18.47471809387207
1761400330770236000,6.00423583984375,0.694066047668457,12.638233184814453,-1.0907034873962402
1761400330790375700,6.024375732421875,-3.656008243560791,9.5292329788208,11.363298416137695
1761400330810538800,6.044538818359375,-1.3551826477050781,3.6414895057678223,13.318971633911133
1761400330830701600,6.06470166015625,-13.27362060546875,0.18712759017944336,11.721795082092285
1761400330850837800,6.084837646484375,-22.715877532958984,-3.373208522796631,15.598230361938477
1761400330871016700,6.1050166015625,-9.447547912597656,-0.2240462303161621,5.302701473236084
1761400330891187700,6.125187744140625,-8.422452926635742,7.28487491607666,3.781559467315674
1761400330911349800,6.145349853515625,-9.902610778808594,9.764368057250977,8.422588348388672
1761400330931508000,6.165508056640625,-10.397153854370117,7.950314998626709,9.47646713256836
1761400330951675600,6.185675537109375,-10.273232460021973,6.417630195617676,7.962921142578125
1761400330971836700,6.205836669921875,-9.861885070800781,5.456398963928223,5.750051975250244
1761400330991999200,6.225999267578125,-9.109707832336426,5.350249290466309,4.391476631164551
1761400331012137500,6.246137451171875,-7.138181209564209,5.722586154937744,3.9424264430999756
1761400331032324000,6.266323974609375,-6.761745929718018,5.062007904052734,3.602173328399658
1761400331052487200,6.286487060546875,-5.622245788574219,4.004079341888428,0.3761693239212036
1761400331072649200,6.306649169921875,-0.4205136299133301,1.2576684951782227,-6.130216121673584
1761400331092811300,6.326811279296875,-0.5951132774353027,-1.3551898002624512,-17.616676330566406
1761400331112973800,6.346973876953125,-2.9204955101013184,-0.3388943672180176,-20.927658081054688
1761400331133140500,6.367140380859375,0.14865398406982422,2.602243423461914,-9.184449195861816
1761400331153298200,6.387298095703125,2.471360206604004,-2.8249120712280273,5.213449478149414
1761400331173460500,6.40746044921875,-15.166102409362793,-12.249238967895508,9.98489761352539
1761400331193582800,6.427582763671875,-29.796058654785156,-44.82394027709961,11.434259414672852
1761400331213786000,6.4477861328125,16.342580795288086,-39.59638214111328,-43.24464416503906
1761400331233948200,6.4679482421875,-8.324938774108887,-23.632259368896484,-1.969433069229126
1761400331254107100,6.488107177734375,-8.644356727600098,-18.92008399963379,10.504194259643555
1761400331274272500,6.5082724609375,-7.520216941833496,-26.328575134277344,7.328131675720215
1761400331294435000,6.52843505859375,-9.833255767822266,-29.01896095275879,-4.474057197570801
1761400331314596600,6.5485966796875,-7.26129150390625,-32.87876510620117,-15.925023078918457
1761400331334759700,6.568759765625,-9.040305137634277,-17.589740753173828,-11.189839363098145
1761400331354922200,6.588922119140625,-10.204170227050781,-4.601348876953125,-4.893979072570801
1761400331375044400,6.60904443359375,0.16138315200805664,4.304919242858887,1.2004705667495728
1761400331395231000,6.62923095703125,9.669464111328125,6.257649898529053,2.8290231227874756
1761400331415409000,6.649408935546875,5.12572717666626,0.4468660354614258,-7.304574489593506
1761400331435572200,6.669572265625,-9.243825912475586,0.09612655639648438,-8.284356117248535
1761400331455733800,6.689733642578125,-13.024699211120605,4.858408451080322,-10.036176681518555
1761400331475896600,6.709896484375,-5.4652814865112305,12.450544357299805,2.284552574157715
1761400331496058600,6.73005859375,1.7609434127807617,12.356685638427734,13.114763259887695
1761400331516200200,6.7502001953125,-2.1642818450927734,0.334744930267334,11.809045791625977
1761400331536382700,6.7703828125,-20.94027328491211,-3.645691394805908,6.280335426330566
1761400331556545300,6.790545166015625,-17.08026885986328,-0.590390682220459,7.223782062530518
1761400331576662500,6.81066259765625,-12.912466049194336,5.363506317138672,6.231878280639648
1761400331596870400,6.830870361328125,-10.822273254394531,17.388256072998047,9.045347213745117
1761400331617007000,6.851007080078125,-9.128278732299805,13.703604698181152,9.332134246826172
1761400331637194800,6.87119482421875,-10.39425277709961,6.330795764923096,5.135124206542969
1761400331657357000,6.891357177734375,-10.87057113647461,4.850612640380859,2.9654903411865234
1761400331677519400,6.911519287109375,-11.655272483825684,3.7568411827087402,1.7250148057937622
1761400331697682400,6.931682373046875,-9.74891471862793,1.6077170372009277,1.656150221824646
1761400331717844000,6.951843994140625,-5.130733013153076,-0.043169498443603516,1.835568904876709
1761400331738005000,6.9720048828125,-5.4560346603393555,-1.1558928489685059,2.22711181640625
1761400331758147800,6.99214794921875,-4.974160194396973,1.1101646423339844,3.7394320964813232
1761400331778309000,7.01230908203125,4.661228179931641,3.8497812747955322,1.4223778247833252
1761400331798473200,7.03247314453125,7.094465255737305,4.2347893714904785,-6.328505039215088
1761400331818656300,7.05265625,-1.0706768035888672,6.48103141784668,-12.21320915222168
1761400331838818600,7.072818603515625,3.925992965698242,3.9462294578552246,-5.266036510467529
1761400331858981000,7.092981201171875,-16.380420684814453,-7.242830753326416,8.829440116882324
1761400331879143400,7.113143310546875,-16.460918426513672,-16.73786163330078,7.755032539367676
1761400331899305200,7.13330517578125,-14.482126235961914,-47.933197021484375,-3.4954397678375244
1761400331919467500,7.153467529296875,-2.0832571983337402,-32.784873962402344,-37.15315246582031
1761400331939630000,7.173630126953125,-4.780529022216797,-22.460342407226562,-9.119986534118652
1761400331959788300,7.193788330078125,-7.399740695953369,-28.288339614868164,0.7876648902893066
1761400331979955500,7.21395556640625,-4.795196533203125,-27.495269775390625,-0.001520395278930664
1761400332000091100,7.234091064453125,-6.375701427459717,-23.120574951171875,-1.2064337730407715
1761400332020275700,7.254275634765625,-9.495659828186035,-21.293272018432617,-5.017338275909424
1761400332040416300,7.274416259765625,-7.506087779998779,-17.586978912353516,-11.321328163146973
1761400332060604200,7.294604248046875,-4.9177961349487305,-5.136666297912598,-10.997868537902832
1761400332080762600,7.3147626953125,1.600409984588623,4.153654098510742,-6.543298244476318
1761400332100903700,7.334903564453125,2.5991287231445312,6.020115852355957,-5.419807434082031
1761400332121091300,7.35509130859375,-4.656981468200684,5.863892555236816,-7.539373397827148
1761400332141254100,7.375254150390625,-2.9595541954040527,4.9778242111206055,-5.597617149353027
1761400332161390300,7.395390380859375,-6.396184921264648,7.095089912414551,3.2665770053863525
1761400332181578000,7.415577880859375,-7.982633113861084,7.705572605133057,11.551651954650879
1761400332201741000,7.435740966796875,-6.294672012329102,5.995484828948975,11.095046043395996
1761400332221903400,7.4559033203125,-4.356239318847656,2.3278307914733887,8.808791160583496
1761400332242065700,7.476065673828125,-13.740121841430664,-0.960202693939209,7.912383079528809
1761400332262227500,7.4962275390625,-17.815471649169922,-4.05417537689209,9.469709396362305
1761400332282402300,7.51640234375,-6.3562493324279785,-2.8928048610687256,5.382992744445801
1761400332302527000,7.53652685546875,-8.755915641784668,3.641352653503418,10.124893188476562
1761400332322691000,7.556691162109375,-9.32446575164795,6.112495422363281,12.339583396911621
1761400332342873300,7.576873291015625,-8.58207893371582,4.303341388702393,10.268653869628906
1761400332363039700,7.597039794921875,-8.642777442932129,2.7898244857788086,7.555506706237793
1761400332383202300,7.617202392578125,-8.95805835723877,2.651845932006836,6.181751251220703
1761400332403356000,7.63735595703125,-9.025798797607422,3.3865115642547607,5.327882766723633
1761400332423527200,7.657527099609375,-8.774282455444336,5.025834083557129,5.500452041625977
1761400332443689000,7.67768896484375,-8.333897590637207,6.702324390411377,5.92757511138916
1761400332463841300,7.69784130859375,-8.32197380065918,7.344015121459961,4.34928035736084
1761400332484013800,7.718013916015625,-6.7526044845581055,7.333128929138184,-1.38466215133667
1761400332504176400,7.73817626953125,-0.03324270248413086,5.264225006103516,-8.795768737792969
1761400332524338400,7.75833837890625,-2.9963018894195557,-0.13790130615234375,-15.164535522460938
1761400332544500700,7.778500732421875,-4.468717575073242,-5.144148349761963,-13.001497268676758
1761400332564663600,7.79866357421875,3.8434858322143555,-12.441434860229492,-0.36844396591186523
1761400332584825600,7.81882568359375,-17.09018325805664,-36.31038284301758,10.197809219360352
1761400332604986000,7.838986083984375,-0.13928556442260742,-43.063297271728516,-13.644172668457031
1761400332625150200,7.859150146484375,0.8761153221130371,-29.137643814086914,-6.890252590179443
1761400332645312500,7.8793125,-4.415679454803467,-25.87824821472168,10.411663055419922
1761400332665472300,7.89947216796875,-5.158455848693848,-27.478517532348633,9.692680358886719
1761400332685635600,7.919635498046875,-7.791275978088379,-31.957834243774414,-2.867033004760742
1761400332705799700,7.939799560546875,-7.366153717041016,-33.711421966552734,-10.819164276123047
1761400332725960000,7.9599599609375,-10.138707160949707,-20.313875198364258,-5.599685192108154
1761400332746111700,7.98011181640625,-12.35328483581543,-7.629416465759277,-1.66855788230896
1761400332766256600,8.000256591796875,-0.863797664642334,0.014347076416015625,-0.15511798858642578
1761400332786422500,8.020422607421875,17.218212127685547,1.209334373474121,-3.375046730041504
1761400332806611500,8.040611572265625,-0.8059234619140625,-2.982208728790283,-9.718877792358398
1761400332826753300,8.060753173828125,-11.655487060546875,-2.3319106101989746,-8.71945858001709
1761400332846934000,8.08093408203125,-11.546974182128906,7.379610538482666,2.26259183883667
1761400332867098600,8.1010986328125,5.042906761169434,15.96937370300293,17.09023666381836
1761400332887260700,8.1212607421875,-1.6833572387695312,8.18144416809082,18.681800842285156
1761400332907423200,8.14142333984375,-22.987655639648438,1.4773948192596436,10.753341674804688
1761400332927586800,8.1615869140625,-18.702903747558594,-1.542971134185791,9.631675720214844
1761400332947747600,8.18174755859375,-6.61239767074585,1.9016575813293457,7.174829006195068
1761400332967897900,8.20189794921875,-10.234042167663574,5.975986957550049,9.48559856414795
1761400332988071400,8.222071533203126,-8.487119674682617,6.0666399002075195,8.700961112976074
1761400333008235000,8.242235107421875,-8.380721092224121,4.564779281616211,7.135976314544678
1761400333028397000,8.26239697265625,-8.48282527923584,3.145840644836426,6.50236177444458
1761400333048547300,8.28254736328125,-8.079654693603516,2.3903188705444336,6.4394354820251465
1761400333068722000,8.302721923828125,-8.339942932128906,1.7888786792755127,5.50306510925293
1761400333088884200,8.32288427734375,-9.132999420166016,1.7533414363861084,4.223196029663086
1761400333109044700,8.343044677734374,-8.521581649780273,2.6433610916137695,4.162718296051025
1761400333129209300,8.363209228515625,-3.4058690071105957,5.135910511016846,4.422299385070801
1761400333149371600,8.38337158203125,3.748445510864258,5.181013107299805,-0.8292062282562256
1761400333169519000,8.40351904296875,0.808072566986084,5.273013114929199,-5.760011672973633
1761400333189696300,8.4236962890625,-3.6387038230895996,4.926856994628906,-7.420454978942871
1761400333209858300,8.4438583984375,-3.376803398132324,3.748286008834839,-4.7218523025512695
1761400333230021000,8.464021240234375,-2.3342676162719727,4.498699188232422,3.6028389930725098
1761400333250195700,8.48419580078125,-8.084799766540527,-0.5779604911804199,11.01645565032959
1761400333270345500,8.504345458984375,-15.526622772216797,-15.556499481201172,9.27804946899414
1761400333290497500,8.52449755859375,-19.24376106262207,-64.61389923095703,-12.186930656433105
1761400333310668300,8.544668212890626,11.81723403930664,-32.27985382080078,-37.40329360961914
1761400333330819600,8.564819580078124,-11.234021186828613,-15.062782287597656,0.7694916725158691
1761400333350994700,8.58499462890625,-9.5057954788208,-19.65142822265625,7.890268325805664
1761400333371146800,8.605146728515624,-10.797493934631348,-31.864139556884766,3.830258369445801
1761400333391306800,8.625306640625,-6.729051113128662,-28.03999900817871,-9.090625762939453
1761400333411481900,8.64548193359375,-2.085038185119629,-24.83501625061035,-17.965822219848633
1761400333431618800,8.665618896484375,-4.067496299743652,-12.72072982788086,-11.194942474365234
1761400333451782700,8.68578271484375,-7.470448970794678,-3.2620291709899902,-3.5679869651794434
1761400333471950600,8.70595068359375,-4.048347473144531,2.700268268585205,2.3939802646636963
1761400333492094500,8.726094482421875,7.81019401550293,4.236554145812988,7.367410182952881
1761400333512277500,8.746277587890624,-0.18709516525268555,2.0959486961364746,-0.1384892463684082
1761400333532456400,8.76645654296875,-9.686256408691406,2.9987239837646484,-9.630590438842773
1761400333552601300,8.786601318359375,-5.098026275634766,9.354839324951172,-5.20871639251709
1761400333572768300,8.806768310546875,-5.703436374664307,11.49013900756836,8.704283714294434
1761400333592943000,8.826943115234375,-3.626272678375244,7.594875335693359,10.783021926879883
1761400333613105700,8.847105712890626,-6.4572343826293945,2.32224178314209,10.600380897521973
1761400333633267500,8.867267333984374,-23.7132511138916,-4.100075721740723,9.260368347167969
1761400333653416000,8.887416015625,-11.043547630310059,-3.532650947570801,4.267901420593262
1761400333673592000,8.907592041015626,-7.2876667976379395,2.6340699195861816,6.221031665802002
1761400333693755000,8.9277548828125,-8.990840911865234,10.793455123901367,11.353540420532227
1761400333713904600,8.947904541015625,-8.63392448425293,9.984683990478516,10.489583969116211
1761400333734079500,8.96807958984375,-7.774851322174072,8.11688232421875,7.162001609802246
1761400333754240000,8.988239990234375,-8.299854278564453,5.420380115509033,5.430026054382324
1761400333774402300,9.00840234375,-7.990787506103516,4.8363518714904785,4.981201171875
1761400333789500400,9.02350048828125,-6.70436429977417,5.265150547027588,5.507688999176025
1761400333809662500,9.043662353515625,-5.944189071655273,5.96407413482666,5.981660842895508
1761400333829825800,9.06382568359375,-6.570344924926758,6.0945353507995605,5.474836349487305
1761400333849987600,9.083987548828125,-7.282771110534668,5.3716840744018555,2.5200462341308594
1761400333870175700,9.10417578125,-6.434812545776367,6.80263614654541,-2.7971854209899902
1761400333890337500,9.124337646484374,0.08794784545898438,5.301309585571289,-11.474980354309082
1761400333910499600,9.14449951171875,3.3975582122802734,3.2186288833618164,-18.508943557739258
1761400333930648000,9.16464794921875,-4.762864589691162,-1.0859870910644531,-19.85719871520996
1761400333950824400,9.184824462890624,0.6039104461669922,-8.763185501098633,-5.564403533935547
1761400333970986800,9.20498681640625,-12.568166732788086,-28.776601791381836,5.660214900970459
1761400333991149600,9.225149658203126,-10.401403427124023,-34.983341217041016,8.428544998168945
1761400334011312600,9.245312744140625,-4.2695465087890625,-18.801794052124023,-2.23138427734375
1761400334031431200,9.26543115234375,-8.74012565612793,-21.345666885375977,6.83878231048584
1761400334051662600,9.28566259765625,-7.320280075073242,-28.84201431274414,-3.7139334678649902
1761400334071794400,9.30579443359375,1.1518707275390625,-34.412532806396484,-15.543533325195312
1761400334091961600,9.325961669921876,-2.225252628326416,-33.993560791015625,-14.315722465515137
1761400334112124200,9.346124267578125,-5.582577228546143,-25.830726623535156,-5.9790496826171875
1761400334132281600,9.366281494140624,-6.913156509399414,-13.859992980957031,-1.4909107685089111
1761400334152414200,9.386414306640624,-8.15768814086914,-4.619224548339844,0.1662156581878662
1761400334172601000,9.40660107421875,-0.17069482803344727,3.0200271606445312,-2.8226921558380127
1761400334192793600,9.426793701171874,0.33405447006225586,3.940300464630127,-11.017909049987793
1761400334212910600,9.44691064453125,-5.0561442375183105,0.8054037094116211,-12.819547653198242
1761400334233097500,9.467097412109375,-6.431534290313721,4.350013732910156,-1.8235869407653809
1761400334253259800,9.487259765625,-4.734576225280762,13.347938537597656,12.308980941772461
1761400334273422600,9.507422607421875,-4.020623683929443,10.856605529785156,15.570697784423828
1761400334313721300,9.547721435546874,-8.310930252075195,1.038264274597168,8.166559219360352
1761400334333909200,9.5679091796875,-15.20136547088623,-5.243926048278809,7.677003860473633
1761400334354046500,9.58804638671875,-3.341003894805908,-4.005188941955566,-2.3317928314208984
1761400334374234600,9.608234619140624,-5.698719501495361,0.7681388854980469,5.639400482177734
1761400334394392300,9.628392333984374,-6.684948921203613,9.185373306274414,12.9083890914917
1761400334414558200,9.64855810546875,-7.302512168884277,10.300004959106445,14.825567245483398
1761400334434695400,9.6686953125,-6.985255718231201,7.945007801055908,11.380759239196777
1761400334454883300,9.68888330078125,-7.349562644958496,6.282436847686768,8.958744049072266
1761400334475046100,9.709046142578124,-7.144327163696289,5.846242904663086,7.8444929122924805
1761400334495182600,9.7291826171875,-6.410310745239258,6.279532432556152,7.615056037902832
1761400334515370800,9.749370849609376,-6.232949256896973,6.651390075683594,7.813515663146973
1761400334535508700,9.7695087890625,-7.151859283447266,6.561142444610596,7.779233455657959
1761400334555694800,9.78969482421875,-8.508525848388672,5.0183563232421875,6.515695571899414
1761400334575857200,9.809857177734376,-9.211490631103516,1.3150038719177246,4.467442512512207
1761400334596020000,9.83002001953125,-7.877851486206055,-3.5902652740478516,0.6563336849212646
1761400334616182000,9.85018212890625,-6.610646724700928,-4.4658098220825195,-4.040820121765137
1761400334636344300,9.87034423828125,-5.738803386688232,0.7746396064758301,-9.665699005126953
1761400334656521500,9.890521484375,10.774209976196289,1.2440290451049805,-11.379171371459961
1761400334676669000,9.9106689453125,-5.378373146057129,-8.285425186157227,5.611446857452393
1761400334696784600,9.93078466796875,-24.335525512695312,-35.85919952392578,13.341564178466797
1761400334716994600,9.95099462890625,-0.14544057846069336,-38.097740173339844,-21.425777435302734
1761400334737156400,9.97115625,-4.057533264160156,-14.868654251098633,-8.001481056213379
1761400334757318400,9.991318359375,-4.55328369140625,-21.81138801574707,-1.6969013214111328
1761400334777481500,10.0114814453125,-2.671654224395752,-33.93859100341797,-11.047378540039062
1761400334797599500,10.031599609375,-1.8337981700897217,-26.375343322753906,-14.300043106079102
1761400334817781800,10.05178173828125,-6.168428897857666,-20.305517196655273,-3.712846279144287
1761400334837969000,10.071968994140626,-10.827291488647461,-19.52167510986328,-1.1228728294372559
1761400334858125800,10.092125732421875,-14.372259140014648,-14.364035606384277,-4.04978609085083
1761400334878266600,10.1122666015625,-7.921645164489746,-4.852171421051025,-5.150695323944092
1761400334898451200,10.132451171875,8.428791046142578,2.459904670715332,-4.443265914916992
1761400334918626300,10.152626220703125,1.7077350616455078,4.224061012268066,-5.767024993896484
1761400334938761700,10.17276171875,-4.767730236053467,4.29233455657959,-9.444540023803711
1761400334958918000,10.19291796875,-10.726612091064453,9.840211868286133,-1.7782793045043945
1761400334979103700,10.213103759765625,-5.229808330535889,13.259647369384766,8.529239654541016
1761400334999267000,10.23326708984375,6.226186752319336,6.3187994956970215,16.545833587646484
1761400335019428900,10.253428955078125,-10.48962688446045,1.0051145553588867,15.542863845825195
1761400335039591700,10.273591796875,-16.588287353515625,-5.047784328460693,16.23471450805664
1761400335059753200,10.293753173828126,-8.176880836486816,0.1855778694152832,8.00948715209961
1761400335079915800,10.313915771484375,-11.126933097839355,7.216876029968262,3.821843147277832
1761400335100078300,10.334078369140625,-7.674234390258789,12.859285354614258,4.752266883850098
1761400335120214500,10.354214599609374,-5.097843170166016,11.898597717285156,6.307105541229248
1761400335140402700,10.374402587890625,-5.926584720611572,8.245498657226562,6.272774696350098
1761400335160540000,10.394539794921876,-6.567165374755859,5.083182334899902,6.170392036437988
1761400335180727600,10.4147275390625,-8.276253700256348,3.924419641494751,5.9297051429748535
1761400335200864500,10.434864501953125,-10.463920593261719,3.0955586433410645,5.817890167236328
1761400335221048000,10.455048095703125,-8.919050216674805,2.702481269836426,5.590579986572266
1761400335241215200,10.47521533203125,-5.8189167976379395,3.0089807510375977,3.510735511779785
1761400335261376800,10.495376708984375,-6.315806865692139,4.227344989776611,-1.1198780536651611
1761400335281535200,10.51553515625,-3.2607383728027344,4.889998435974121,-5.256505012512207
1761400335301688800,10.535688720703124,-4.571181297302246,4.125946521759033,-5.865996837615967
1761400335321863700,10.55586376953125,-4.119406700134277,3.898132801055908,-3.1185269355773926
1761400335342026200,10.576026123046875,19.368080139160156,-0.12531232833862305,-0.3362312316894531
1761400335362188300,10.596188232421875,-8.383810043334961,-9.927145004272461,11.254541397094727
1761400335382351000,10.61635107421875,-19.147581100463867,-17.112003326416016,14.441610336303711
1761400335402513400,10.636513427734375,-14.421821594238281,-36.30500793457031,15.103841781616211
1761400335422666200,10.656666259765625,2.111283779144287,-30.69823455810547,-27.27105712890625
1761400335442838000,10.676838134765624,-2.3629260063171387,-24.219594955444336,-14.998800277709961
1761400335463000000,10.697,-5.520811080932617,-24.563312530517578,-3.2651352882385254
1761400335483161000,10.7171611328125,-5.495765686035156,-28.506427764892578,-4.804389476776123
1761400335503325200,10.7373251953125,-2.2312045097351074,-26.775959014892578,-7.500423431396484
1761400335523487500,10.757487548828125,-2.947251558303833,-26.860918045043945,-7.9971466064453125
1761400335543642400,10.777642333984375,-6.6912312507629395,-20.30891227722168,-6.056014537811279
1761400335563812000,10.79781201171875,-9.124128341674805,-8.904356002807617,-1.9857206344604492
1761400335583958500,10.81795849609375,-4.551375865936279,-1.1438989639282227,1.6872129440307617
1761400335604116700,10.83811669921875,5.512151718139648,3.3728795051574707,2.8168563842773438
1761400335624298800,10.858298828125,3.933704376220703,2.550497055053711,-5.239382743835449
1761400335644462000,10.878462158203124,-5.0259881019592285,4.3666534423828125,-10.241216659545898
1761400335664611300,10.898611328125,-8.190258026123047,7.644819736480713,-5.606440544128418
1761400335684786000,10.918785888671875,-5.923377513885498,9.373320579528809,9.126819610595703
1761400335704949200,10.93894921875,-2.284837245941162,7.91341495513916,16.367063522338867
1761400335725110500,10.959110595703125,-4.669592380523682,3.209256649017334,15.184130668640137
1761400335745273300,10.9792734375,-16.87936782836914,-1.3734550476074219,11.514229774475098
1761400335765435100,10.99943505859375,-14.61855697631836,-3.2651569843292236,8.562943458557129
1761400335785597700,11.01959765625,-8.768890380859375,-2.618211030960083,6.798971176147461
1761400335805760300,11.03976025390625,-6.233590126037598,3.2466845512390137,6.7763447761535645
1761400335825922000,11.059922119140625,-5.868906021118164,8.804994583129883,10.401144981384277
1761400335846084600,11.080084716796875,-6.0689473152160645,8.343090057373047,8.3895902633667
1761400335866247400,11.100247314453124,-6.967283725738525,5.347802639007568,6.197254180908203
1761400335886409200,11.1204091796875,-8.950936317443848,4.320270538330078,6.14251708984375
1761400335906571500,11.140571533203126,-9.05974006652832,4.502015113830566,6.302186489105225
1761400335926734000,11.160734130859375,-7.985665321350098,5.198970317840576,6.594099521636963
1761400335946896100,11.180896240234375,-7.365203380584717,5.733016014099121,6.736449241638184
1761400335967034400,11.201034423828125,-8.252996444702148,5.880434036254883,5.596035957336426
1761400335987196000,11.22119580078125,-7.843832969665527,6.37454080581665,3.8673338890075684
1761400336007358200,11.241358154296876,-4.947000026702881,6.008450031280518,0.32727742195129395
1761400336027521000,11.26152099609375,2.2110414505004883,2.7869784832000732,-2.7576136589050293
1761400336047690200,11.281690185546875,1.2013635635375977,0.49364185333251953,-11.403898239135742
1761400336067870200,11.3018701171875,8.341695785522461,0.09284210205078125,-12.424386978149414
1761400336088024300,11.3220244140625,-6.0662522315979,-8.34904670715332,8.552680015563965
1761400336108182300,11.342182373046874,-16.575180053710938,-13.660812377929688,14.693751335144043
1761400336128358000,11.36235791015625,-6.496420860290527,-41.97941970825195,12.159772872924805
1761400336148521200,11.382521240234375,11.41661262512207,-43.32937240600586,-51.587921142578125
1761400336168673800,11.402673828125,-5.106753826141357,-19.318546295166016,-6.0003814697265625
1761400336188832000,11.42283203125,-7.872651100158691,-13.773995399475098,12.620336532592773
1761400336209006000,11.443006103515625,-10.03836441040039,-29.68399429321289,8.006721496582031
1761400336229169700,11.463169677734374,-6.160650253295898,-27.313995361328125,-4.910265922546387
1761400336249318700,11.483318603515626,-2.104250431060791,-25.68212890625,-10.218029022216797
1761400336269494000,11.503493896484375,-5.433522701263428,-20.56622314453125,-7.047281742095947
1761400336289656000,11.523656005859374,-11.031484603881836,-13.035325050354004,-4.477155685424805
1761400336309816000,11.543816162109374,-13.840027809143066,-6.601504802703857,-0.801124095916748
1761400336329955600,11.56395556640625,-5.666474342346191,-1.5384654998779297,4.694221496582031
1761400336350143200,11.584143310546875,11.548218727111816,4.746898174285889,6.445845603942871
1761400336370303700,11.6043037109375,0.7302203178405762,9.99550724029541,-2.8967435359954834
1761400336390454800,11.624454833984375,-7.865721702575684,6.303180694580078,-3.778374433517456
1761400336410617900,11.644617919921876,-10.104137420654297,7.286303520202637,-0.9867362976074219
1761400336430792700,11.664792724609375,-6.50591516494751,15.238300323486328,0.5375614166259766
1761400336450955000,11.684955078125,0.1534433364868164,7.225464344024658,3.4941506385803223
1761400336471117300,11.705117431640625,-0.1879739761352539,4.033029556274414,8.230361938476562
1761400336491266600,11.7252666015625,-7.819515228271484,3.5161516666412354,8.585497856140137
1761400336511416800,11.745416748046875,-12.686239242553711,0.2806077003479004,7.558579444885254
1761400336531604500,11.7656044921875,-7.511045455932617,2.1586313247680664,10.056529998779297
1761400336551766500,11.7857666015625,-4.596260070800781,5.544940948486328,11.381379127502441
1761400336571934500,11.8059345703125,-8.103591918945312,7.117751121520996,8.007643699645996
1761400336592091100,11.826091064453125,-5.675346851348877,6.392163276672363,6.90075159072876
1761400336612254000,11.84625390625,-4.142279624938965,4.928611755371094,5.574674129486084
1761400336632414000,11.8664140625,-7.378403663635254,10.24052619934082,6.550500392913818
1761400336652577800,11.886577880859376,-8.662591934204102,10.433645248413086,5.360455513000488
1761400336672740400,11.906740234375,-8.80923843383789,-5.634198188781738,5.094226360321045
1761400336692900600,11.926900634765625,-6.521112442016602,2.270904064178467,7.067821979522705
1761400336713059300,11.947059326171875,-6.722835063934326,4.5730977058410645,2.053684711456299
1761400336733227800,11.967227783203125,-7.564149856567383,3.4438018798828125,-3.6572105884552
1761400336753389800,11.987389892578125,-5.3635759353637695,6.728918552398682,-10.603133201599121
1761400336773552400,12.007552490234374,-2.067580461502075,5.1903076171875,-18.72059440612793
1761400336793714200,12.027714111328125,-9.744100570678711,-0.8680996894836426,-11.42591667175293
1761400336813852000,12.047851806640624,6.590085983276367,-4.648215293884277,5.111734390258789
1761400336834039000,12.0680390625,-11.659059524536133,-19.90692710876465,15.867818832397461
1761400336854183200,12.08818310546875,-29.35800552368164,-34.65187072753906,-3.684459686279297
1761400336874364000,12.108364013671874,4.976061820983887,-51.39100646972656,-27.085397720336914
1761400336894510300,12.12851025390625,-6.840663909912109,-38.76035690307617,-2.389826774597168
1761400336914666500,12.14866650390625,-6.022627353668213,-31.187219619750977,5.070649147033691
1761400336934850800,12.168850830078124,-8.806872367858887,-31.4238338470459,7.778236389160156
1761400336955011300,12.18901123046875,-1.0455749034881592,-27.80626678466797,-2.946887969970703
1761400336975188000,12.20918798828125,-6.228455066680908,-16.960283279418945,-10.922737121582031
1761400336995334000,12.229333984375,-15.255605697631836,-8.849851608276367,-9.953619956970215
1761400337015485200,12.249485107421876,-11.98308277130127,-3.1097841262817383,-5.375728607177734
1761400337035649800,12.26964990234375,3.1292009353637695,-3.8194074630737305,-2.0594983100891113
1761400337055799600,12.289799560546875,-4.049618244171143,0.015800952911376953,-0.6042656898498535
1761400337075962600,12.309962646484376,-4.676878452301025,2.9794373512268066,2.548337459564209
1761400337096124000,12.3301240234375,-5.5083327293396,5.2220330238342285,5.551920413970947
1761400337116286700,12.35028662109375,-8.843080520629883,10.841914176940918,6.815291404724121
1761400337136460300,12.370460205078125,-12.956366539001465,15.633283615112305,6.170102596282959
1761400337156624000,12.390623779296876,-10.14599323272705,15.594076156616211,8.950170516967773
1761400337176799000,12.410799072265625,-3.444788932800293,9.941105842590332,7.495456218719482
1761400337196946400,12.430946533203125,1.1448888778686523,8.798498153686523,7.766452789306641
1761400337217124000,12.4511240234375,2.7071471214294434,8.839750289916992,6.319056510925293
1761400337237280800,12.47128076171875,1.2139039039611816,7.705885887145996,3.2883193492889404
1761400337257448400,12.491448486328125,-4.488452434539795,7.982295989990234,0.11792588233947754
1761400337277603000,12.51160302734375,-7.733944416046143,10.727612495422363,-0.7187119722366333
1761400337297766700,12.5317666015625,-8.893325805664062,11.80565071105957,-1.3221707344055176
1761400337317935400,12.551935302734375,-9.57874584197998,10.72047233581543,-2.3809497356414795
1761400337338084900,12.5720849609375,-8.920843124389648,10.409196853637695,-3.6515934467315674
1761400337358247000,12.592246826171875,-8.068593978881836,8.53201961517334,-3.184574842453003
1761400337378397200,12.612397216796875,-8.071556091308594,5.628931522369385,-1.0478870868682861
1761400337398582300,12.632582275390625,-6.946657180786133,4.61698055267334,1.8905315399169922
1761400337418746600,12.65274658203125,-4.637121200561523,5.921101093292236,4.323182106018066
1761400337438909000,12.672908935546875,-3.981382131576538,3.3781538009643555,2.8638947010040283
1761400337459056400,12.693056396484375,-2.0423216819763184,1.6615996360778809,-0.5677628517150879
1761400337479234000,12.713234130859375,-2.049318313598633,-0.4780097007751465,-5.746574401855469
1761400337499396400,12.733396240234375,-2.9530036449432373,-0.1323080062866211,-9.25936508178711
1761400337519545900,12.7535458984375,-2.6301798820495605,-0.34156131744384766,-8.4369535446167
1761400337539708200,12.773708251953124,-3.663360834121704,-6.113568305969238,-4.432347297668457
1761400337559870200,12.7938701171875,-4.600268363952637,-13.325210571289062,-0.33992987871170044
1761400337580045800,12.8140458984375,-4.962759017944336,-17.19817352294922,9.33346939086914
1761400337600189200,12.834189208984375,-6.29653263092041,-17.821805953979492,16.43607521057129
1761400337620370400,12.854370361328124,-4.728487491607666,-25.959232330322266,-1.908463478088379
1761400337640531500,12.874531494140625,-7.765763759613037,-28.594722747802734,-3.3165464401245117
1761400337660693800,12.89469384765625,-9.778604507446289,-15.737357139587402,-4.691883087158203
1761400337680857000,12.914857177734374,0.3119173049926758,-11.606356620788574,-5.111755847930908
1761400337701008400,12.93500830078125,-6.77419376373291,-13.776924133300781,-2.4302780628204346
1761400337721166600,12.95516650390625,-9.883940696716309,-25.017562866210938,-3.3635616302490234
1761400337741343200,12.97534326171875,2.4534244537353516,-20.927379608154297,-3.685978412628174
1761400337761481200,12.995481201171875,4.304299354553223,-9.797510147094727,0.7512259483337402
1761400337781664800,13.015664794921875,-0.9040179252624512,-6.375619411468506,7.211221694946289
1761400337801818400,13.035818359375,-3.3302149772644043,-7.313663482666016,3.1267709732055664
1761400337821981400,13.0559814453125,0.6864423751831055,-7.990805625915527,-0.5376009941101074
1761400337842154000,13.076154052734376,-3.0745229721069336,-5.746492385864258,-4.435873508453369
1761400337862317800,13.09631787109375,-4.139776229858398,-5.362604141235352,-5.138571739196777
1761400337882467600,13.116467529296875,-2.9105653762817383,-3.713092565536499,-2.017409324645996
1761400337902630100,13.136630126953126,-4.185262680053711,-4.011036396026611,-2.4346253871917725
1761400337922792200,13.156792236328124,-5.757761001586914,-5.011776447296143,-3.2328402996063232
1761400337942967600,13.176967529296874,-5.138585090637207,-4.113922595977783,-3.3298840522766113
1761400337963122200,13.1971220703125,-2.875833034515381,-4.488940238952637,-4.300243377685547
1761400337983292400,13.21729248046875,-2.8374619483947754,-3.4235596656799316,-5.667872428894043
1761400338003443500,13.237443359375,-6.339959144592285,-2.614928722381592,-3.9115078449249268
1761400338023617000,13.257616943359375,-4.9935622215271,-3.6513524055480957,-5.510920524597168
1761400338043776500,13.277776611328125,-2.93241024017334,-5.302667617797852,-7.50742244720459
1761400338063936300,13.297936279296875,-4.680062294006348,-6.2296953201293945,-4.112033843994141
1761400338084091000,13.3180908203125,4.373326301574707,-6.3854498863220215,-3.499728202819824
1761400338104264700,13.3382646484375,0.039600372314453125,-8.343448638916016,-5.277283668518066
1761400338124421400,13.35842138671875,-0.6829729080200195,-6.1019392013549805,-2.6267223358154297
1761400338144591000,13.378591064453126,0.2537851333618164,-5.798314094543457,-1.7347298860549927
1761400338164742700,13.39874267578125,0.1627941131591797,-4.260372638702393,-2.5164618492126465
1761400338184902700,13.418902587890624,-0.0024566650390625,-2.719712972640991,-1.7114797830581665
1761400338205067300,13.4390673828125,-0.10212326049804688,-1.9661082029342651,-0.6502785682678223
1761400338225223000,13.459222900390625,0.0718994140625,-1.2295541763305664,-0.637725830078125
1761400338245366300,13.4793662109375,1.0704517364501953,-1.573850393295288,-1.1485466957092285
1761400338265563000,13.49956298828125,2.2306594848632812,-1.2196834087371826,-0.7880802154541016
1761400338285725200,13.51972509765625,2.049849510192871,-1.2688437700271606,-0.9036810398101807
1761400338305876500,13.53987646484375,0.6863346099853516,-1.0975925922393799,-0.37006521224975586
1761400338326019800,13.560019775390625,-0.2568683624267578,-0.7371182441711426,0.35953474044799805
1761400338346214100,13.580214111328125,-0.30826663970947266,-0.12056785821914673,0.24773526191711426
1761400338366374400,13.60037451171875,-0.3528003692626953,-0.04916048049926758,-0.2388172149658203
1761400338386538500,13.62053857421875,-0.5314445495605469,-0.046025633811950684,-0.18382906913757324
1761400338406688500,13.6406884765625,-0.3667325973510742,0.24198687076568604,-0.07696843147277832
1761400338426866400,13.660866455078125,-0.267303466796875,0.12824487686157227,-0.2711977958679199
1761400338447013600,13.681013671875,-0.037166595458984375,0.30291008949279785,-0.6904847621917725
1761400338467188200,13.701188232421876,0.28252601623535156,0.4442399740219116,-1.0758018493652344
1761400338487343000,13.721343017578125,0.618499755859375,-0.19941210746765137,-1.2460286617279053
1761400338507512800,13.741512939453125,0.7290897369384766,-0.729046106338501,-1.019445776939392
1761400338527675100,13.761675048828126,0.5082054138183594,-0.8438445329666138,-0.6735916137695312
1761400338547835600,13.781835693359374,0.03949546813964844,-0.6934472918510437,-0.7622071504592896
1761400338568000000,13.802,-0.32010364532470703,-0.4329850673675537,-0.9903793334960938
1761400338588161800,13.822161865234374,-0.5329189300537109,-0.4200618267059326,-1.053269863128662
1761400338608322000,13.842322021484375,-0.5779190063476562,-0.6421191692352295,-0.9450843334197998
1761400338628476400,13.862476318359375,-0.4539909362792969,-0.9682426452636719,-0.939007043838501
1761400338648638000,13.882637939453126,-0.28700923919677734,-1.0684583187103271,-0.9659786224365234
1761400338668811300,13.902811279296875,-0.26768970489501953,-1.041228175163269,-0.9844082593917847
1761400338688973600,13.9229736328125,-0.33190345764160156,-1.2983535528182983,-1.0477004051208496
1761400338709136100,13.94313623046875,-0.17419719696044922,-1.1645474433898926,-0.9200718402862549
1761400338729298200,13.963298095703125,0.07986640930175781,-1.1529819965362549,-0.8217504024505615
1761400338749457700,13.983457763671876,0.3073234558105469,-0.9404255151748657,-0.6197522878646851
1761400338769608000,14.00360791015625,0.2810201644897461,-0.6617937088012695,-0.47357749938964844
1761400338789784800,14.023784912109376,0.16627979278564453,-0.37660276889801025,-0.16583621501922607
1761400338809948400,14.043948486328125,0.24539756774902344,-0.3006408214569092,-0.1881248950958252
1761400338830109700,14.064109619140625,0.35510921478271484,-0.341947078704834,-0.47656941413879395
1761400338850272300,14.084272216796874,0.4008016586303711,-0.45268714427948,-0.5933494567871094
1761400338870427100,14.10442724609375,0.30939292907714844,-0.5605418682098389,-0.6578952074050903
1761400338890582500,14.12458251953125,0.35665321350097656,-0.5919063091278076,-0.8975914120674133
1761400338910760200,14.14476025390625,0.30892181396484375,-0.5921294689178467,-0.9709829092025757
1761400338930917400,14.16491748046875,0.20870399475097656,-0.5539319515228271,-0.9504733085632324
1761400338951084000,14.185083984375,0.14537429809570312,-0.4661571979522705,-0.8689138889312744
1761400338971249700,14.205249755859375,-0.0951528549194336,-0.5205683708190918,-0.8148165345191956
1761400338991395800,14.225395751953124,-0.3594512939453125,-0.5206241607666016,-0.6227636337280273
1761400339011558400,14.245558349609375,-0.30515480041503906,-0.6489019393920898,-0.5514039397239685
1761400339031721200,14.26572119140625,0.019052505493164062,-0.7353653907775879,-0.6632078289985657
1761400339051895300,14.285895263671875,0.185882568359375,-0.7847758531570435,-0.6178014278411865
1761400339072045000,14.306045166015625,0.14589691162109375,-0.7319068908691406,-0.6034362316131592
1761400339092208600,14.326208740234375,0.12767601013183594,-0.736271858215332,-0.53191739320755
1761400339112372200,14.346372314453125,0.05324268341064453,-0.7838668823242188,-0.5548110604286194
1761400339132545800,14.3665458984375,-0.03628730773925781,-0.7504992485046387,-0.5295705795288086
1761400339152707000,14.38670703125,-0.015596389770507812,-0.7170305252075195,-0.5139272212982178
1761400339172869000,14.406869140625,0.04877471923828125,-0.8136512041091919,-0.40856677293777466
1761400339193016800,14.427016845703125,0.08784103393554688,-0.9082369804382324,-0.37152647972106934
1761400339213181200,14.44718115234375,0.12016868591308594,-0.9741517305374146,-0.380609393119812
1761400339233343500,14.467343505859375,0.1460866928100586,-0.861366868019104,-0.4341106414794922
1761400339253517300,14.487517333984375,0.20865917205810547,-0.72340989112854,-0.5091513395309448
1761400339273668600,14.507668701171875,0.24315929412841797,-0.7216832637786865,-0.6227603554725647
1761400339293843500,14.527843505859375,0.23282432556152344,-0.7939579486846924,-0.5780555009841919
1761400339314005800,14.548005859375,0.19586563110351562,-0.7326265573501587,-0.6443455219268799
1761400339334157600,14.568157470703126,0.24094867706298828,-0.6942059993743896,-0.6828609108924866
1761400339354317600,14.588317626953126,-0.05997180938720703,-0.7844581604003906,-0.4968836307525635
1761400339374492700,14.60849267578125,-0.02799224853515625,-0.8922173976898193,-0.8654525279998779
1761400339394643700,14.628643798828126,-0.17816829681396484,-0.5712292194366455,-0.7837210893630981
1761400339414807000,14.64880712890625,-0.023288726806640625,-0.5859459638595581,-0.84312504529953
1761400339434966800,14.668966796875,0.18095684051513672,-0.5206730365753174,-0.7758514881134033
1761400339455129000,14.689129150390626,0.36552906036376953,-0.8175899982452393,-0.5937000513076782
