time,seconds_elapsed,z,y,x
1761230539794500600,0.12050048828125,-0.00015271631127689034,0.001527163083665073,0.0010690141934901476
1761230539811299600,0.137299560546875,-0.0013744467869400978,0.0003054326225537807,0.001527163083665073
1761230539828087300,0.15408740234375,-0.0013744467869400978,0.0003054326225537807,0.0003054326225537807
1761230539844874800,0.170874755859375,-0.0003054326225537807,0.0010690141934901476,0.00015271631127689034
1761230539861662000,0.187661865234375,-0.0010690141934901476,0.0009162978967651725,0.0012217304902151227
1761230539878452500,0.204452392578125,-0.0010690141934901476,0.00045814894838258624,0.001527163083665073
1761230539895238100,0.221238037109375,-0.0012217304902151227,0.0003054326225537807,0.00015271631127689034
1761230539912034300,0.238034423828125,-0.0003054326225537807,0.0006108652451075613,0.0007635815418325365
1761230539928817400,0.2548173828125,-0.00045814894838258624,-0.0003054326225537807,0.0007635815418325365
1761230539945609200,0.271609130859375,-0.0003054326225537807,0,0.001679879380390048
1761230539962375400,0.28837548828125,-0.00015271631127689034,0.001527163083665073,0
1761230539979178800,0.3051787109375,-0.0006108652451075613,0.0013744467869400978,0.0006108652451075613
1761230539995962000,0.321962158203125,-0.0009162978967651725,0.001527163083665073,0.0003054326225537807
1761230540012751600,0.338751708984375,-0.0009162978967651725,0.0012217304902151227,0.001679879380390048
1761230540029543200,0.355543212890625,-0.0006108652451075613,0.00045814894838258624,0.0003054326225537807
1761230540046326500,0.372326416015625,-0.0012217304902151227,0.0013744467869400978,0.001832595793530345
1761230540063135500,0.389135498046875,-0.0012217304902151227,0.0012217304902151227,0.0009162978967651725
1761230540079921700,0.405921630859375,-0.0006108652451075613,0.0012217304902151227,0.0012217304902151227
1761230540096706000,0.4227060546875,-0.0010690141934901476,0.001527163083665073,0.00015271631127689034
1761230540113503200,0.439503173828125,-0.0006108652451075613,0.0007635815418325365,0.001679879380390048
1761230540130288600,0.45628857421875,-0.00045814894838258624,0.00045814894838258624,0.00015271631127689034
1761230540147077600,0.47307763671875,-0.0009162978967651725,0.00045814894838258624,0.0010690141934901476
1761230540163865900,0.489865966796875,-0.0006108652451075613,0.0006108652451075613,0.0010690141934901476
1761230540180654000,0.506654052734375,-0.0006108652451075613,0.0010690141934901476,-0.00015271631127689034
1761230540197424600,0.523424560546875,-0.0006108652451075613,0.0013744467869400978,0.0009162978967651725
1761230540214220000,0.540219970703125,-0.00045814894838258624,0.0010690141934901476,0.0003054326225537807
1761230540231008500,0.557008544921875,-0.00045814894838258624,0.0013744467869400978,0.0010690141934901476
1761230540247796700,0.573796630859375,-0.0012217304902151227,0.0007635815418325365,0.0003054326225537807
1761230540264586200,0.590586181640625,-0.0012217304902151227,0.0003054326225537807,0.0013744467869400978
1761230540281376300,0.607376220703125,-0.0013744467869400978,0.002138028386980295,0.0009162978967651725
1761230540298151400,0.6241513671875,-0.0006108652451075613,0.0009162978967651725,0
1761230540314950000,0.640949951171875,-0.0012217304902151227,0,0.0013744467869400978
1761230540331744500,0.65774462890625,-0.0009162978967651725,0.0010690141934901476,0.0009162978967651725
1761230540348534300,0.6745341796875,-0.0009162978967651725,0.0007635815418325365,0.0010690141934901476
1761230540365320400,0.691320556640625,-0.00015271631127689034,0.0013744467869400978,0.0010690141934901476
1761230540382123500,0.70812353515625,-0.0007635815418325365,0.0009162978967651725,0.0003054326225537807
1761230540398908700,0.72490869140625,-0.0010690141934901476,0,0.0003054326225537807
1761230540415710000,0.7417099609375,-0.0009162978967651725,0.0010690141934901476,0.0007635815418325365
1761230540432490000,0.758489990234375,-0.0010690141934901476,0.001527163083665073,0.0003054326225537807
1761230540449280800,0.77528076171875,-0.0013744467869400978,0.0007635815418325365,0.0006108652451075613
1761230540466037800,0.792037841796875,-0.0003054326225537807,0.0010690141934901476,0.0010690141934901476
1761230540482852900,0.808852783203125,-0.00045814894838258624,0.0007635815418325365,0.0003054326225537807
1761230540499650300,0.825650390625,-0.0009162978967651725,0.0003054326225537807,0.0009162978967651725
1761230540516426500,0.842426513671875,-0.0006108652451075613,0.0007635815418325365,0.0007635815418325365
1761230540533210600,0.859210693359375,-0.0003054326225537807,0.001832595793530345,0.0003054326225537807
1761230540550017000,0.87601708984375,-0.0013744467869400978,0.0006108652451075613,0.0007635815418325365
1761230540566797800,0.8927978515625,-0.0006108652451075613,0.001527163083665073,0
1761230540583576000,0.909576171875,-0.0012217304902151227,0.0006108652451075613,0.0013744467869400978
1761230540600381200,0.926381103515625,-0.0012217304902151227,0.0007635815418325365,0
1761230540617166000,0.943166015625,-0.0013744467869400978,0.0007635815418325365,0.0006108652451075613
1761230540633964500,0.959964599609375,-0.0013744467869400978,0.0003054326225537807,0.00015271631127689034
1761230540650729700,0.976729736328125,-0.0006108652451075613,0.0007635815418325365,0.0006108652451075613
1761230540667539200,0.993539306640625,-0.00015271631127689034,-0.00015271631127689034,0.00015271631127689034
1761230540684326400,1.010326416015625,-0.00045814894838258624,0.0007635815418325365,-0.0006108652451075613
1761230540701098200,1.02709814453125,-0.0006108652451075613,0.001527163083665073,0.0007635815418325365
1761230540717890800,1.043890869140625,-0.00045814894838258624,0.0012217304902151227,0
1761230540734679300,1.06067919921875,-0.0010690141934901476,0.002138028386980295,0.0006108652451075613
1761230540751468800,1.07746875,-0.0013744467869400978,0.0009162978967651725,0.0009162978967651725
1761230540768258000,1.094258056640625,-0.00015271631127689034,0.0013744467869400978,0.0010690141934901476
1761230540785047000,1.111047119140625,-0.00045814894838258624,0.001527163083665073,0
1761230540801835500,1.12783544921875,-0.0009162978967651725,0.0007635815418325365,-0.00015271631127689034
1761230540818623700,1.144623779296875,-0.00015271631127689034,0.002138028386980295,0.00015271631127689034
1761230540835413500,1.16141357421875,-0.00045814894838258624,0.0009162978967651725,0.001679879380390048
1761230540852190000,1.17818994140625,-0.0009162978967651725,0.001679879380390048,0
1761230540869008600,1.195008544921875,-0.0009162978967651725,0.0007635815418325365,0.0003054326225537807
1761230540885778000,1.21177783203125,-0.00045814894838258624,0.0007635815418325365,0.0010690141934901476
1761230540902568200,1.228568115234375,-0.0012217304902151227,0.00045814894838258624,-0.0006108652451075613
1761230540919372800,1.245372802734375,-0.00015271631127689034,0.0009162978967651725,0.0013744467869400978
1761230540936161300,1.262161376953125,-0.0009162978967651725,0.0007635815418325365,-0.00045814894838258624
1761230540952949000,1.278948974609375,-0.0009162978967651725,0.0010690141934901476,-0.00015271631127689034
1761230540969739300,1.2957392578125,-0.00015271631127689034,0.001679879380390048,0
1761230540986523400,1.3125234375,-0.0006108652451075613,0.001527163083665073,0.0006108652451075613
1761230541003324000,1.329323974609375,-0.0009162978967651725,0.002138028386980295,0.00015271631127689034
1761230541020105500,1.34610546875,-0.00045814894838258624,-0.00045814894838258624,-0.00015271631127689034
1761230541036895200,1.362895263671875,-0.0003054326225537807,0.0010690141934901476,0.0010690141934901476
1761230541053685000,1.37968505859375,-0.00045814894838258624,0.0010690141934901476,0.0009162978967651725
1761230541070457600,1.39645751953125,-0.0012217304902151227,0.0007635815418325365,0.0010690141934901476
1761230541087263700,1.413263671875,-0.00045814894838258624,0.0010690141934901476,0.0010690141934901476
1761230541104051500,1.430051513671875,-0.0013744467869400978,0.0007635815418325365,0.0009162978967651725
1761230541120836900,1.4468369140625,-0.0012217304902151227,-0.00015271631127689034,0.0009162978967651725
1761230541137633800,1.4636337890625,-0.0013744467869400978,0.0010690141934901476,0.0007635815418325365
1761230541154407400,1.480407470703125,-0.0013744467869400978,0.001527163083665073,0.0007635815418325365
1761230541171208000,1.4972080078125,-0.00045814894838258624,0.001679879380390048,-0.00045814894838258624
1761230541187994000,1.513994140625,-0.0010690141934901476,0.001527163083665073,0.0009162978967651725
1761230541204770600,1.5307705078125,-0.0013744467869400978,0.001527163083665073,0.00015271631127689034
1761230541221562000,1.54756201171875,-0.00015271631127689034,-0.00015271631127689034,0.0007635815418325365
1761230541238350300,1.564350341796875,-0.0003054326225537807,0.0006108652451075613,0.0010690141934901476
1761230541255140400,1.581140380859375,-0.00015271631127689034,0.0006108652451075613,0.0009162978967651725
1761230541271928300,1.59792822265625,-0.0003054326225537807,0.0010690141934901476,0.0012217304902151227
1761230541288717800,1.6147177734375,-0.0012217304902151227,0.0012217304902151227,-0.00015271631127689034
1761230541305506600,1.631506591796875,-0.0012217304902151227,0.0009162978967651725,0.0006108652451075613
1761230541322295800,1.6482958984375,-0.0010690141934901476,0.0003054326225537807,0.00015271631127689034
1761230541339084800,1.665084716796875,-0.0006108652451075613,0.0007635815418325365,0.00045814894838258624
1761230541355894300,1.681894287109375,-0.0013744467869400978,0.001527163083665073,0.0007635815418325365
1761230541372657200,1.6986572265625,-0.00015271631127689034,0.0003054326225537807,-0.00045814894838258624
1761230541389462000,1.7154619140625,-0.0010690141934901476,0.00045814894838258624,0.0007635815418325365
1761230541406258400,1.732258544921875,-0.0003054326225537807,-0.0003054326225537807,0.0010690141934901476
1761230541423043800,1.7490439453125,-0.0006108652451075613,0.0006108652451075613,0.0006108652451075613
1761230541439832000,1.76583203125,-0.0006108652451075613,0,0.0007635815418325365
1761230541456619800,1.782619873046875,-0.0003054326225537807,0.0012217304902151227,0
1761230541473411300,1.799411376953125,-0.0010690141934901476,0,0.0007635815418325365
1761230541490200000,1.816199951171875,-0.0006108652451075613,0.0007635815418325365,0.0003054326225537807
1761230541506988300,1.83298828125,-0.00045814894838258624,0.0003054326225537807,0.00015271631127689034
1761230541523773400,1.8497734375,-0.0013744467869400978,0.0006108652451075613,0.0007635815418325365
1761230541540563500,1.8665634765625,-0.00015271631127689034,0.0010690141934901476,0.0003054326225537807
1761230541557356500,1.8833564453125,-0.0009162978967651725,0.0012217304902151227,0.0006108652451075613
1761230541574141200,1.90014111328125,-0.0012217304902151227,0.0012217304902151227,0.00015271631127689034
1761230541590932500,1.916932373046875,-0.0013744467869400978,0.00045814894838258624,0.0010690141934901476
1761230541607730400,1.93373046875,-0.0012217304902151227,0.0012217304902151227,-0.0003054326225537807
1761230541624512300,1.95051220703125,-0.00015271631127689034,0.0007635815418325365,0.0009162978967651725
1761230541641298000,1.9672978515625,-0.0003054326225537807,0.0003054326225537807,0.00015271631127689034
1761230541658090800,1.9840908203125,-0.0009162978967651725,0.0007635815418325365,0.0010690141934901476
1761230541674879500,2.00087939453125,-0.00015271631127689034,0.0022907445672899485,0.0010690141934901476
1761230541691651300,2.0176513671875,-0.0013744467869400978,0.00045814894838258624,0.0010690141934901476
1761230541708439800,2.034439697265625,-0.0006108652451075613,0.0009162978967651725,0.0003054326225537807
1761230541725238000,2.051238037109375,-0.00045814894838258624,0.0013744467869400978,0.0003054326225537807
1761230541742019600,2.06801953125,-0.0006108652451075613,0.0007635815418325365,0.0010690141934901476
1761230541758811000,2.084810791015625,-0.0012217304902151227,0.0007635815418325365,0.0013744467869400978
1761230541775598000,2.10159814453125,-0.0013744467869400978,0.0013744467869400978,0.00015271631127689034
1761230541792389000,2.11838916015625,-0.0010690141934901476,0.001527163083665073,0.0010690141934901476
1761230541809177300,2.13517724609375,-0.0013744467869400978,0.0013744467869400978,-0.00015271631127689034
1761230541825967000,2.151967041015625,-0.0012217304902151227,0.00045814894838258624,0.0010690141934901476
1761230541842772000,2.16877197265625,-0.0012217304902151227,0.0013744467869400978,0.0003054326225537807
1761230541859559400,2.185559326171875,-0.0010690141934901476,0.0006108652451075613,0
1761230541876347100,2.20234716796875,-0.0013744467869400978,0.0007635815418325365,0.0003054326225537807
1761230541893116400,2.219116455078125,-0.0010690141934901476,0.001527163083665073,-0.0003054326225537807
1761230541909927400,2.235927490234375,-0.00045814894838258624,0.0012217304902151227,0
1761230541926715100,2.252715087890625,-0.0003054326225537807,0.0006108652451075613,-0.00015271631127689034
1761230541943503400,2.26950341796875,-0.0012217304902151227,0.0010690141934901476,0.0003054326225537807
1761230541960276500,2.2862763671875,-0.0013744467869400978,0.00045814894838258624,0.0012217304902151227
1761230541977076500,2.303076416015625,-0.0012217304902151227,0.001679879380390048,-0.00015271631127689034
1761230541993872000,2.319871826171875,-0.0006108652451075613,0.0006108652451075613,0.0012217304902151227
1761230542010659600,2.33665966796875,-0.0012217304902151227,0.0006108652451075613,0.0010690141934901476
1761230542027448800,2.35344873046875,-0.0012217304902151227,0.00045814894838258624,0
1761230542044237600,2.370237548828125,-0.0010690141934901476,0.0003054326225537807,0.0003054326225537807
1761230542061027300,2.38702734375,-0.00015271631127689034,0.0006108652451075613,0.0009162978967651725
1761230542077815600,2.403815673828125,-0.00015271631127689034,-0.0006108652451075613,0.0010690141934901476
1761230542094591700,2.420591796875,-0.00015271631127689034,0.0010690141934901476,0.0010690141934901476
1761230542111395300,2.437395263671875,-0.0003054326225537807,0.00045814894838258624,0.0006108652451075613
1761230542128183300,2.454183349609375,-0.0003054326225537807,0.0007635815418325365,0.0010690141934901476
1761230542144971800,2.4709716796875,-0.0012217304902151227,0.0010690141934901476,0.0010690141934901476
1761230542161739800,2.48773974609375,-0.00045814894838258624,0.001527163083665073,0.001679879380390048
1761230542178549000,2.504549072265625,-0.0003054326225537807,0.0013744467869400978,0.0007635815418325365
1761230542195328300,2.521328369140625,-0.0012217304902151227,0.0013744467869400978,0.0010690141934901476
1761230542212114400,2.538114501953125,-0.0010690141934901476,0.00045814894838258624,0.0006108652451075613
1761230542228902400,2.55490234375,-0.0003054326225537807,0.001527163083665073,0.0010690141934901476
1761230542245679400,2.571679443359375,-0.0012217304902151227,0.00045814894838258624,0.001832595793530345
1761230542262482000,2.58848193359375,-0.0006108652451075613,0.0003054326225537807,0.0010690141934901476
1761230542279270700,2.605270751953125,-0.00045814894838258624,0.0006108652451075613,0.0003054326225537807
1761230542296058600,2.62205859375,-0.0013744467869400978,0.001832595793530345,-0.00015271631127689034
1761230542312848400,2.638848388671875,-0.0010690141934901476,0.0013744467869400978,0.0010690141934901476
1761230542329649700,2.655649658203125,-0.0009162978967651725,0.0003054326225537807,0.0003054326225537807
1761230542346446300,2.6724462890625,-0.00015271631127689034,0.0012217304902151227,0.00015271631127689034
1761230542363228700,2.689228759765625,-0.0012217304902151227,0.0003054326225537807,0
1761230542380018000,2.706017822265625,-0.0013744467869400978,0.0013744467869400978,0.0009162978967651725
1761230542396793600,2.722793701171875,-0.0009162978967651725,0.0013744467869400978,0
1761230542413596400,2.739596435546875,-0.0013744467869400978,0.001527163083665073,0.0003054326225537807
1761230542430369500,2.75636962890625,-0.0009162978967651725,0.001527163083665073,0.0007635815418325365
1761230542447177000,2.773177001953125,-0.0006108652451075613,0.0006108652451075613,0.0010690141934901476
1761230542463961300,2.78996142578125,-0.0006108652451075613,0.0013744467869400978,0.00015271631127689034
1761230542480752000,2.806752197265625,-0.0003054326225537807,0.0007635815418325365,0.0006108652451075613
1761230542497542400,2.82354248046875,-0.0006108652451075613,0.0007635815418325365,0.0006108652451075613
1761230542514331000,2.840330810546875,-0.0006108652451075613,0.0012217304902151227,0.0003054326225537807
1761230542531115800,2.85711572265625,-0.0010690141934901476,0.001527163083665073,0.0007635815418325365
1761230542547889200,2.87388916015625,-0.0012217304902151227,0.0003054326225537807,0.0012217304902151227
1761230542564702200,2.8907021484375,-0.0010690141934901476,0.00045814894838258624,0.0006108652451075613
1761230542581487000,2.907487060546875,-0.0012217304902151227,0.0006108652451075613,0.0010690141934901476
1761230542598276400,2.9242763671875,-0.0010690141934901476,0.001832595793530345,0
1761230542615062500,2.9410625,-0.0012217304902151227,0.0007635815418325365,0.0007635815418325365
1761230542631854600,2.9578544921875,-0.00015271631127689034,0.00045814894838258624,0.0010690141934901476
1761230542648642800,2.974642822265625,-0.0012217304902151227,0.0010690141934901476,0.0009162978967651725
1761230542665432600,2.9914326171875,-0.0012217304902151227,-0.00015271631127689034,0
1761230542682203600,3.00820361328125,-0.0013744467869400978,0.0010690141934901476,0.0007635815418325365
1761230542698996700,3.024996826171875,-0.00045814894838258624,0.0010690141934901476,0.0010690141934901476
1761230542715785500,3.041785400390625,-0.0013744467869400978,0.0007635815418325365,0.0007635815418325365
1761230542732574500,3.058574462890625,-0.0013744467869400978,0.0007635815418325365,0.0010690141934901476
1761230542749363700,3.07536376953125,-0.0013744467869400978,0.0013744467869400978,0.00045814894838258624
1761230542766153500,3.092153564453125,-0.0009162978967651725,0.0013744467869400978,0.0007635815418325365
1761230542782941400,3.10894140625,-0.0009162978967651725,0.001679879380390048,0.0010690141934901476
1761230542799718000,3.1257177734375,-0.0013744467869400978,0,0.0010690141934901476
1761230542816537000,3.142537109375,-0.0003054326225537807,0.0012217304902151227,0.001527163083665073
1761230542833322500,3.159322509765625,-0.0013744467869400978,0.001527163083665073,0.0006108652451075613
1761230542850111700,3.17611181640625,-0.00045814894838258624,0.00045814894838258624,0.001679879380390048
1761230542866895000,3.19289501953125,-0.0010690141934901476,0.0012217304902151227,0.0012217304902151227
1761230542883693800,3.20969384765625,-0.0009162978967651725,0.001527163083665073,0.0010690141934901476
1761230542900466200,3.226466064453125,-0.00015271631127689034,0.0003054326225537807,0.0010690141934901476
1761230542917267700,3.243267822265625,-0.00015271631127689034,0.0012217304902151227,0.0009162978967651725
1761230542934052600,3.260052490234375,-0.00015271631127689034,0.0003054326225537807,0.00045814894838258624
1761230542950849300,3.276849365234375,-0.00015271631127689034,0.0003054326225537807,0.0007635815418325365
1761230542967635200,3.29363525390625,-0.00015271631127689034,0.001527163083665073,0.0009162978967651725
1761230542984428300,3.31042822265625,-0.0009162978967651725,0.001527163083665073,0.0003054326225537807
1761230543001188900,3.32718896484375,-0.0010690141934901476,0.001527163083665073,0
1761230543017984300,3.343984375,-0.00045814894838258624,0.0007635815418325365,0.0009162978967651725
1761230543034775000,3.360775146484375,-0.0006108652451075613,0.001527163083665073,-0.0003054326225537807
1761230543051560200,3.377560302734375,-0.0009162978967651725,0.0003054326225537807,0.0006108652451075613
1761230543068358000,3.39435791015625,-0.0013744467869400978,0.0012217304902151227,0.0013744467869400978
1761230543085146400,3.411146484375,-0.0009162978967651725,0.0013744467869400978,0.00045814894838258624
1761230543101919200,3.427919189453125,-0.0012217304902151227,0.0010690141934901476,0.00045814894838258624
1761230543118722000,3.44472216796875,-0.0009162978967651725,0.0003054326225537807,0.0009162978967651725
1761230543135511600,3.461511474609375,-0.0013744467869400978,-0.0003054326225537807,-0.0006108652451075613
1761230543152300800,3.47830078125,-0.0013744467869400978,0.0012217304902151227,0.0003054326225537807
1761230543169103000,3.49510302734375,0,0.001527163083665073,0.0009162978967651725
1761230543185873700,3.511873779296875,0.0006108652451075613,0.0006108652451075613,0.0010690141934901476
1761230543202671000,3.528671142578125,-0.0003054326225537807,0.001527163083665073,0.0003054326225537807
1761230543219456300,3.545456298828125,-0.00015271631127689034,0.00045814894838258624,0.0003054326225537807
1761230543236245800,3.562245849609375,-0.00045814894838258624,0.00045814894838258624,0.00015271631127689034
1761230543253034000,3.579033935546875,-0.0006108652451075613,0.0009162978967651725,0.0012217304902151227
1761230543269824300,3.59582421875,-0.0009162978967651725,0.0003054326225537807,0.0010690141934901476
1761230543286612200,3.6126123046875,-0.0013744467869400978,0,0.0007635815418325365
1761230543303403800,3.62940380859375,-0.00015271631127689034,0.0006108652451075613,0.0003054326225537807
1761230543320201000,3.646200927734375,-0.0003054326225537807,0.0003054326225537807,0.0009162978967651725
1761230543336994600,3.66299462890625,-0.0006108652451075613,0.003054326167330146,0
1761230543353766000,3.679765869140625,-0.0006108652451075613,0.0007635815418325365,0.0006108652451075613
1761230543370555100,3.69655517578125,-0.0012217304902151227,0.00045814894838258624,0.0003054326225537807
1761230543387361000,3.713361083984375,-0.0009162978967651725,0.0012217304902151227,0.0006108652451075613
1761230543404148700,3.730148681640625,-0.0013744467869400978,0.0003054326225537807,0
1761230543420938500,3.7469384765625,-0.0013744467869400978,0.0006108652451075613,0
1761230543437730600,3.76373046875,-0.0006108652451075613,0.0010690141934901476,-0.00045814894838258624
1761230543454514700,3.7805146484375,-0.0009162978967651725,0,0.0007635815418325365
1761230543471306200,3.79730615234375,-0.0006108652451075613,0.0009162978967651725,0.0010690141934901476
1761230543488094200,3.81409423828125,-0.0006108652451075613,0.0009162978967651725,0.0009162978967651725
1761230543504882400,3.83088232421875,-0.00015271631127689034,0.0010690141934901476,0.0003054326225537807
1761230543521656600,3.847656494140625,-0.00015271631127689034,0.0006108652451075613,0.0012217304902151227
1761230543538490400,3.864490478515625,-0.00045814894838258624,0,0.0012217304902151227
1761230543555232000,3.88123193359375,-0.0009162978967651725,0.001527163083665073,0.0012217304902151227
1761230543572042200,3.898042236328125,-0.0009162978967651725,-0.00015271631127689034,-0.00015271631127689034
1761230543588837600,3.914837646484375,-0.0009162978967651725,0.0010690141934901476,0.001679879380390048
1761230543605618400,3.931618408203125,-0.0010690141934901476,0.0007635815418325365,0.0003054326225537807
1761230543622402000,3.948402099609375,-0.00015271631127689034,0.001527163083665073,0.0006108652451075613
1761230543639196700,3.96519677734375,-0.0009162978967651725,0.0006108652451075613,0.0006108652451075613
1761230543655985200,3.981985107421875,-0.0013744467869400978,0.0007635815418325365,0.0007635815418325365
1761230543672757200,3.99875732421875,-0.0010690141934901476,0.0007635815418325365,-0.00015271631127689034
1761230543689544000,4.0155439453125,-0.0013744467869400978,0.0010690141934901476,0.0010690141934901476
1761230543706344200,4.03234423828125,-0.0003054326225537807,0.0010690141934901476,0.0007635815418325365
1761230543723127300,4.049127197265625,-0.0006108652451075613,0.001527163083665073,0.0010690141934901476
1761230543739916500,4.06591650390625,-0.00045814894838258624,0.0003054326225537807,0.00015271631127689034
1761230543756705500,4.08270556640625,-0.0009162978967651725,0.0012217304902151227,0.00015271631127689034
1761230543773492000,4.099491943359375,-0.0010690141934901476,0.0013744467869400978,-0.0009162978967651725
1761230543790303200,4.11630322265625,-0.0010690141934901476,0.0006108652451075613,0.0006108652451075613
1761230543807059200,4.13305908203125,-0.0010690141934901476,0.0003054326225537807,-0.00015271631127689034
1761230543823882500,4.149882568359375,-0.0006108652451075613,0.00045814894838258624,0.0010690141934901476
1761230543840670500,4.16667041015625,-0.0012217304902151227,0.001527163083665073,0.00015271631127689034
1761230543857435400,4.183435302734375,-0.0006108652451075613,0.0010690141934901476,0.0007635815418325365
1761230543874229800,4.200229736328125,-0.0013744467869400978,0.0007635815418325365,0.0007635815418325365
1761230543891031000,4.217031005859375,-0.0013744467869400978,0.0003054326225537807,0.0012217304902151227
1761230543907826400,4.233826416015625,-0.00045814894838258624,0.002138028386980295,0
1761230543924604400,4.2506044921875,-0.0010690141934901476,0.001527163083665073,0.0009162978967651725
1761230543941399000,4.26739892578125,-0.0003054326225537807,0.001679879380390048,0.001832595793530345
1761230543958185200,4.284185302734375,-0.0003054326225537807,0.0012217304902151227,0.0010690141934901476
1761230543974961000,4.3009609375,-0.0013744467869400978,0.0012217304902151227,0.00045814894838258624
1761230543991765800,4.317765869140625,-0.0009162978967651725,0.0010690141934901476,0.0006108652451075613
1761230544008555300,4.33455517578125,-0.0006108652451075613,0.00045814894838258624,0.0009162978967651725
1761230544025369900,4.351369873046875,-0.0010690141934901476,0.0013744467869400978,-0.00015271631127689034
1761230544042116900,4.368116943359375,-0.0006108652451075613,0,0.0010690141934901476
1761230544058926000,4.384926025390625,-0.00015271631127689034,0.0010690141934901476,0.0010690141934901476
1761230544075707400,4.401707275390625,-0.00045814894838258624,0.00045814894838258624,0.0007635815418325365
1761230544092494300,4.418494384765625,-0.0012217304902151227,0.00045814894838258624,0.0007635815418325365
1761230544109293600,4.43529345703125,-0.0009162978967651725,0.0006108652451075613,0.0010690141934901476
1761230544126078000,4.452077880859375,-0.0009162978967651725,0.0013744467869400978,0.0003054326225537807
1761230544142850300,4.468850341796875,-0.0010690141934901476,-0.00045814894838258624,0.0010690141934901476
1761230544159641300,4.485641357421875,-0.0013744467869400978,0.0006108652451075613,-0.00015271631127689034
1761230544176432400,4.502432373046875,-0.0006108652451075613,0.00015271631127689034,0.0006108652451075613
1761230544193207800,4.519207763671875,-0.0006108652451075613,0.0010690141934901476,0.0013744467869400978
1761230544210009300,4.53600927734375,-0.0012217304902151227,0.0003054326225537807,0.0010690141934901476
1761230544226785800,4.552785888671875,-0.0010690141934901476,0.0003054326225537807,0.0012217304902151227
1761230544243587800,4.569587890625,-0.0013744467869400978,0.0012217304902151227,0.0006108652451075613
1761230544260376300,4.586376220703125,-0.0003054326225537807,0.0010690141934901476,0.0009162978967651725
1761230544277174300,4.60317431640625,-0.00015271631127689034,0.001679879380390048,0.0007635815418325365
1761230544293975600,4.6199755859375,-0.0012217304902151227,0.0012217304902151227,0.0007635815418325365
1761230544310758000,4.6367578125,-0.00045814894838258624,0.00045814894838258624,0.00015271631127689034
1761230544327529500,4.653529541015625,-0.00045814894838258624,0.00045814894838258624,-0.00045814894838258624
1761230544344336400,4.67033642578125,-0.0013744467869400978,0.001679879380390048,0.001679879380390048
1761230544361124400,4.687124267578125,-0.0003054326225537807,0.0013744467869400978,0.0003054326225537807
1761230544377913600,4.70391357421875,-0.0006108652451075613,0.00015271631127689034,0.00045814894838258624
1761230544394680600,4.7206806640625,-0.00015271631127689034,0.00045814894838258624,0.0007635815418325365
1761230544411490800,4.73749072265625,-0.00045814894838258624,0.001527163083665073,-0.00015271631127689034
1761230544428280300,4.7542802734375,-0.001527163083665073,0.001527163083665073,-0.0007635815418325365
1761230544445052700,4.771052734375,-0.00045814894838258624,0.0013744467869400978,0.0010690141934901476
1761230544461858300,4.7878583984375,-0.00045814894838258624,0.0003054326225537807,0.001832595793530345
1761230544478648300,4.8046484375,-0.0003054326225537807,0.00045814894838258624,0.0006108652451075613
1761230544495437000,4.82143701171875,-0.0010690141934901476,0.0010690141934901476,0.0006108652451075613
1761230544512227000,4.83822705078125,-0.0003054326225537807,0.001527163083665073,0.0010690141934901476
1761230544529014800,4.855014892578125,-0.0003054326225537807,0.0006108652451075613,-0.0003054326225537807
1761230544545791500,4.87179150390625,-0.0010690141934901476,0.001679879380390048,0.0003054326225537807
1761230544562592800,4.8885927734375,0,0.0003054326225537807,0.0012217304902151227
1761230544579382300,4.90538232421875,-0.0003054326225537807,0.0003054326225537807,0.0010690141934901476
1761230544596169500,4.92216943359375,-0.0013744467869400978,0.0019853119738399982,0.001527163083665073
1761230544612988200,4.93898828125,-0.0003054326225537807,0.0012217304902151227,0.0007635815418325365
1761230544629749500,4.95574951171875,-0.00045814894838258624,0.0012217304902151227,0.0006108652451075613
1761230544646538800,4.972538818359375,-0.0013744467869400978,0.0007635815418325365,-0.00045814894838258624
1761230544663309800,4.989309814453125,-0.00045814894838258624,0.0009162978967651725,-0.0003054326225537807
1761230544680103200,5.006103271484375,-0.0003054326225537807,0.00045814894838258624,0.0010690141934901476
1761230544696891400,5.022891357421875,-0.0003054326225537807,-0.00015271631127689034,0.0006108652451075613
1761230544713681000,5.039680908203125,-0.0009162978967651725,0.0013744467869400978,0.001527163083665073
1761230544730469600,5.0564697265625,-0.00015271631127689034,0.0013744467869400978,0.0010690141934901476
1761230544747259000,5.0732587890625,-0.0013744467869400978,0.0003054326225537807,0.0007635815418325365
1761230544764064800,5.090064697265625,-0.00015271631127689034,0.00045814894838258624,0.0003054326225537807
1761230544780850700,5.1068505859375,-0.00045814894838258624,0.0010690141934901476,0.0007635815418325365
1761230544797639700,5.1236396484375,-0.0009162978967651725,0.0012217304902151227,-0.00015271631127689034
1761230544814429400,5.140429443359375,-0.0010690141934901476,0.0010690141934901476,0
1761230544831200500,5.157200439453125,-0.0009162978967651725,0.00045814894838258624,0
1761230544848003000,5.174003173828125,-0.00015271631127689034,0.0010690141934901476,-0.00015271631127689034
1761230544864800000,5.190800048828125,-0.0012217304902151227,0.0003054326225537807,0.0003054326225537807
1761230544881585000,5.2075849609375,-0.00045814894838258624,0.00015271631127689034,0.0003054326225537807
1761230544898374000,5.224373779296875,-0.00015271631127689034,0.0003054326225537807,0.0012217304902151227
1761230544915160800,5.241160888671875,0.0003054326225537807,0.00045814894838258624,0
1761230544931952400,5.257952392578125,-0.0012217304902151227,0.0013744467869400978,0.0007635815418325365
1761230544948741000,5.2747412109375,-0.0013744467869400978,0.0006108652451075613,0.001527163083665073
1761230544965529900,5.29152978515625,-0.0009162978967651725,0.0010690141934901476,0.00045814894838258624
1761230544982317600,5.308317626953125,-0.0006108652451075613,0.001527163083665073,0.0013744467869400978
1761230544999107800,5.32510791015625,-0.00015271631127689034,0.001527163083665073,0.0007635815418325365
1761230545015897900,5.34189794921875,-0.00045814894838258624,0.0003054326225537807,-0.00015271631127689034
1761230545032686000,5.35868603515625,-0.0013744467869400978,0.0013744467869400978,0
1761230545049473000,5.37547314453125,-0.0003054326225537807,0.0003054326225537807,0.0010690141934901476
1761230545066264000,5.39226416015625,-0.00015271631127689034,-0.0006108652451075613,0.0013744467869400978
1761230545083054300,5.409054443359375,-0.00015271631127689034,0.0010690141934901476,0.00045814894838258624
1761230545099842000,5.425842041015625,-0.0006108652451075613,0.001527163083665073,0
1761230545116632300,5.44263232421875,-0.00045814894838258624,0.0013744467869400978,-0.00015271631127689034
1761230545133403100,5.459403076171875,-0.0009162978967651725,0.00045814894838258624,0.0007635815418325365
1761230545150192600,5.476192626953125,-0.0010690141934901476,0.001527163083665073,0.0013744467869400978
1761230545166984200,5.492984130859375,-0.002138028386980295,0.00015271631127689034,0
1761230545183774500,5.5097744140625,-0.0003054326225537807,0.0013744467869400978,0.0013744467869400978
1761230545200561200,5.52656103515625,-0.0013744467869400978,0.0003054326225537807,0.0013744467869400978
1761230545217352000,5.54335205078125,-0.0003054326225537807,0.0013744467869400978,0.0009162978967651725
1761230545234129400,5.56012939453125,-0.0009162978967651725,0.0010690141934901476,0.0013744467869400978
1761230545250933800,5.576933837890625,-0.0012217304902151227,0,0.00015271631127689034
1761230545267724800,5.593724853515625,-0.0003054326225537807,0.001832595793530345,0.0003054326225537807
1761230545284529700,5.61052978515625,-0.0012217304902151227,0.0012217304902151227,0.0010690141934901476
1761230545301308700,5.62730859375,-0.00015271631127689034,0.0012217304902151227,0.0003054326225537807
1761230545318100000,5.644099853515625,-0.0010690141934901476,-0.0003054326225537807,-0.00015271631127689034
1761230545334901800,5.66090185546875,-0.0006108652451075613,0.00045814894838258624,0.00015271631127689034
1761230545351676700,5.6776767578125,-0.00015271631127689034,0.0022907445672899485,-0.00015271631127689034
1761230545368470500,5.694470458984375,-0.0003054326225537807,0.0007635815418325365,0
1761230545385256200,5.711256103515625,-0.00015271631127689034,0.0007635815418325365,0.00015271631127689034
1761230545402040600,5.72804052734375,-0.0012217304902151227,0.0013744467869400978,0.00015271631127689034
1761230545418834200,5.744834228515625,-0.00015271631127689034,0.001527163083665073,0.0003054326225537807
1761230545435626800,5.761626708984375,-0.0010690141934901476,0.001527163083665073,0.0010690141934901476
1761230545452410400,5.778410400390625,-0.0009162978967651725,0.00045814894838258624,0.0003054326225537807
1761230545469203200,5.795203125,-0.0012217304902151227,0.001527163083665073,0.0006108652451075613
1761230545485990000,5.811989990234375,-0.00045814894838258624,0.0012217304902151227,0.0006108652451075613
1761230545502782000,5.828781982421875,-0.0013744467869400978,0.00045814894838258624,0.0012217304902151227
1761230545519569400,5.8455693359375,-0.0012217304902151227,0.0007635815418325365,0.0007635815418325365
1761230545536351500,5.8623515625,-0.0012217304902151227,0.0010690141934901476,0
1761230545553146000,5.87914599609375,-0.00045814894838258624,0.00045814894838258624,0
1761230545569931300,5.89593115234375,-0.0013744467869400978,0.00045814894838258624,0.0010690141934901476
1761230545586729200,5.912729248046875,-0.0012217304902151227,0.00045814894838258624,0.0007635815418325365
1761230545603513300,5.929513427734375,-0.00015271631127689034,0.0003054326225537807,0.0010690141934901476
1761230545620301000,5.946301025390625,-0.0013744467869400978,0.0006108652451075613,0.00015271631127689034
1761230545637074000,5.963073974609375,-0.0003054326225537807,0.0010690141934901476,0.0010690141934901476
1761230545653867000,5.979866943359375,0,0,0.0003054326225537807
1761230545670655500,5.996655517578125,-0.00045814894838258624,0.0013744467869400978,0.0006108652451075613
1761230545687443700,6.013443603515625,-0.0012217304902151227,0.0007635815418325365,0.0010690141934901476
1761230545704233500,6.0302333984375,-0.0009162978967651725,0.0007635815418325365,0.0013744467869400978
1761230545721023500,6.0470234375,-0.0006108652451075613,0.0013744467869400978,0.0010690141934901476
1761230545737811500,6.0638115234375,-0.00015271631127689034,0.0009162978967651725,0.00015271631127689034
1761230545754618400,6.080618408203125,-0.0013744467869400978,0.0006108652451075613,0.00045814894838258624
1761230545771405800,6.09740576171875,-0.0012217304902151227,0.0013744467869400978,0.0009162978967651725
1761230545788175000,6.114175048828125,-0.0006108652451075613,0.0010690141934901476,0.00045814894838258624
1761230545804981800,6.130981689453125,-0.00045814894838258624,0.0006108652451075613,0.0010690141934901476
1761230545821764400,6.147764404296875,-0.0013744467869400978,0.0013744467869400978,0.0003054326225537807
1761230545838539000,6.1645390625,-0.00015271631127689034,0.0022907445672899485,-0.00015271631127689034
1761230545855352300,6.181352294921875,-0.0012217304902151227,0.0012217304902151227,0.0013744467869400978
1761230545872138200,6.19813818359375,-0.0006108652451075613,0.001832595793530345,0.0009162978967651725
1761230545888913700,6.21491357421875,-0.0006108652451075613,0.0007635815418325365,0.0006108652451075613
1761230545905715700,6.2317158203125,-0.0003054326225537807,0.001832595793530345,0.0012217304902151227
1761230545922497000,6.2484970703125,-0.00015271631127689034,0.0012217304902151227,0.0009162978967651725
1761230545939303700,6.2653037109375,-0.0013744467869400978,0.0013744467869400978,0.0010690141934901476
1761230545956052200,6.28205224609375,-0.0003054326225537807,0.0010690141934901476,0.0007635815418325365
1761230545972870100,6.2988701171875,-0.0006108652451075613,0.001679879380390048,0.0012217304902151227
1761230545989659000,6.315658935546875,-0.0012217304902151227,0.0012217304902151227,0.0006108652451075613
1761230546006451700,6.33245166015625,-0.0003054326225537807,0.00045814894838258624,0.001832595793530345
1761230546023252200,6.349252197265625,-0.0013744467869400978,0.0010690141934901476,0.002138028386980295
1761230546040027600,6.366027587890625,-0.0010690141934901476,0.0012217304902151227,0.001679879380390048
1761230546056811800,6.382811767578125,-0.00015271631127689034,0.0010690141934901476,0.0006108652451075613
1761230546073610500,6.399610595703125,-0.0010690141934901476,0.0013744467869400978,0.00015271631127689034
1761230546090382800,6.4163828125,-0.00015271631127689034,0.0013744467869400978,0.0010690141934901476
1761230546107185700,6.433185546875,-0.00015271631127689034,0.001832595793530345,-0.0003054326225537807
1761230546123956700,6.449956787109375,-0.0013744467869400978,0.0013744467869400978,0.0007635815418325365
1761230546140748000,6.466748046875,-0.0013744467869400978,0.0006108652451075613,0.0010690141934901476
1761230546157538600,6.48353857421875,-0.00015271631127689034,0.0010690141934901476,0
1761230546174326800,6.500326904296875,-0.00045814894838258624,0.0007635815418325365,0.0009162978967651725
1761230546191115800,6.51711572265625,-0.00045814894838258624,0.0003054326225537807,0.0010690141934901476
1761230546207905000,6.533905029296875,-0.0012217304902151227,0.0010690141934901476,0.0009162978967651725
1761230546224687400,6.550687255859375,-0.00015271631127689034,0.0013744467869400978,0.0003054326225537807
1761230546241472800,6.56747265625,-0.0006108652451075613,0.0012217304902151227,0.0010690141934901476
1761230546258300000,6.5842998046875,-0.0009162978967651725,0.0003054326225537807,0.0009162978967651725
1761230546275075300,6.601075439453125,-0.0013744467869400978,0.0006108652451075613,0
1761230546291860500,6.617860595703125,-0.00015271631127689034,0.0006108652451075613,0.0006108652451075613
1761230546308656600,6.63465673828125,-0.0003054326225537807,0.0010690141934901476,0.0007635815418325365
1761230546325427200,6.65142724609375,-0.0006108652451075613,0.0012217304902151227,0.0009162978967651725
1761230546342217700,6.6682177734375,-0.00045814894838258624,0.0007635815418325365,0.0003054326225537807
1761230546359000300,6.685000244140625,-0.0012217304902151227,0.0006108652451075613,0
1761230546375797000,6.701796875,-0.0010690141934901476,0.00045814894838258624,-0.00015271631127689034
1761230546392591400,6.71859130859375,-0.0006108652451075613,0.0003054326225537807,0.0003054326225537807
1761230546409360600,6.735360595703125,-0.00045814894838258624,0.00045814894838258624,0.0007635815418325365
1761230546426182100,6.75218212890625,-0.0003054326225537807,0.0010690141934901476,0.00015271631127689034
1761230546442953700,6.76895361328125,-0.0006108652451075613,0.0007635815418325365,0.0006108652451075613
1761230546459752200,6.785752197265625,-0.0009162978967651725,0.0012217304902151227,0.0007635815418325365
1761230546476543500,6.80254345703125,-0.0012217304902151227,0.0010690141934901476,0
1761230546493302800,6.819302734375,-0.00045814894838258624,0.0003054326225537807,0.00045814894838258624
1761230546510121000,6.836120849609375,-0.0009162978967651725,0.00045814894838258624,0.001679879380390048
1761230546526911200,6.8529111328125,-0.0013744467869400978,0.0012217304902151227,0.00015271631127689034
1761230546543676400,6.869676513671875,-0.00045814894838258624,0.00045814894838258624,0.0009162978967651725
1761230546560488700,6.88648876953125,-0.0003054326225537807,0.00045814894838258624,0.0010690141934901476
1761230546577275100,6.903275146484375,-0.0012217304902151227,0.0009162978967651725,0.001679879380390048
1761230546594046700,6.920046630859375,-0.0013744467869400978,0.0003054326225537807,0.0003054326225537807
1761230546610842000,6.936842041015625,-0.0006108652451075613,0.0003054326225537807,0.0003054326225537807
1761230546627631000,6.953631103515625,-0.0013744467869400978,0.0009162978967651725,0.00015271631127689034
1761230546644418000,6.97041796875,-0.0006108652451075613,0.0006108652451075613,-0.00015271631127689034
1761230546661209600,6.987209716796875,-0.0003054326225537807,0.0003054326225537807,0.0007635815418325365
1761230546677997800,7.003997802734375,-0.00045814894838258624,0.0013744467869400978,0.0009162978967651725
1761230546694774500,7.0207744140625,-0.0013744467869400978,-0.00045814894838258624,0.0006108652451075613
1761230546711575800,7.037575927734375,-0.0006108652451075613,0.00045814894838258624,-0.0003054326225537807
1761230546728365300,7.054365234375,-0.0012217304902151227,0.0003054326225537807,0.0003054326225537807
1761230546745171700,7.071171630859375,-0.0013744467869400978,0.001832595793530345,0.0009162978967651725
1761230546761957000,7.08795703125,-0.0010690141934901476,0.0006108652451075613,0.0003054326225537807
1761230546778743300,7.104743408203125,-0.0010690141934901476,0,0.0003054326225537807
1761230546795532000,7.121531982421875,-0.0006108652451075613,0.00045814894838258624,-0.00045814894838258624
1761230546812328000,7.138327880859375,-0.0013744467869400978,0.0006108652451075613,-0.00015271631127689034
1761230546829113300,7.15511328125,-0.0012217304902151227,0.0010690141934901476,0.0007635815418325365
1761230546845898800,7.171898681640625,-0.0012217304902151227,0.0003054326225537807,0.0010690141934901476
1761230546862675700,7.18867578125,-0.0012217304902151227,0.0003054326225537807,-0.0007635815418325365
1761230546879482600,7.205482666015625,-0.0010690141934901476,0.001527163083665073,0.0009162978967651725
1761230546896267300,7.222267333984375,-0.0003054326225537807,0.0003054326225537807,0.0006108652451075613
1761230546913058600,7.23905859375,-0.0006108652451075613,0.0009162978967651725,-0.0006108652451075613
1761230546929847600,7.25584765625,-0.0013744467869400978,0.0007635815418325365,0.001679879380390048
1761230546946636000,7.272635986328125,-0.0013744467869400978,0.0003054326225537807,0.0006108652451075613
1761230546963425500,7.289425537109375,-0.0013744467869400978,0.0007635815418325365,0.0013744467869400978
1761230546980215600,7.306215576171875,-0.00045814894838258624,0.0003054326225537807,0.0009162978967651725
1761230546997003800,7.323003662109375,-0.0013744467869400978,0.0003054326225537807,0.0006108652451075613
1761230547013792300,7.339792236328125,-0.00045814894838258624,0.001527163083665073,0.0009162978967651725
1761230547030580200,7.356580322265625,-0.0010690141934901476,0.0010690141934901476,0.0006108652451075613
1761230547047370200,7.373370361328125,-0.0006108652451075613,0.0010690141934901476,0
1761230547064160500,7.390160400390625,-0.0013744467869400978,0.0010690141934901476,0.0006108652451075613
1761230547080948700,7.40694873046875,-0.0013744467869400978,0.0012217304902151227,0.0010690141934901476
1761230547097719600,7.423719482421875,-0.0009162978967651725,0.001527163083665073,0.0009162978967651725
1761230547114513200,7.44051318359375,-0.00015271631127689034,0.0013744467869400978,0.0003054326225537807
1761230547131302400,7.457302490234375,-0.0007635815418325365,0.0010690141934901476,0.001832595793530345
1761230547148091000,7.4740908203125,-0.0012217304902151227,0.0006108652451075613,0.001679879380390048
1761230547164880600,7.490880615234375,-0.0003054326225537807,0.0006108652451075613,0.0010690141934901476
1761230547181668900,7.5076689453125,-0.0006108652451075613,0.0003054326225537807,0.0010690141934901476
1761230547198458600,7.524458740234375,-0.0003054326225537807,0.0007635815418325365,0.0010690141934901476
1761230547215245800,7.541245849609375,-0.0006108652451075613,0.002138028386980295,-0.00015271631127689034
1761230547232040000,7.5580400390625,-0.00015271631127689034,-0.00045814894838258624,0.0012217304902151227
1761230547248839000,7.5748388671875,-0.0006108652451075613,0,0.0003054326225537807
1761230547265628400,7.59162841796875,-0.00045814894838258624,0.0010690141934901476,0
1761230547282417000,7.6084169921875,-0.0009162978967651725,0.0007635815418325365,0.0010690141934901476
1761230547299190300,7.625190185546875,-0.0012217304902151227,0,0.0010690141934901476
1761230547315994600,7.64199462890625,-0.0013744467869400978,0.00045814894838258624,0.0012217304902151227
1761230547332785000,7.658784912109375,-0.0009162978967651725,0.0007635815418325365,0.00015271631127689034
1761230547349570800,7.67557080078125,-0.0013744467869400978,0.0007635815418325365,0.001679879380390048
1761230547366363000,7.69236279296875,-0.0006108652451075613,0.0003054326225537807,0.0003054326225537807
1761230547383151400,7.7091513671875,-0.0010690141934901476,0.0012217304902151227,0.0003054326225537807
1761230547399947300,7.725947265625,-0.0012217304902151227,0.0003054326225537807,0.00015271631127689034
1761230547416727300,7.742727294921875,-0.0012217304902151227,-0.0003054326225537807,0.0009162978967651725
1761230547433519600,7.75951953125,-0.0013744467869400978,-0.00015271631127689034,0.0006108652451075613
1761230547450302000,7.776302001953125,-0.0006108652451075613,0.0013744467869400978,0.0010690141934901476
1761230547467103000,7.79310302734375,-0.00015271631127689034,0.0007635815418325365,0.0003054326225537807
1761230547483867600,7.80986767578125,-0.00015271631127689034,0.0007635815418325365,0.0003054326225537807
1761230547500674800,7.8266748046875,-0.00015271631127689034,0.001679879380390048,0.00045814894838258624
1761230547517455000,7.843455078125,-0.00015271631127689034,0.002138028386980295,0.001832595793530345
1761230547534256400,7.86025634765625,-0.0013744467869400978,0.0010690141934901476,0.0012217304902151227
1761230547551042300,7.877042236328125,-0.0006108652451075613,0.0007635815418325365,0.00015271631127689034
1761230547567831000,7.8938310546875,-0.0012217304902151227,0.001527163083665073,0
1761230547584603000,7.910602783203125,-0.0013744467869400978,0.0012217304902151227,0.0009162978967651725
1761230547601395500,7.9273955078125,-0.0013744467869400978,0.00045814894838258624,-0.00045814894838258624
1761230547618181000,7.94418115234375,-0.0010690141934901476,-0.0003054326225537807,0.00015271631127689034
1761230547634965000,7.960965087890625,-0.0012217304902151227,0.0007635815418325365,0.0009162978967651725
1761230547651762000,7.977761962890625,-0.0013744467869400978,0.0003054326225537807,0.0009162978967651725
1761230547668550100,7.994550048828125,-0.0010690141934901476,0.0012217304902151227,-0.00015271631127689034
1761230547685340000,8.01133984375,-0.0006108652451075613,0.0010690141934901476,0.0006108652451075613
1761230547702126300,8.028126220703125,-0.0009162978967651725,0.0012217304902151227,0.0009162978967651725
1761230547718921500,8.04492138671875,-0.0012217304902151227,0.0003054326225537807,0.0009162978967651725
1761230547735701800,8.06170166015625,-0.0013744467869400978,0.0012217304902151227,0.0007635815418325365
1761230547752510500,8.078510498046874,-0.0010690141934901476,0.0006108652451075613,0.001679879380390048
1761230547769296100,8.095296142578125,-0.0013744467869400978,0.0010690141934901476,0.00015271631127689034
1761230547786092500,8.112092529296875,-0.00045814894838258624,0.0010690141934901476,0.0010690141934901476
1761230547802876400,8.12887646484375,-0.00045814894838258624,-0.0003054326225537807,0.00015271631127689034
1761230547819666000,8.145666015625,-0.00015271631127689034,0.0013744467869400978,0.0010690141934901476
1761230547836456200,8.162456298828126,-0.0013744467869400978,0.0013744467869400978,0.0010690141934901476
1761230547853244000,8.179243896484374,-0.0013744467869400978,0.0003054326225537807,0.0006108652451075613
1761230547870034200,8.1960341796875,-0.0006108652451075613,0.0007635815418325365,0.0010690141934901476
1761230547886822100,8.212822265625,-0.00045814894838258624,0.0003054326225537807,0.0009162978967651725
1761230547903612200,8.229612060546875,-0.00015271631127689034,0.001527163083665073,0.001527163083665073
1761230547920396500,8.246396484375,-0.0003054326225537807,0.0013744467869400978,0.0003054326225537807
1761230547937194800,8.26319482421875,-0.0012217304902151227,0.0010690141934901476,0.0009162978967651725
1761230547953974800,8.279974853515625,-0.0012217304902151227,0.0012217304902151227,0
1761230547970768400,8.296768310546875,-0.0013744467869400978,0.0010690141934901476,-0.00015271631127689034
1761230547987536000,8.313535888671876,-0.0006108652451075613,0.0013744467869400978,0.0009162978967651725
1761230548004350500,8.3303505859375,-0.00015271631127689034,0.0006108652451075613,0.0009162978967651725
1761230548021132000,8.347132080078126,-0.0006108652451075613,0.001527163083665073,0.0013744467869400978
1761230548037910500,8.36391064453125,-0.0012217304902151227,0.0006108652451075613,0.0003054326225537807
1761230548054695700,8.38069580078125,-0.0003054326225537807,0.001527163083665073,0.0007635815418325365
1761230548071485700,8.397485595703126,-0.0010690141934901476,0.0012217304902151227,0.0007635815418325365
1761230548088272000,8.41427197265625,-0.00015271631127689034,0.00045814894838258624,0.0007635815418325365
1761230548105071900,8.43107177734375,-0.00015271631127689034,0.002138028386980295,0.0003054326225537807
1761230548121845800,8.447845703125,-0.0003054326225537807,0.001832595793530345,0.0003054326225537807
1761230548138641700,8.4646416015625,-0.0003054326225537807,0.0012217304902151227,0.001527163083665073
1761230548155433500,8.48143359375,-0.0012217304902151227,0.0013744467869400978,0
1761230548172225800,8.498225830078125,-0.00045814894838258624,0.0012217304902151227,0
1761230548189008600,8.515008544921875,-0.0013744467869400978,0.0006108652451075613,0.0010690141934901476
1761230548205804300,8.53180419921875,-0.0003054326225537807,0.0007635815418325365,0.00015271631127689034
1761230548222589400,8.54858935546875,-0.00045814894838258624,0.0003054326225537807,-0.0003054326225537807
1761230548239396400,8.565396240234374,-0.0003054326225537807,0.001527163083665073,0.0006108652451075613
1761230548256181500,8.582181396484375,-0.0010690141934901476,0.0007635815418325365,0.0003054326225537807
1761230548272970800,8.598970703125,-0.0010690141934901476,0.0007635815418325365,0.0006108652451075613
1761230548289742600,8.61574267578125,-0.0013744467869400978,0.0006108652451075613,-0.00045814894838258624
1761230548306546700,8.632546630859375,-0.0013744467869400978,0.0010690141934901476,0.00045814894838258624
1761230548323334400,8.64933447265625,-0.0006108652451075613,0.00015271631127689034,0
1761230548340131800,8.6661318359375,-0.0006108652451075613,0.0006108652451075613,0.00045814894838258624
1761230548356898000,8.68289794921875,-0.00015271631127689034,0.0007635815418325365,0.0009162978967651725
1761230548373705500,8.69970556640625,-0.0010690141934901476,0.0012217304902151227,0.0010690141934901476
1761230548390489900,8.71648974609375,-0.0013744467869400978,0.0003054326225537807,0.0007635815418325365
1761230548407283000,8.733282958984375,-0.00015271631127689034,0.0009162978967651725,0.0010690141934901476
1761230548424072000,8.750072021484375,-0.0013744467869400978,0.00045814894838258624,0.0003054326225537807
1761230548440857000,8.766857177734375,-0.0013744467869400978,0.00015271631127689034,-0.00015271631127689034
1761230548457650000,8.78364990234375,-0.0012217304902151227,0.00045814894838258624,0
1761230548474435300,8.800435302734375,-0.0010690141934901476,0.001527163083665073,0.00015271631127689034
1761230548491213300,8.81721337890625,-0.0012217304902151227,0.0012217304902151227,0
1761230548508039700,8.834039794921875,-0.00015271631127689034,0.0012217304902151227,0.0009162978967651725
1761230548524806000,8.850805908203125,-0.0012217304902151227,0.00045814894838258624,-0.0003054326225537807
1761230548541602600,8.8676025390625,-0.0003054326225537807,0.0012217304902151227,0.0006108652451075613
1761230548558364400,8.884364501953126,-0.0013744467869400978,0.0003054326225537807,0.001832595793530345
1761230548575159800,8.901159912109375,-0.0012217304902151227,0.001679879380390048,0.0006108652451075613
1761230548591948300,8.9179482421875,-0.0003054326225537807,0.0003054326225537807,0.001832595793530345
1761230548608737800,8.93473779296875,-0.0003054326225537807,0.0003054326225537807,0.0006108652451075613
1761230548625525000,8.95152490234375,-0.0003054326225537807,0.0009162978967651725,0.0012217304902151227
1761230548642315800,8.968315673828124,-0.00045814894838258624,0,0.0006108652451075613
1761230548659104500,8.9851044921875,-0.0019853119738399982,0.0010690141934901476,-0.00015271631127689034
1761230548675894000,9.00189404296875,-0.0003054326225537807,0.0012217304902151227,0.0006108652451075613
1761230548692682000,9.018681884765625,-0.0012217304902151227,0.0006108652451075613,0.0006108652451075613
1761230548709459200,9.035459228515625,-0.00015271631127689034,0.0006108652451075613,0.0009162978967651725
1761230548726278100,9.052278076171875,-0.0003054326225537807,0.0006108652451075613,0.0009162978967651725
1761230548743059000,9.069058837890625,-0.0003054326225537807,0.0012217304902151227,-0.0007635815418325365
1761230548759854800,9.085854736328125,-0.0006108652451075613,0.0007635815418325365,0.0006108652451075613
1761230548776626200,9.102626220703126,-0.00015271631127689034,0.0007635815418325365,0.00045814894838258624
1761230548793422800,9.1194228515625,-0.0006108652451075613,0.001527163083665073,0.0013744467869400978
1761230548810203100,9.136203125,-0.0012217304902151227,0.0012217304902151227,0.0009162978967651725
1761230548827008800,9.1530087890625,-0.0009162978967651725,0.001527163083665073,-0.00015271631127689034
1761230548843798500,9.169798583984376,-0.0013744467869400978,0,0.00015271631127689034
1761230548860574500,9.186574462890626,-0.0013744467869400978,0.00045814894838258624,0.0010690141934901476
1761230548877359600,9.203359619140626,-0.0006108652451075613,0.0003054326225537807,-0.00015271631127689034
1761230548894163500,9.22016357421875,-0.0012217304902151227,0.0012217304902151227,0.001832595793530345
1761230548910954800,9.236954833984376,-0.00015271631127689034,0.0012217304902151227,0.0010690141934901476
1761230548927727400,9.253727294921875,-0.0006108652451075613,0.0013744467869400978,0.0003054326225537807
1761230548944530700,9.27053076171875,-0.00015271631127689034,0.0010690141934901476,0.0007635815418325365
1761230548961320700,9.28732080078125,-0.00045814894838258624,0.001679879380390048,0.0003054326225537807
1761230548978094800,9.3040947265625,-0.00045814894838258624,0.00015271631127689034,0.0012217304902151227
1761230548994899200,9.320899169921875,-0.0013744467869400978,0.0012217304902151227,0.0010690141934901476
1761230549011675000,9.3376748046875,-0.0006108652451075613,0.0010690141934901476,-0.0006108652451075613
1761230549028477400,9.3544775390625,-0.0012217304902151227,0.0003054326225537807,0.0003054326225537807
1761230549045249800,9.371249755859376,-0.0010690141934901476,0.0006108652451075613,0.0010690141934901476
1761230549062041300,9.388041259765625,-0.00045814894838258624,0.0012217304902151227,-0.0006108652451075613
1761230549078829800,9.404829833984374,-0.0009162978967651725,0.0012217304902151227,0.0010690141934901476
1761230549095619800,9.421619873046875,-0.001679879380390048,0.0003054326225537807,0.0007635815418325365
1761230549112409000,9.4384091796875,-0.0009162978967651725,0.0013744467869400978,0.0013744467869400978
1761230549129184800,9.455184814453125,-0.0010690141934901476,0.0013744467869400978,0.0006108652451075613
1761230549145987000,9.471987060546875,-0.0010690141934901476,0.0006108652451075613,0.0007635815418325365
1761230549162775800,9.48877587890625,-0.0012217304902151227,0.001679879380390048,-0.0007635815418325365
1761230549179559000,9.505558837890625,-0.0009162978967651725,0.0006108652451075613,0.0010690141934901476
1761230549196353800,9.522353759765625,-0.00015271631127689034,0.0003054326225537807,0.0010690141934901476
1761230549213147000,9.53914697265625,-0.0012217304902151227,0.0007635815418325365,0.00015271631127689034
1761230549229945300,9.5559453125,-0.0003054326225537807,0.00015271631127689034,0.0009162978967651725
1761230549246735600,9.572735595703126,-0.0012217304902151227,0.0013744467869400978,0.0010690141934901476
1761230549263523300,9.5895234375,-0.00015271631127689034,0.001527163083665073,0.0007635815418325365
1761230549280297000,9.606296875,-0.0003054326225537807,0.0007635815418325365,0.001832595793530345
1761230549297119500,9.623119384765625,-0.0006108652451075613,0.001527163083665073,0.0010690141934901476
1761230549313894700,9.639894775390625,-0.00015271631127689034,0.0009162978967651725,0.0003054326225537807
1761230549330676500,9.656676513671876,-0.00045814894838258624,0.0019853119738399982,0.0009162978967651725
1761230549347460600,9.673460693359376,-0.0006108652451075613,0.0012217304902151227,0.0009162978967651725
1761230549364254500,9.69025439453125,-0.0009162978967651725,0.001527163083665073,0.0009162978967651725
1761230549381034500,9.707034423828125,-0.0013744467869400978,0.0010690141934901476,0.0006108652451075613
1761230549397847300,9.723847412109375,-0.0003054326225537807,0.0006108652451075613,0.0006108652451075613
1761230549414626000,9.7406259765625,-0.00045814894838258624,0.001679879380390048,0.0009162978967651725
1761230549431394000,9.75739404296875,-0.0013744467869400978,0.0003054326225537807,0.0010690141934901476
1761230549448187100,9.774187255859376,-0.0010690141934901476,-0.00015271631127689034,0.0003054326225537807
1761230549464975600,9.7909755859375,-0.00045814894838258624,0.0006108652451075613,0
1761230549481768700,9.807768798828125,-0.0009162978967651725,0.0010690141934901476,0.00045814894838258624
1761230549498556400,9.824556396484375,-0.0009162978967651725,0.0013744467869400978,-0.00015271631127689034
1761230549515332900,9.841332763671875,-0.00045814894838258624,0.0006108652451075613,0.00015271631127689034
1761230549532134700,9.858134765625,-0.0006108652451075613,0.0006108652451075613,0.0006108652451075613
1761230549548925700,9.87492578125,-0.0010690141934901476,-0.00045814894838258624,-0.0007635815418325365
1761230549565712600,9.891712646484375,-0.0013744467869400978,0.0007635815418325365,0.0007635815418325365
1761230549582502000,9.908501953125,-0.0013744467869400978,0.00045814894838258624,0.0012217304902151227
1761230549599291000,9.925290771484375,-0.0013744467869400978,0.00045814894838258624,0.0010690141934901476
1761230549616080600,9.94208056640625,-0.0013744467869400978,0.0013744467869400978,0
1761230549632868900,9.958868896484375,-0.0013744467869400978,0.001527163083665073,0.00015271631127689034
1761230549649657000,9.975656982421874,-0.0012217304902151227,0.001527163083665073,0.00015271631127689034
1761230549666443500,9.992443603515625,-0.00045814894838258624,0.0006108652451075613,0.0010690141934901476
1761230549683241200,10.0092412109375,-0.0013744467869400978,0.0006108652451075613,0.0006108652451075613
1761230549700025000,10.026025146484375,-0.0006108652451075613,0.00045814894838258624,0.0012217304902151227
1761230549716825900,10.042825927734375,-0.0012217304902151227,0.002138028386980295,0.001527163083665073
1761230549733613800,10.05961376953125,-0.0003054326225537807,0.0003054326225537807,0.0009162978967651725
1761230549750411300,10.076411376953125,-0.00015271631127689034,0.0009162978967651725,0.0007635815418325365
1761230549767185400,10.093185302734375,-0.0003054326225537807,0.0003054326225537807,0.0012217304902151227
1761230549783989500,10.109989501953125,-0.0012217304902151227,0.0010690141934901476,0.0006108652451075613
1761230549800769800,10.126769775390626,-0.0013744467869400978,0.00045814894838258624,0.0010690141934901476
1761230549817562400,10.143562255859376,-0.0006108652451075613,0.001527163083665073,0.0013744467869400978
1761230549834354200,10.160354248046875,-0.0006108652451075613,0.0003054326225537807,0.0010690141934901476
1761230549851138800,10.177138916015625,-0.0013744467869400978,0.001527163083665073,0
1761230549867929300,10.193929443359375,-0.0009162978967651725,0.0009162978967651725,0
1761230549884714500,10.210714599609375,-0.00015271631127689034,0.001527163083665073,0.0003054326225537807
1761230549901511700,10.22751171875,-0.0013744467869400978,0.0009162978967651725,0.0003054326225537807
1761230549918297300,10.24429736328125,-0.0010690141934901476,0.001527163083665073,0.0003054326225537807
1761230549935085000,10.2610849609375,-0.0013744467869400978,0.0003054326225537807,0.0010690141934901476
1761230549951875600,10.27787548828125,-0.0003054326225537807,0.0010690141934901476,0.0007635815418325365
1761230549968657000,10.294656982421875,-0.0013744467869400978,0,0.0009162978967651725
1761230549985442300,10.3114423828125,-0.0013744467869400978,0.0013744467869400978,0.0007635815418325365
1761230550002227700,10.328227783203126,-0.0010690141934901476,0.001527163083665073,0.0009162978967651725
1761230550019017700,10.345017822265625,-0.0012217304902151227,0.0012217304902151227,0.0003054326225537807
1761230550035803600,10.3618037109375,-0.0006108652451075613,0.0012217304902151227,0.0007635815418325365
1761230550052596700,10.3785966796875,-0.00015271631127689034,0.0012217304902151227,0.0009162978967651725
1761230550069384000,10.395384033203126,-0.0006108652451075613,0.001527163083665073,0.0010690141934901476
1761230550086173400,10.41217333984375,-0.0010690141934901476,0.001527163083665073,0.0009162978967651725
1761230550102962000,10.4289619140625,-0.0009162978967651725,0.0006108652451075613,0
1761230550119751400,10.44575146484375,-0.00045814894838258624,0.0003054326225537807,0.0010690141934901476
1761230550136543200,10.462543212890624,-0.0013744467869400978,0.0006108652451075613,0.0006108652451075613
1761230550153326600,10.47932666015625,-0.0003054326225537807,0.0006108652451075613,0.0003054326225537807
1761230550170119000,10.496118896484376,-0.00045814894838258624,0.0010690141934901476,0.0007635815418325365
1761230550186907100,10.5129072265625,-0.0009162978967651725,0.00045814894838258624,0.0003054326225537807
1761230550203699700,10.52969970703125,-0.00015271631127689034,0.0019853119738399982,0.0012217304902151227
1761230550220496600,10.54649658203125,-0.0006108652451075613,0.001527163083665073,0.0010690141934901476
1761230550237295600,10.563295654296875,-0.0009162978967651725,0.0010690141934901476,0.0003054326225537807
1761230550254056000,10.580055908203125,-0.00045814894838258624,0.0013744467869400978,0.00015271631127689034
1761230550270861800,10.59686181640625,-0.0012217304902151227,0.001527163083665073,0.00045814894838258624
1761230550287659800,10.61365966796875,-0.0009162978967651725,0.0007635815418325365,0.0010690141934901476
1761230550304444700,10.630444580078125,-0.0013744467869400978,-0.00045814894838258624,-0.00015271631127689034
1761230550321226200,10.647226318359374,-0.00045814894838258624,0.0013744467869400978,0.0007635815418325365
1761230550338030000,10.664030029296875,-0.00045814894838258624,0.0013744467869400978,0.0010690141934901476
1761230550354781700,10.68078173828125,-0.0012217304902151227,0.001527163083665073,0.0010690141934901476
1761230550371601000,10.697600830078125,-0.0013744467869400978,0.0010690141934901476,0.00045814894838258624
1761230550388385800,10.7143857421875,-0.0006108652451075613,0.00045814894838258624,0.0009162978967651725
1761230550405182700,10.7311826171875,-0.0012217304902151227,0.001679879380390048,0.0003054326225537807
1761230550421966600,10.747966552734376,-0.0012217304902151227,0.0003054326225537807,0
1761230550438756400,10.76475634765625,-0.0010690141934901476,0.0010690141934901476,0.0006108652451075613
1761230550455546600,10.781546630859374,-0.0012217304902151227,0.00045814894838258624,0.0010690141934901476
1761230550472334800,10.7983349609375,-0.00045814894838258624,0.00015271631127689034,0.0010690141934901476
1761230550489121800,10.815121826171875,-0.0006108652451075613,0.00045814894838258624,0.0009162978967651725
1761230550505896400,10.831896484375,-0.0003054326225537807,0.0003054326225537807,0.0013744467869400978
1761230550522688500,10.8486884765625,-0.00045814894838258624,0.0003054326225537807,0.00015271631127689034
1761230550539477000,10.86547705078125,-0.0003054326225537807,0.0007635815418325365,-0.00015271631127689034
1761230550556266800,10.882266845703125,-0.0010690141934901476,0.001527163083665073,0
1761230550573055200,10.89905517578125,-0.0003054326225537807,0.00015271631127689034,0.0009162978967651725
1761230550589844700,10.9158447265625,-0.002138028386980295,0.001527163083665073,0.0006108652451075613
1761230550606614800,10.93261474609375,-0.0006108652451075613,0,0.0007635815418325365
1761230550623423000,10.949423095703125,-0.0010690141934901476,0.0013744467869400978,0.0009162978967651725
1761230550640211500,10.96621142578125,-0.0010690141934901476,0.0010690141934901476,0.0009162978967651725
1761230550657001200,10.983001220703125,-0.0009162978967651725,0.00045814894838258624,0.00045814894838258624
1761230550673789000,10.999788818359375,-0.0003054326225537807,0.001527163083665073,0.0012217304902151227
1761230550690579500,11.016579345703125,-0.0009162978967651725,0.0007635815418325365,0.0007635815418325365
1761230550707384600,11.033384521484376,-0.0012217304902151227,0.0003054326225537807,0.0007635815418325365
1761230550724166100,11.050166259765625,-0.0013744467869400978,0.0013744467869400978,0.0006108652451075613
1761230550740957400,11.06695751953125,-0.0010690141934901476,0.00045814894838258624,0.0007635815418325365
1761230550757749500,11.08374951171875,-0.0012217304902151227,0.001527163083665073,0.0010690141934901476
1761230550774502000,11.100501953125,-0.0006108652451075613,0.0003054326225537807,0.0003054326225537807
1761230550791327200,11.1173271484375,-0.0013744467869400978,0.001527163083665073,0.0013744467869400978
1761230550808113200,11.134113037109374,-0.00045814894838258624,0.001527163083665073,0.0007635815418325365
1761230550824902100,11.150902099609375,-0.00045814894838258624,0.002138028386980295,0.0006108652451075613
1761230550841697500,11.167697509765626,-0.0009162978967651725,0.00045814894838258624,0.001679879380390048
1761230550858483000,11.18448291015625,-0.0013744467869400978,0.0010690141934901476,0.0009162978967651725
1761230550875270100,11.201270263671875,-0.0009162978967651725,0.0003054326225537807,-0.00015271631127689034
1761230550892071700,11.21807177734375,-0.0006108652451075613,-0.00045814894838258624,0.0010690141934901476
1761230550908849700,11.234849609375,-0.0012217304902151227,0.0012217304902151227,0.0003054326225537807
1761230550925639400,11.251639404296874,-0.0013744467869400978,0.0003054326225537807,0.0009162978967651725
1761230550942425900,11.26842578125,-0.0006108652451075613,0.0012217304902151227,0.0009162978967651725
1761230550959200800,11.28520068359375,-0.0013744467869400978,0.0012217304902151227,0.0012217304902151227
1761230550976006700,11.302006591796875,-0.0003054326225537807,0.0003054326225537807,0.0007635815418325365
1761230550992778000,11.318778076171874,-0.00045814894838258624,0,0.0006108652451075613
1761230551009570600,11.335570556640626,-0.00015271631127689034,0.002138028386980295,0.0009162978967651725
1761230551026346800,11.3523466796875,-0.0006108652451075613,0.0012217304902151227,-0.00015271631127689034
1761230551043148500,11.3691484375,-0.0012217304902151227,-0.00015271631127689034,0.0003054326225537807
1761230551059937800,11.385937744140625,-0.00045814894838258624,-0.00015271631127689034,0.0009162978967651725
1761230551076726500,11.4027265625,-0.00015271631127689034,0.0007635815418325365,0.0009162978967651725
1761230551093513700,11.419513671875,-0.0012217304902151227,0.00045814894838258624,-0.00015271631127689034
1761230551110304500,11.436304443359376,-0.0003054326225537807,0.0007635815418325365,0.0009162978967651725
1761230551127093000,11.453093017578125,-0.0010690141934901476,0.0007635815418325365,0.00045814894838258624
1761230551143871500,11.46987158203125,-0.0003054326225537807,0.0003054326225537807,0.0006108652451075613
1761230551160659500,11.486659423828126,-0.0009162978967651725,0.0007635815418325365,0.0013744467869400978
1761230551177456600,11.50345654296875,-0.0006108652451075613,0.0007635815418325365,0.0010690141934901476
1761230551194253800,11.52025390625,-0.0009162978967651725,0.0006108652451075613,0.00015271631127689034
1761230551211053000,11.537052978515625,-0.0006108652451075613,0.0010690141934901476,0.0003054326225537807
1761230551227842300,11.55384228515625,-0.0010690141934901476,-0.0003054326225537807,0.0019853119738399982
1761230551244614100,11.5706142578125,-0.0013744467869400978,0.00045814894838258624,0.0013744467869400978
1761230551261418500,11.58741845703125,-0.0012217304902151227,0.00045814894838258624,0.0010690141934901476
1761230551278201900,11.604201904296875,-0.0012217304902151227,0.0012217304902151227,0.0009162978967651725
1761230551294998800,11.620998779296874,-0.0003054326225537807,0.001527163083665073,0.0009162978967651725
1761230551311786000,11.637785888671875,-0.0003054326225537807,0.0007635815418325365,0.00015271631127689034
1761230551328576500,11.654576416015624,-0.0009162978967651725,-0.00015271631127689034,0.0006108652451075613
1761230551345367000,11.671366943359375,-0.0013744467869400978,0.0003054326225537807,0.00045814894838258624
1761230551362153000,11.688153076171876,-0.0009162978967651725,0.0012217304902151227,0.0007635815418325365
1761230551378925800,11.70492578125,-0.0013744467869400978,0.0003054326225537807,0.0010690141934901476
1761230551395716000,11.721716064453124,-0.0010690141934901476,0.0007635815418325365,0.0003054326225537807
1761230551412521200,11.738521240234375,-0.0003054326225537807,0.0009162978967651725,0.0009162978967651725
1761230551429310500,11.755310546875,-0.00045814894838258624,0.0010690141934901476,0
1761230551446097000,11.772096923828125,-0.00015271631127689034,0.0010690141934901476,0.0007635815418325365
1761230551462889500,11.788889404296874,-0.0010690141934901476,0.00045814894838258624,0.00045814894838258624
1761230551479660000,11.805659912109375,-0.0010690141934901476,0.0012217304902151227,0.0010690141934901476
1761230551496453000,11.822453125,-0.0010690141934901476,0.0006108652451075613,0.0010690141934901476
1761230551513241300,11.839241455078126,-0.0012217304902151227,0.00015271631127689034,0.0006108652451075613
1761230551530031000,11.856031005859375,-0.00015271631127689034,0.0012217304902151227,0.0010690141934901476
1761230551546819600,11.872819580078126,-0.0003054326225537807,0.0012217304902151227,0.0006108652451075613
1761230551563599000,11.88959912109375,-0.0003054326225537807,-0.00015271631127689034,0.0007635815418325365
1761230551580413000,11.906412841796875,-0.0013744467869400978,0.0007635815418325365,0.00015271631127689034
1761230551597192200,11.923192138671874,-0.00045814894838258624,0.0003054326225537807,0.00015271631127689034
1761230551613973000,11.939972900390625,-0.0013744467869400978,0.0006108652451075613,0.0006108652451075613
1761230551630768000,11.95676806640625,-0.0003054326225537807,0.0006108652451075613,-0.00045814894838258624
1761230551647554300,11.97355419921875,-0.0003054326225537807,0.0010690141934901476,0.0007635815418325365
1761230551664341800,11.990341796875,-0.00045814894838258624,0.0013744467869400978,0.0013744467869400978
1761230551681133800,12.0071337890625,-0.00015271631127689034,0.00045814894838258624,-0.00015271631127689034
1761230551697936400,12.023936279296874,-0.0010690141934901476,0.0006108652451075613,0.0012217304902151227
1761230551714724600,12.040724609375,-0.0012217304902151227,0.001527163083665073,0.0010690141934901476
1761230551731513000,12.05751318359375,-0.00015271631127689034,0.0003054326225537807,0.00045814894838258624
1761230551748296700,12.074296630859376,-0.00045814894838258624,0.001527163083665073,0.0006108652451075613
1761230551765096000,12.091095947265625,-0.0013744467869400978,0.0006108652451075613,0.00015271631127689034
1761230551781852400,12.107852294921875,-0.00015271631127689034,0.0003054326225537807,0.00015271631127689034
1761230551798669600,12.124669677734374,-0.0009162978967651725,0.0013744467869400978,0.0003054326225537807
1761230551815442700,12.141442626953125,-0.0009162978967651725,0.00045814894838258624,0
1761230551832231000,12.15823095703125,-0.0013744467869400978,0.0006108652451075613,-0.00015271631127689034
1761230551849032200,12.1750322265625,-0.00045814894838258624,0.0012217304902151227,0.0007635815418325365
1761230551865830000,12.191829833984375,-0.0010690141934901476,0.0003054326225537807,-0.00015271631127689034
1761230551882614300,12.2086142578125,-0.0013744467869400978,0.0010690141934901476,0.00045814894838258624
1761230551899402000,12.225402099609376,-0.0009162978967651725,0.0012217304902151227,0.0009162978967651725
1761230551916192800,12.24219287109375,-0.0003054326225537807,0.001527163083665073,0.0010690141934901476
1761230551932982000,12.25898193359375,-0.00045814894838258624,0.00045814894838258624,0.0012217304902151227
1761230551949763300,12.275763427734375,-0.0010690141934901476,0.0010690141934901476,0.0003054326225537807
1761230551966550500,12.292550537109374,-0.00045814894838258624,0.0012217304902151227,0.00015271631127689034
1761230551983334700,12.309334716796876,-0.0003054326225537807,0.0003054326225537807,0.001832595793530345
1761230552000124400,12.32612451171875,-0.0012217304902151227,0.0013744467869400978,0.0007635815418325365
1761230552016900000,12.342900146484375,-0.0006108652451075613,0.0013744467869400978,0
1761230552033703000,12.359702880859375,-0.0006108652451075613,0.0010690141934901476,0.00015271631127689034
1761230552050491000,12.376490966796876,-0.0006108652451075613,-0.00045814894838258624,0.0009162978967651725
1761230552067297500,12.393297607421875,-0.0013744467869400978,0.0003054326225537807,0.0010690141934901476
1761230552084079400,12.410079345703124,-0.0006108652451075613,0.00045814894838258624,0.0007635815418325365
1761230552100860200,12.426860107421875,-0.001527163083665073,0.0003054326225537807,0.0003054326225537807
1761230552117645800,12.443645751953126,-0.00015271631127689034,0.0013744467869400978,0.0013744467869400978
1761230552134436900,12.460436767578125,-0.00045814894838258624,0.0013744467869400978,0.0013744467869400978
1761230552151225300,12.477225341796874,-0.0009162978967651725,0.0019853119738399982,0.0013744467869400978
1761230552168014600,12.4940146484375,-0.0010690141934901476,0.001679879380390048,0.0010690141934901476
1761230552184806700,12.510806640625,-0.0013744467869400978,0.0013744467869400978,0.0007635815418325365
1761230552201606700,12.527606689453124,-0.0009162978967651725,0.0007635815418325365,0.0010690141934901476
1761230552218393600,12.5443935546875,-0.0003054326225537807,0.00045814894838258624,0.0012217304902151227
1761230552235185000,12.561184814453124,-0.0003054326225537807,0.00045814894838258624,0.0003054326225537807
1761230552251977700,12.577977783203124,-0.0003054326225537807,0.001527163083665073,0.0010690141934901476
1761230552268758800,12.5947587890625,-0.00015271631127689034,0.001679879380390048,0.0007635815418325365
1761230552285566700,12.611566650390625,-0.00045814894838258624,0.0007635815418325365,0.0006108652451075613
1761230552302345000,12.628344970703125,-0.0009162978967651725,0.00045814894838258624,0.0013744467869400978
1761230552319129600,12.645129638671875,-0.0013744467869400978,0.0013744467869400978,0.00015271631127689034
1761230552335902000,12.66190185546875,-0.00045814894838258624,0.0012217304902151227,0.0010690141934901476
1761230552352694300,12.6786943359375,-0.0010690141934901476,0.001832595793530345,0
1761230552369495300,12.695495361328126,-0.0013744467869400978,-0.00015271631127689034,0.0003054326225537807
1761230552386287600,12.71228759765625,-0.0012217304902151227,0.0003054326225537807,0.0007635815418325365
1761230552403074800,12.72907470703125,-0.0012217304902151227,0.00015271631127689034,0.0009162978967651725
1761230552419847400,12.745847412109375,-0.0013744467869400978,0.0006108652451075613,0.0013744467869400978
1761230552436653600,12.762653564453124,-0.0012217304902151227,0.001527163083665073,0.0006108652451075613
1761230552453421800,12.779421875,-0.0009162978967651725,0.0013744467869400978,0.0012217304902151227
1761230552470220300,12.79622021484375,-0.0009162978967651725,0.0010690141934901476,0.0010690141934901476
1761230552486996000,12.812995849609376,-0.0013744467869400978,0.00045814894838258624,0.0003054326225537807
1761230552503795700,12.829795654296875,-0.00045814894838258624,0.00045814894838258624,0.0009162978967651725
1761230552520587500,12.84658740234375,-0.0003054326225537807,0.00045814894838258624,0.0012217304902151227
1761230552537369000,12.863369140625,-0.0010690141934901476,0.001832595793530345,0.0007635815418325365
1761230552554177300,12.88017724609375,-0.0010690141934901476,0.00045814894838258624,0.0013744467869400978
1761230552570949000,12.89694921875,-0.0006108652451075613,0,0.0003054326225537807
1761230552587736800,12.91373681640625,-0.0012217304902151227,0.0003054326225537807,0.0007635815418325365
1761230552604530000,12.930530029296875,-0.0013744467869400978,0.0013744467869400978,-0.00045814894838258624
1761230552621318400,12.947318359375,-0.0013744467869400978,0.001679879380390048,0
1761230552638092000,12.964092041015626,-0.0013744467869400978,0.00045814894838258624,0.0009162978967651725
1761230552654884000,12.980884033203125,-0.0003054326225537807,0.00045814894838258624,-0.00015271631127689034
1761230552671685600,12.997685546875,-0.0009162978967651725,0.0013744467869400978,0.0003054326225537807
1761230552688494800,13.014494873046875,-0.0010690141934901476,0.00045814894838258624,0.0003054326225537807
1761230552705261600,13.031261474609375,-0.00045814894838258624,0,0.0010690141934901476
1761230552722066000,13.04806591796875,-0.00045814894838258624,0.0012217304902151227,0.0003054326225537807
1761230552738856400,13.0648564453125,-0.00015271631127689034,0.0024434609804302454,0
1761230552755628000,13.0816279296875,-0.00015271631127689034,0.00045814894838258624,0.0003054326225537807
1761230552772434000,13.098433837890624,-0.0013744467869400978,0.001679879380390048,0.0009162978967651725
1761230552789198600,13.115198486328126,-0.00045814894838258624,0,0.00015271631127689034
1761230552806020400,13.132020263671874,-0.0012217304902151227,0.00045814894838258624,0.0010690141934901476
1761230552822800600,13.148800537109375,-0.0009162978967651725,0.0012217304902151227,0.0010690141934901476
1761230552839590400,13.16559033203125,-0.0009162978967651725,0.0012217304902151227,0.0009162978967651725
1761230552856363500,13.182363525390626,-0.00015271631127689034,0.00015271631127689034,0.0010690141934901476
1761230552873169200,13.199169189453125,-0.0003054326225537807,0.0003054326225537807,0.0007635815418325365
1761230552889959000,13.215958984375,-0.0010690141934901476,0.0010690141934901476,0.0003054326225537807
1761230552906727400,13.2327275390625,-0.0013744467869400978,0.0007635815418325365,0.0010690141934901476
1761230552923525000,13.249525146484375,-0.00015271631127689034,0.0006108652451075613,0.0006108652451075613
1761230552940307500,13.266307373046875,-0.0003054326225537807,0.0007635815418325365,0.0006108652451075613
1761230552957099300,13.283099365234374,-0.0003054326225537807,0.0012217304902151227,0.0010690141934901476
1761230552973888500,13.299888427734375,-0.0009162978967651725,0.001527163083665073,0.0007635815418325365
1761230552990677800,13.316677734375,-0.0006108652451075613,0.0010690141934901476,0.0010690141934901476
1761230553007449600,13.33344970703125,-0.00045814894838258624,0,0.0009162978967651725
1761230553024255500,13.35025537109375,-0.0006108652451075613,0.0009162978967651725,0.0007635815418325365
1761230553041038600,13.36703857421875,-0.0012217304902151227,0.0010690141934901476,0.0013744467869400978
1761230553057847600,13.38384765625,-0.0003054326225537807,0.0007635815418325365,0.0009162978967651725
1761230553074633700,13.4006337890625,-0.0013744467869400978,0.00015271631127689034,0.0012217304902151227
1761230553091410700,13.41741064453125,-0.00015271631127689034,0.0012217304902151227,0.0009162978967651725
1761230553108200700,13.43420068359375,-0.0013744467869400978,0.00045814894838258624,0.0003054326225537807
1761230553124990000,13.450989990234374,-0.0006108652451075613,0.0019853119738399982,0.0013744467869400978
1761230553141779200,13.467779296875,-0.0013744467869400978,0.001527163083665073,0.0007635815418325365
1761230553158568000,13.48456787109375,-0.0006108652451075613,0.0003054326225537807,0.0009162978967651725
1761230553175359000,13.50135888671875,-0.0006108652451075613,0.0006108652451075613,0.0009162978967651725
1761230553192146000,13.51814599609375,-0.0006108652451075613,-0.0003054326225537807,0
1761230553208949200,13.53494921875,-0.0013744467869400978,0.0003054326225537807,0.0010690141934901476
1761230553225737700,13.55173779296875,-0.0009162978967651725,0.0012217304902151227,0
1761230553242525400,13.568525390625,-0.0013744467869400978,0.0006108652451075613,0.002138028386980295
1761230553259301600,13.585301513671874,-0.00015271631127689034,0.0003054326225537807,0.0007635815418325365
1761230553276105200,13.602105224609375,-0.0009162978967651725,0.00045814894838258624,0.0009162978967651725
1761230553292886500,13.618886474609376,-0.0003054326225537807,0.00045814894838258624,0.001832595793530345
1761230553309689600,13.635689697265626,-0.0003054326225537807,0.00045814894838258624,0.0009162978967651725
1761230553326457600,13.65245751953125,-0.0012217304902151227,0.0010690141934901476,0.0007635815418325365
1761230553343257600,13.669257568359376,-0.0009162978967651725,0.0006108652451075613,0.0003054326225537807
1761230553360054300,13.68605419921875,-0.0006108652451075613,0.0010690141934901476,0.0007635815418325365
1761230553376844000,13.702843994140625,-0.0006108652451075613,0.0007635815418325365,0.0009162978967651725
1761230553393612800,13.71961279296875,-0.0010690141934901476,0.0003054326225537807,0.0006108652451075613
1761230553410419700,13.736419677734375,-0.00015271631127689034,0.0003054326225537807,0
1761230553427186400,13.7531865234375,-0.00015271631127689034,0.0007635815418325365,0.0009162978967651725
1761230553443982000,13.769982177734375,-0.0009162978967651725,0.00045814894838258624,0.0006108652451075613
1761230553460770600,13.7867705078125,-0.0013744467869400978,0.0013744467869400978,0.0003054326225537807
1761230553477560000,13.80356005859375,-0.0013744467869400978,0.00045814894838258624,0.0006108652451075613
1761230553494347300,13.82034716796875,-0.0006108652451075613,0.00015271631127689034,0.0003054326225537807
1761230553511138600,13.837138671875,-0.00045814894838258624,0.0007635815418325365,0.0003054326225537807
1761230553527929000,13.85392919921875,-0.0006108652451075613,0.001679879380390048,0.001832595793530345
1761230553544730400,13.87073046875,-0.0013744467869400978,0.001527163083665073,0.0009162978967651725
1761230553561536300,13.887536376953125,-0.0010690141934901476,0.001527163083665073,0.0010690141934901476
1761230553578291000,13.904291015625,-0.00015271631127689034,0.0012217304902151227,0.001679879380390048
1761230553595083000,13.9210830078125,-0.00015271631127689034,0.0007635815418325365,-0.00045814894838258624
1761230553611872300,13.937872314453125,-0.0009162978967651725,0.0009162978967651725,0.0003054326225537807
1761230553628661500,13.95466162109375,-0.0012217304902151227,0.001527163083665073,0.0009162978967651725
1761230553645450800,13.97145068359375,-0.00045814894838258624,0.0010690141934901476,0.00045814894838258624
1761230553662239500,13.988239501953124,-0.0012217304902151227,0.0010690141934901476,0.0010690141934901476
1761230553679042000,14.0050419921875,-0.0009162978967651725,0.0010690141934901476,0.0006108652451075613
1761230553695835000,14.0218349609375,-0.00045814894838258624,0.0007635815418325365,0
1761230553712620500,14.03862060546875,-0.0006108652451075613,0,0.0022907445672899485
1761230553729405200,14.0554052734375,-0.0003054326225537807,0.0006108652451075613,0.0013744467869400978
1761230553746200800,14.072200927734375,-0.0006108652451075613,0.0010690141934901476,0.0006108652451075613
1761230553762987800,14.08898779296875,-0.0007635815418325365,-0.0029016099870204926,0
1761230553779777300,14.10577734375,-0.0012217304902151227,0.001527163083665073,-0.0006108652451075613
1761230553796565200,14.122565185546875,-0.00015271631127689034,0.00015271631127689034,-0.0012217304902151227
1761230553813354800,14.139354736328125,-0.00015271631127689034,-0.0010690141934901476,-0.0006108652451075613
1761230553830144000,14.15614404296875,-0.0006108652451075613,-0.001832595793530345,0.0006108652451075613
1761230553846933000,14.17293310546875,-0.0006108652451075613,-0.0007635815418325365,-0.00015271631127689034
