time,seconds_elapsed,z,y,x
1761315746155960000,0.2739599609375,-0.05522418022155762,-0.05523204803466797,0.05685710906982422
1761315746174882600,0.292882568359375,0.026891708374023438,0.0725250244140625,-0.03528928756713867
1761315746193805000,0.31180517578125,0.04499101638793945,0.07170581817626953,-0.09050607681274414
1761315746212727600,0.3307275390625,0.0038852691650390625,0.06848335266113281,-0.04052591323852539
1761315746231650000,0.349650146484375,-0.008464336395263672,0.028021812438964844,-0.0039844512939453125
1761315746250572500,0.368572509765625,-0.06262493133544922,-0.07087421417236328,0.016282081604003906
1761315746269495000,0.3874951171875,-0.020874500274658203,-0.023818016052246094,0.033814430236816406
1761315746288417500,0.40641748046875,0.03049778938293457,0.025379180908203125,-0.042636871337890625
1761315746307340000,0.425340087890625,0.06005096435546875,0.04510784149169922,-0.07142066955566406
1761315746326262300,0.44426220703125,0.032674312591552734,0.052514076232910156,-0.04349946975708008
1761315746345184800,0.463184814453125,0.013382911682128906,0.035592079162597656,0.011794090270996094
1761315746364107300,0.482107177734375,0.04498100280761719,0.009400367736816406,-0.00975656509399414
1761315746383029800,0.50102978515625,0.05074191093444824,0.0912618637084961,-0.05781126022338867
1761315746401952300,0.5199521484375,0.03400778770446777,0.037120819091796875,-0.06888151168823242
1761315746420874800,0.538874755859375,0.027930498123168945,0.01862621307373047,-0.031466007232666016
1761315746439797200,0.55779736328125,0.06799769401550293,0.03108692169189453,-0.009334564208984375
1761315746458719700,0.5767197265625,0.06266593933105469,-0.031661033630371094,-0.007099628448486328
1761315746477642200,0.595642333984375,-0.0000591278076171875,0.0028285980224609375,0.003938198089599609
1761315746496564700,0.614564697265625,-0.023956775665283203,0.039374351501464844,0.025565147399902344
1761315746515487200,0.6334873046875,-0.021422624588012695,-0.00357818603515625,-0.02678203582763672
1761315746534409700,0.65240966796875,0.0368494987487793,-0.012655258178710938,0.0012202262878417969
1761315746553332200,0.671332275390625,0.0069370269775390625,-0.008929252624511719,0.0005640983581542969
1761315746572254700,0.690254638671875,0.013724803924560547,0.015554428100585938,-0.030745506286621094
1761315746591177200,0.70917724609375,-0.0203092098236084,0.009512901306152344,-0.028433799743652344
1761315746610099500,0.728099365234375,0.03158688545227051,-0.011806488037109375,0.011529922485351562
1761315746629022000,0.74702197265625,-0.0010335445404052734,0.061570167541503906,0.01196146011352539
1761315746647944400,0.7659443359375,-0.010598421096801758,0.037858009338378906,-0.003911495208740234
1761315746666867000,0.784866943359375,-0.010892152786254883,-0.06196117401123047,0.05116415023803711
1761315746685789400,0.80378955078125,0.01157522201538086,-0.06573009490966797,0.060573577880859375
1761315746704712000,0.8227119140625,-0.007131814956665039,0.019553184509277344,0.021709442138671875
1761315746723634400,0.841634521484375,0.03839468955993652,0.03182411193847656,0.029613018035888672
1761315746742557000,0.860556884765625,0.045848846435546875,-0.009692192077636719,0.0326380729675293
1761315746761479400,0.8794794921875,0.019123554229736328,0.02253246307373047,0.017890453338623047
1761315746780402000,0.89840185546875,0.0014071464538574219,-0.03171062469482422,-0.008898735046386719
1761315746799324400,0.917324462890625,0.02936720848083496,0.01836395263671875,-0.02557086944580078
1761315746818247000,0.936246826171875,0.003040313720703125,0.05721282958984375,-0.07107257843017578
1761315746837169400,0.95516943359375,0.02581477165222168,0.01055145263671875,-0.01364755630493164
1761315746856091600,0.974091552734375,0.03000044822692871,0.010449409484863281,0.012882232666015625
1761315746875014100,0.99301416015625,-0.04419589042663574,0.05663013458251953,0.013470172882080078
1761315746893936600,1.0119365234375,-0.027922868728637695,0.047245025634765625,-0.023342609405517578
1761315746912859100,1.030859130859375,-0.02946615219116211,-0.08473396301269531,0.03180265426635742
1761315746931781600,1.04978173828125,-0.00490260124206543,-0.09950828552246094,0.022488117218017578
1761315746950704000,1.0687041015625,0.03828287124633789,0.020201683044433594,-0.023003101348876953
1761315746969626600,1.087626708984375,0.009110450744628906,0.050057411193847656,-0.04651689529418945
1761315746988549000,1.106549072265625,0.003955364227294922,-0.005260467529296875,-0.01692342758178711
1761315747007471600,1.1254716796875,-0.0129852294921875,0.010736465454101562,-0.03238487243652344
1761315747026394000,1.14439404296875,0.03364300727844238,0.00275421142578125,0.01624298095703125
1761315747045316600,1.163316650390625,0.025149106979370117,0.03671550750732422,0.014252662658691406
1761315747064239000,1.182239013671875,-0.04196047782897949,0.05447101593017578,-0.017537593841552734
1761315747083161300,1.201161376953125,-0.057065486907958984,0.0018854141235351562,0.03141355514526367
1761315747102083800,1.220083740234375,-0.016007423400878906,0.021236419677734375,0.02721881866455078
1761315747121006300,1.23900634765625,0.03093576431274414,0.007584571838378906,-0.0610194206237793
1761315747139928800,1.2579287109375,0.08956480026245117,0.0023450851440429688,-0.06443071365356445
1761315747158851300,1.276851318359375,0.08239054679870605,-0.01720142364501953,-0.04420614242553711
1761315747177773800,1.29577392578125,0.010794878005981445,-0.01029205322265625,-0.004761695861816406
1761315747196696300,1.3146962890625,0.010655879974365234,0.05585289001464844,0.0017609596252441406
1761315747215618800,1.333618896484375,-0.03003096580505371,0.0650033950805664,0.04031848907470703
1761315747234541300,1.352541259765625,-0.011880159378051758,0.03522300720214844,0.02304840087890625
1761315747253463600,1.371463623046875,0.0015633106231689453,-0.01355743408203125,0.004858970642089844
1761315747272386000,1.390385986328125,-0.0030198097229003906,-0.04062652587890625,0.05299186706542969
1761315747291308500,1.40930859375,0.050994157791137695,-0.07126998901367188,0.0379791259765625
1761315747310231000,1.42823095703125,0.028463363647460938,-0.00044727325439453125,0.026024818420410156
1761315747329153500,1.447153564453125,0.049651145935058594,0.01628875732421875,-0.0032825469970703125
1761315747348076000,1.466075927734375,0.058771371841430664,0.04424285888671875,-0.03881406784057617
1761315747366998500,1.48499853515625,0.032880544662475586,0.026404380798339844,-0.025446414947509766
1761315747385921000,1.503921142578125,0.02456068992614746,0.014498710632324219,-0.008849620819091797
1761315747404843500,1.522843505859375,-0.013480663299560547,0.024580001831054688,-0.02327251434326172
1761315747423766000,1.54176611328125,-0.03850603103637695,0.057544708251953125,-0.023295879364013672
1761315747442688500,1.5606884765625,-0.03355550765991211,0.021630287170410156,-0.012989044189453125
1761315747461610800,1.57961083984375,-0.051616668701171875,-0.029691696166992188,-0.005175590515136719
1761315747480533200,1.598533203125,-0.06147289276123047,-0.03356647491455078,-0.09440469741821289
1761315747499455700,1.617455810546875,-0.06255745887756348,-0.06925296783447266,-0.03231048583984375
1761315747518378200,1.636378173828125,-0.034578800201416016,-0.04259490966796875,0.07781362533569336
1761315747537300700,1.65530078125,-0.00035119056701660156,-0.031124114990234375,0.07020950317382812
1761315747556223200,1.67422314453125,-0.050919532775878906,0.05488395690917969,0.04131031036376953
1761315747575145700,1.693145751953125,0.014771699905395508,0.02649211883544922,0.06658506393432617
1761315747594068200,1.712068115234375,0.12620854377746582,0.04588127136230469,0.020313739776611328
1761315747612990700,1.73099072265625,0.09193968772888184,0.13128948211669922,-0.06305646896362305
1761315747631913200,1.749913330078125,0.1102607250213623,0.2317371368408203,-0.02942037582397461
1761315747650835700,1.768835693359375,0.057708740234375,0.15897369384765625,-0.10408163070678711
1761315747669758000,1.787758056640625,-0.00103759765625,0.4772024154663086,-0.03914070129394531
1761315747688680400,1.806680419921875,-0.05314350128173828,0.9315104484558105,0.29941511154174805
1761315747707603000,1.82560302734375,-0.060577392578125,0.6862154006958008,0.14440679550170898
1761315747726525400,1.844525390625,-0.0088348388671875,0.6595048904418945,0.16625499725341797
1761315747745448000,1.863447998046875,0.10714221000671387,1.0237460136413574,0.35180044174194336
1761315747764370400,1.882370361328125,0.018668174743652344,1.0601587295532227,0.3192281723022461
1761315747783293000,1.90129296875,-0.12405848503112793,0.7352633476257324,0.4080474376678467
1761315747802215400,1.92021533203125,0.15832161903381348,0.10671234130859375,0.027417659759521484
1761315747821137700,1.9391376953125,0.24868202209472656,-0.43295955657958984,0.1622333526611328
1761315747840060400,1.958060302734375,0.010069131851196289,-0.5216550827026367,0.4035971164703369
1761315747858982700,1.976982666015625,-0.08403539657592773,-0.2672595977783203,0.48824048042297363
1761315747877905200,1.9959052734375,0.1919865608215332,-0.07155323028564453,0.27576565742492676
1761315747896827600,2.01482763671875,-0.044121742248535156,-0.5856695175170898,0.011722087860107422
1761315747915750100,2.033750244140625,0.10852336883544922,-0.37694454193115234,0.057080745697021484
1761315747934672600,2.052672607421875,0.03352236747741699,-0.041771888732910156,0.04952406883239746
1761315747953595100,2.07159521484375,-0.18030285835266113,0.5660457611083984,0.5283145904541016
1761315747972517600,2.090517578125,-0.28454160690307617,0.9076027870178223,0.7160062789916992
1761315747991440100,2.109440185546875,-0.3216664791107178,1.3489227294921875,0.9150855541229248
1761315748010362400,2.1283623046875,0.12634658813476562,1.681276798248291,0.4996678829193115
1761315748029284900,2.147284912109375,-0.3378359079360962,1.4753317832946777,-0.0052356719970703125
1761315748048207400,2.166207275390625,0.556814432144165,0.5582981109619141,-0.6148712635040283
1761315748067129900,2.1851298828125,0.4077639579772949,0.9616260528564453,0.29907727241516113
1761315748086052400,2.20405224609375,-0.7804855108261108,0.5535116195678711,0.3138132095336914
1761315748104974800,2.222974853515625,-0.5917007923126221,-0.6454963684082031,0.32053470611572266
1761315748123897300,2.2418974609375,-0.01293957233428955,-0.3933687210083008,0.3422415256500244
1761315748142819800,2.26081982421875,0.6029584407806396,1.1771430969238281,0.2613489627838135
1761315748161742300,2.279742431640625,0.05469810962677002,2.913771629333496,-0.19597584009170532
1761315748180664800,2.298664794921875,-0.21533799171447754,3.857778549194336,-0.6337851881980896
1761315748199587000,2.317587158203125,-0.09095561504364014,3.9967222213745117,-1.0541518926620483
1761315748218509600,2.336509521484375,1.777254581451416,-6.12857723236084,-0.43506160378456116
1761315748237432000,2.35543212890625,3.192999839782715,-15.724616050720215,0.34610676765441895
1761315748256354600,2.3743544921875,1.6808844804763794,-6.568490982055664,-4.436984062194824
1761315748275277000,2.393277099609375,4.527484893798828,-1.0288000106811523,-5.877298355102539
1761315748294199600,2.412199462890625,3.2242393493652344,1.923105239868164,-2.9024453163146973
1761315748313122000,2.4311220703125,1.2355141639709473,3.3987784385681152,-0.12490034103393555
1761315748332044500,2.45004443359375,-0.17300033569335938,3.873992919921875,1.3528475761413574
1761315748350966800,2.468966796875,-2.4398772716522217,4.006983757019043,1.3438071012496948
1761315748369889300,2.48788916015625,-2.3312814235687256,2.9544434547424316,0.8521087169647217
1761315748388811800,2.506811767578125,1.6479604244232178,2.1014485359191895,-1.6578915119171143
1761315748407734300,2.525734375,1.43827223777771,-0.10427379608154297,-3.3950202465057373
1761315748426656800,2.54465673828125,-0.5531249046325684,-1.959822654724121,-4.101593971252441
1761315748445579300,2.563579345703125,-0.7855820655822754,-2.934324264526367,-0.8933467864990234
1761315748464501800,2.582501708984375,0.43320608139038086,-4.895038604736328,4.4608612060546875
1761315748483424300,2.60142431640625,1.8506617546081543,-10.642087936401367,10.222295761108398
1761315748502346800,2.6203466796875,-0.8948879241943359,-14.972671508789062,8.869268417358398
1761315748521269000,2.63926904296875,0.0183260440826416,-14.674371719360352,3.7206361293792725
1761315748540191500,2.65819140625,-1.2905912399291992,-13.458710670471191,2.0309572219848633
1761315748559114000,2.677114013671875,-0.7469973564147949,-12.121549606323242,0.21600914001464844
1761315748578036500,2.696036376953125,-1.41431725025177,-10.476604461669922,-2.226976156234741
1761315748596959000,2.714958984375,0.04078352451324463,-7.197591781616211,-1.8208271265029907
1761315748615881500,2.733881591796875,0.3153125047683716,-1.941946029663086,-1.0949362516403198
1761315748634804000,2.752803955078125,-0.34620392322540283,3.4435787200927734,0.00034308433532714844
1761315748653726500,2.7717265625,-0.23579895496368408,7.970735549926758,0.14592480659484863
1761315748672648700,2.790648681640625,0.8024356365203857,10.211071968078613,-0.17513680458068848
1761315748691571200,2.8095712890625,3.149458408355713,10.961612701416016,-1.0767422914505005
1761315748710493700,2.82849365234375,4.859553813934326,11.49734878540039,-1.5222529172897339
1761315748729416200,2.847416259765625,7.774324417114258,9.839585304260254,-1.6789692640304565
1761315748748338700,2.866338623046875,5.366754531860352,5.59051513671875,-2.999760389328003
1761315748767261200,2.88526123046875,1.4667878150939941,4.763404369354248,-4.5142316818237305
1761315748786183700,2.90418359375,0.7483276724815369,6.2039289474487305,-5.556395053863525
1761315748805106200,2.923106201171875,0.5415048599243164,8.236835479736328,-3.926811456680298
1761315748824028700,2.942028564453125,-0.08554665744304657,9.662915229797363,-3.209789514541626
1761315748842951000,2.960950927734375,-0.0556681752204895,9.270852088928223,-2.66367769241333
1761315748861873400,2.979873291015625,-0.624688446521759,8.721251487731934,-2.3168845176696777
1761315748880796000,2.9987958984375,-1.7235281467437744,8.723503112792969,-2.4051833152770996
1761315748899718400,3.017718505859375,-2.4159722328186035,8.82601547241211,-2.7946951389312744
1761315748918641000,3.036640869140625,-0.8870959877967834,7.989536285400391,-3.396801471710205
1761315748937563400,3.0555634765625,4.547464370727539,5.413102149963379,-4.249870300292969
1761315748956486000,3.07448583984375,0.2844409942626953,1.1553335189819336,-4.579532623291016
1761315748975408400,3.093408447265625,0.1678328514099121,-4.499452590942383,-0.663111686706543
1761315748994331000,3.112330810546875,3.048272132873535,-16.42432403564453,1.4561636447906494
1761315749013253000,3.131253173828125,12.450233459472656,-29.796384811401367,5.678102970123291
1761315749032175600,3.150175537109375,0.19426751136779785,-18.61075210571289,5.38596248626709
1761315749051098000,3.16909814453125,-2.1002197265625,-6.515474319458008,8.337597846984863
1761315749070020600,3.1880205078125,-0.10225033760070801,-5.555708885192871,11.36333179473877
1761315749088943000,3.206943115234375,5.918435096740723,-13.522928237915039,10.132807731628418
1761315749107865600,3.225865478515625,3.7663369178771973,-20.37508773803711,2.368713855743408
1761315749126788000,3.2447880859375,0.643110990524292,-14.809865951538086,-0.24221563339233398
1761315749145710600,3.263710693359375,1.7636733055114746,-10.961981773376465,0.7388401031494141
1761315749164632800,3.2826328125,0.7886871099472046,-8.221107482910156,0.6048097610473633
1761315749183555300,3.301555419921875,-0.7329530715942383,-5.021237373352051,0.09154701232910156
1761315749202477800,3.320477783203125,0.41336286067962646,-0.3124809265136719,0.9951174259185791
1761315749221400300,3.339400390625,0.6477752923965454,4.609360218048096,0.5794355869293213
1761315749240322800,3.35832275390625,0.20186319947242737,8.22557544708252,-1.207975149154663
1761315749259245300,3.377245361328125,0.301403284072876,9.961956977844238,-2.5566086769104004
1761315749278167800,3.396167724609375,0.5097520351409912,10.377095222473145,-3.549795627593994
1761315749297090300,3.41509033203125,1.2027852535247803,10.379008293151855,-4.062103748321533
1761315749316012800,3.4340126953125,3.0941007137298584,10.482156753540039,-4.24862003326416
1761315749334935000,3.45293505859375,4.324604511260986,10.672359466552734,-4.886768817901611
1761315749353857500,3.471857421875,2.3888022899627686,8.983055114746094,-4.757296562194824
1761315749372780000,3.490780029296875,-0.2684575617313385,8.006855964660645,-4.281223297119141
1761315749391702500,3.50970263671875,-0.38348621129989624,7.713896751403809,-3.6247177124023438
1761315749410625000,3.528625,0.23301967978477478,8.279102325439453,-3.358299732208252
1761315749429547500,3.547547607421875,0.6501814126968384,8.679679870605469,-3.169299602508545
1761315749448470000,3.566469970703125,0.9490746855735779,8.739495277404785,-3.1958372592926025
1761315749467392500,3.585392578125,0.3632097542285919,8.303977966308594,-3.13486647605896
1761315749486314800,3.604314697265625,0.17635303735733032,7.896936416625977,-2.732365369796753
1761315749505237200,3.6232373046875,2.6388652324676514,7.174142837524414,-1.7109150886535645
1761315749524159700,3.64215966796875,10.53852653503418,4.933348655700684,-1.5829905271530151
1761315749543082200,3.661082275390625,18.04503059387207,-1.9443235397338867,-3.303896903991699
1761315749562004700,3.680004638671875,-7.762030601501465,-6.887717247009277,1.6456506252288818
1761315749580927200,3.69892724609375,-9.169610977172852,-3.1501922607421875,-3.9865427017211914
1761315749599849700,3.717849609375,20.179597854614258,-26.555843353271484,11.168313980102539
1761315749618772200,3.736772216796875,-7.741546630859375,-19.997970581054688,1.9360733032226562
1761315749637694700,3.75569482421875,-4.517601013183594,-7.363823890686035,-0.34475278854370117
1761315749656617000,3.774616943359375,-0.11169552803039551,-7.62967586517334,8.508551597595215
1761315749675539500,3.79353955078125,3.571467399597168,-13.474377632141113,12.200040817260742
1761315749694462000,3.8124619140625,5.96295166015625,-17.699663162231445,9.092795372009277
1761315749713384400,3.831384521484375,2.8890063762664795,-15.54145336151123,5.525270462036133
1761315749732307000,3.850306884765625,0.778141975402832,-11.75246524810791,3.934727668762207
1761315749751229400,3.8692294921875,0.08787989616394043,-9.515984535217285,3.3296194076538086
1761315749770152000,3.88815185546875,-0.2663459777832031,-7.0464630126953125,2.7839365005493164
1761315749789074400,3.907074462890625,1.187841534614563,-2.280881881713867,0.7758612632751465
1761315749807996700,3.92599658203125,0.8336549401283264,2.912464141845703,-1.3597114086151123
1761315749826919200,3.944919189453125,0.5089728832244873,6.594559669494629,-2.9682388305664062
1761315749845841700,3.963841552734375,0.10609942674636841,8.980751991271973,-3.5917630195617676
1761315749864764200,3.98276416015625,0.5466808676719666,9.603133201599121,-4.06933069229126
1761315749883686700,4.001686767578125,1.772685170173645,9.567571640014648,-3.898699998855591
1761315749902609200,4.020609130859375,5.021161079406738,10.081955909729004,-4.766023635864258
1761315749921531600,4.03953173828125,8.041629791259766,10.386073112487793,-6.147154808044434
1761315749940454100,4.0584541015625,3.821678876876831,9.12378978729248,-4.960207462310791
1761315749959376600,4.077376708984375,-0.018045635893940926,8.26541519165039,-3.1400206089019775
1761315749978299000,4.096298828125,-2.414149284362793,8.535274505615234,-2.3504858016967773
1761315749997221400,4.115221435546875,-2.6641690731048584,9.108504295349121,-1.808701992034912
1761315750016144000,4.134143798828125,-1.2352666854858398,9.06417179107666,-2.495222568511963
1761315750035066400,4.15306640625,-0.1892072558403015,9.028778076171875,-2.6338860988616943
1761315750053988900,4.17198876953125,0.2366969883441925,9.017291069030762,-2.4640676975250244
1761315750072911400,4.190911376953125,0.06372520327568054,9.050009727478027,-2.05193829536438
1761315750091833900,4.209833740234375,2.818819999694824,8.160075187683105,-0.9115908145904541
1761315750110756400,4.22875634765625,7.196569919586182,6.5063276290893555,-0.26074862480163574
1761315750129678800,4.247678955078125,12.30888557434082,2.748880386352539,-0.6601704359054565
1761315750148601300,4.266601318359375,3.443749189376831,-3.10469913482666,-0.7334115505218506
1761315750167523600,4.285523681640625,-11.92086124420166,0.7457718849182129,-3.9632678031921387
1761315750186446000,4.304446044921875,-5.217374801635742,-12.269095420837402,-4.108970642089844
1761315750205368600,4.32336865234375,15.19716739654541,-41.430057525634766,15.125556945800781
1761315750224291000,4.342291015625,-1.035435438156128,-12.045875549316406,-4.448728561401367
1761315750243213600,4.361213623046875,2.5628790855407715,-8.617528915405273,6.912055969238281
1761315750262136000,4.380135986328125,0.8293380737304688,-14.609762191772461,14.941285133361816
1761315750281058600,4.39905859375,7.615323543548584,-15.39724349975586,12.351978302001953
1761315750299980800,4.417980712890625,3.7827398777008057,-16.206430435180664,5.192677021026611
1761315750318903300,4.4369033203125,-1.5813419818878174,-14.121907234191895,0.8135347366333008
1761315750337825800,4.45582568359375,-2.064757823944092,-11.135618209838867,-0.050832271575927734
1761315750356748300,4.474748291015625,-0.05639302730560303,-6.259782791137695,-1.2679963111877441
1761315750375670800,4.4936708984375,0.35744959115982056,-0.7048578262329102,-1.601906418800354
1761315750394593300,4.51259326171875,-0.04558926820755005,3.1230220794677734,-1.5817453861236572
1761315750413515800,4.531515869140625,-1.3951287269592285,7.14737606048584,-2.31606388092041
1761315750432438300,4.550438232421875,0.1602635234594345,9.705892562866211,-1.7229520082473755
1761315750451360800,4.56936083984375,3.393923759460449,10.46846866607666,-2.844120502471924
1761315750470283300,4.588283203125,7.051539421081543,11.166748046875,-3.346620559692383
1761315750489205500,4.60720556640625,10.335017204284668,11.327597618103027,-4.222149848937988
1761315750508128000,4.6261279296875,6.647777557373047,7.366004943847656,-1.8423752784729004
1761315750527050500,4.645050537109375,1.6667983531951904,6.640547752380371,-2.03732967376709
1761315750545973000,4.663972900390625,1.74062180519104,6.905601978302002,-3.0572938919067383
1761315750564895500,4.6828955078125,1.6358996629714966,8.013394355773926,-3.9215590953826904
1761315750583818000,4.70181787109375,0.20969180762767792,8.996105194091797,-3.695924758911133
1761315750602740500,4.720740478515625,-0.6828619837760925,9.23924732208252,-3.747967481613159
1761315750621662700,4.739662841796875,-1.225781798362732,9.065340042114258,-3.7543601989746094
1761315750640585200,4.758585205078125,-0.4641464054584503,8.972264289855957,-3.575641393661499
1761315750659507700,4.7775078125,0.5998741984367371,8.948149681091309,-3.1219537258148193
1761315750678430200,4.79643017578125,-1.1557772159576416,8.671445846557617,-3.2340729236602783
1761315750697352700,4.815352783203125,-0.6990716457366943,7.794025897979736,-3.024345874786377
1761315750716275200,4.834275146484375,3.023169994354248,5.52443790435791,-2.869471788406372
1761315750735197700,4.85319775390625,3.8533124923706055,2.192577362060547,-4.621379852294922
1761315750754120200,4.8721201171875,1.2664430141448975,-1.0959720611572266,-2.8151209354400635
1761315750773042700,4.891042724609375,0.14400410652160645,-15.722227096557617,2.1760036945343018
1761315750791965200,4.909965087890625,-2.652085065841675,-34.505149841308594,8.509820938110352
1761315750810887400,4.928887451171875,5.957364082336426,-15.310531616210938,4.0945353507995605
1761315750829810000,4.947809814453125,-1.8142449855804443,-6.007328987121582,8.717958450317383
1761315750848732400,4.966732421875,2.0433144569396973,-6.346645355224609,15.237812995910645
1761315750867655000,4.985655029296875,4.653567790985107,-12.247722625732422,13.816391944885254
1761315750886577400,5.004577392578125,8.647408485412598,-18.516185760498047,6.484677314758301
1761315750905500000,5.0235,1.9065115451812744,-17.786880493164062,0.49550437927246094
1761315750924422400,5.04242236328125,-1.8435790538787842,-13.72299575805664,0.35697460174560547
1761315750943344600,5.0613447265625,-1.2686922550201416,-10.03175163269043,0.23104262351989746
1761315750962267400,5.080267333984375,-2.251689910888672,-5.70594596862793,-0.8940231800079346
1761315750981189600,5.099189697265625,-1.2342216968536377,-1.0649595260620117,-2.0179667472839355
1761315751000112000,5.118112060546875,-0.6522852182388306,2.9155831336975098,-2.5117266178131104
1761315751019034600,5.13703466796875,-0.4528147578239441,6.205630302429199,-2.7828497886657715
1761315751037957000,5.15595703125,0.08782285451889038,8.862345695495605,-2.7199347019195557
1761315751056879600,5.174879638671875,1.2680022716522217,9.558889389038086,-2.8610410690307617
1761315751075802000,5.193802001953125,2.747875213623047,9.651777267456055,-2.902094841003418
1761315751094724600,5.212724609375,15.02821159362793,10.999250411987305,-1.7718915939331055
1761315751113647000,5.231647216796875,8.982328414916992,7.886165142059326,0.21554327011108398
1761315751132569300,5.2505693359375,3.075087070465088,7.43710994720459,-1.030768871307373
1761315751151491800,5.269491943359375,2.8008532524108887,8.324174880981445,-3.022505044937134
1761315751170414300,5.288414306640625,3.2616710662841797,8.685734748840332,-4.8517374992370605
1761315751189336800,5.3073369140625,1.8268468379974365,8.029801368713379,-4.251188278198242
1761315751208259300,5.32625927734375,-0.46564704179763794,8.24915599822998,-4.322080612182617
1761315751227181800,5.345181884765625,-1.3050358295440674,8.22961711883545,-4.195509910583496
1761315751246104300,5.364104248046875,-1.4190067052841187,8.402541160583496,-3.866795539855957
1761315751265026800,5.38302685546875,-0.545575737953186,9.073845863342285,-3.8021793365478516
1761315751283949300,5.40194921875,1.1527464389801025,9.05868911743164,-3.23783016204834
1761315751302871600,5.42087158203125,3.13219952583313,7.820796489715576,-1.1739259958267212
1761315751321794000,5.4397939453125,8.87978458404541,4.897546768188477,-0.06994938850402832
1761315751340716500,5.458716552734375,-5.718301296234131,2.0072426795959473,1.028418779373169
1761315751359639000,5.47763916015625,-1.3576538562774658,0.3626365661621094,-0.452167272567749
1761315751378561500,5.4965615234375,12.630143165588379,-21.760637283325195,4.811941146850586
1761315751397484000,5.515484130859375,-7.149810791015625,-18.056304931640625,2.9753739833831787
1761315751416406500,5.534406494140625,2.36069393157959,-8.996386528015137,6.142061233520508
1761315751435328800,5.553328857421875,2.5088274478912354,-8.775457382202148,8.836308479309082
1761315751454251300,5.572251220703125,4.599822998046875,-14.864346504211426,7.480363845825195
1761315751473173800,5.591173828125,7.7058939933776855,-20.71422576904297,7.669636249542236
1761315751492096300,5.61009619140625,6.892317295074463,-13.393255233764648,2.9688448905944824
1761315751511018800,5.629018798828125,3.0553462505340576,-11.552884101867676,2.3275928497314453
1761315751529941200,5.647941162109375,1.4412875175476074,-11.68761157989502,1.4914324283599854
1761315751548863700,5.66686376953125,-0.16549253463745117,-10.239371299743652,1.02665376663208
1761315751567786200,5.6857861328125,-1.8577251434326172,-7.769478797912598,-0.404003381729126
1761315751586708700,5.704708740234375,-0.1791439652442932,-4.022818565368652,-1.8956286907196045
1761315751605631000,5.723630859375,-0.08320176601409912,0.9462556838989258,-3.1094682216644287
1761315751624553500,5.742553466796875,-0.0460691824555397,5.232594013214111,-2.7432973384857178
1761315751643476000,5.76147607421875,-0.8063609600067139,8.597466468811035,-2.017037868499756
1761315751662398500,5.7803984375,0.30793002247810364,9.463727951049805,-1.5890356302261353
1761315751681321000,5.799321044921875,1.6568125486373901,9.844765663146973,-1.8291106224060059
1761315751700243500,5.818243408203125,2.3908467292785645,10.072157859802246,-1.7855223417282104
1761315751719166000,5.837166015625,14.099849700927734,9.686786651611328,-0.21146249771118164
1761315751738088200,5.856088134765625,12.15837287902832,7.437290191650391,1.3522989749908447
1761315751757010700,5.8750107421875,5.611950874328613,7.4367828369140625,0.027646541595458984
1761315751775933200,5.89393310546875,0.2636649012565613,7.048776626586914,0.6486110687255859
1761315751794855700,5.912855712890625,-0.21876287460327148,8.530543327331543,-1.6549321413040161
1761315751813778200,5.931778076171875,-0.1680546998977661,9.98238754272461,-3.6034867763519287
1761315751832700700,5.95070068359375,0.4130399525165558,9.566807746887207,-4.363940715789795
1761315751851623200,5.969623046875,-0.3282366394996643,8.821621894836426,-4.5612101554870605
1761315751870545700,5.988545654296875,-0.705898106098175,8.736577033996582,-4.2636494636535645
1761315751889468200,6.00746826171875,-0.3854570984840393,9.041064262390137,-4.280786991119385
1761315751908390400,6.026390380859375,-0.5138063430786133,9.07674503326416,-5.278046607971191
1761315751927313000,6.04531298828125,4.038705348968506,7.324289798736572,-4.703554630279541
1761315751946235400,6.0642353515625,3.44777512550354,2.081191062927246,-0.10124588012695312
1761315751965158000,6.083157958984375,-10.336828231811523,0.988919734954834,-0.17895054817199707
1761315751984080400,6.102080322265625,-2.5488226413726807,-9.232834815979004,1.9629909992218018
1761315752003003000,6.1210029296875,12.467199325561523,-26.443939208984375,7.122410774230957
1761315752021925400,6.13992529296875,3.8344342708587646,-29.712486267089844,7.354921340942383
1761315752040847600,6.15884765625,-0.4189720153808594,-8.845317840576172,0.44635748863220215
1761315752059770000,6.17777001953125,5.157398223876953,-7.688652038574219,11.404438018798828
1761315752078692600,6.196692626953125,1.9004096984863281,-14.485859870910645,10.741617202758789
1761315752097615000,6.215614990234375,2.6879312992095947,-16.86229705810547,2.435746192932129
1761315752116537600,6.23453759765625,2.197974920272827,-13.011817932128906,-0.03811025619506836
1761315752135460000,6.253460205078125,0.21155238151550293,-10.154845237731934,0.7291314601898193
1761315752154382600,6.272382568359375,-1.0273982286453247,-9.889297485351562,1.4378314018249512
1761315752173305000,6.29130517578125,-2.4795215129852295,-7.971151351928711,1.5901575088500977
1761315752192227300,6.310227294921875,-1.9172239303588867,-3.89182186126709,0.10809755325317383
1761315752211149800,6.32914990234375,-1.330538034439087,1.32769775390625,-0.9426343441009521
1761315752230072300,6.348072265625,-0.8287928104400635,5.590012550354004,-1.3826056718826294
1761315752248994800,6.366994873046875,0.4006125330924988,9.008601188659668,-1.7518503665924072
1761315752267917300,6.385917236328125,2.6710121631622314,10.405299186706543,-2.254014253616333
1761315752286839800,6.40483984375,7.146383762359619,11.40333366394043,-3.2733805179595947
1761315752305762300,6.42376220703125,12.831319808959961,11.847031593322754,-3.442481279373169
1761315752324684500,6.4426845703125,9.217660903930664,5.5957112312316895,0.05838513374328613
1761315752343607000,6.46160693359375,3.85451078414917,3.973231792449951,-1.1351597309112549
1761315752362529500,6.480529541015625,3.2831454277038574,5.1673173904418945,-3.3779544830322266
1761315752381452000,6.4994521484375,2.9004344940185547,9.07348918914795,-2.5584840774536133
1761315752400374500,6.51837451171875,0.5211042761802673,10.378064155578613,-2.903296947479248
1761315752419297000,6.537297119140625,-1.7784219980239868,10.134886741638184,-3.477445363998413
1761315752438219500,6.556219482421875,-3.1841907501220703,9.11656665802002,-3.593853712081909
1761315752457142000,6.57514208984375,-3.312276840209961,9.092742919921875,-4.416698455810547
1761315752476064300,6.594064208984375,-2.0787265300750732,9.370390892028809,-3.60237979888916
1761315752494986800,6.61298681640625,-2.4093194007873535,9.930740356445312,-2.9184815883636475
1761315752513909200,6.6319091796875,-3.9674274921417236,10.195393562316895,-1.9933282136917114
1761315752532831700,6.650831787109375,-3.4192020893096924,7.556386470794678,-0.3246781826019287
1761315752551754200,6.669754150390625,-2.601088523864746,6.22412109375,-0.7996902465820312
1761315752570676700,6.6886767578125,8.200407028198242,-1.9399309158325195,2.670599937438965
1761315752589599200,6.70759912109375,10.96570110321045,-15.481701850891113,5.196901321411133
1761315752608521500,6.726521484375,6.105231285095215,-35.54024887084961,1.778402328491211
1761315752627444000,6.74544384765625,0.7125964164733887,-20.33295440673828,2.7234866619110107
1761315752646366500,6.764366455078125,2.160813093185425,-6.668288230895996,9.030393600463867
1761315752665289000,6.7832890625,4.487773895263672,-8.077666282653809,13.663352966308594
1761315752684211500,6.80221142578125,0.7821192741394043,-17.05972671508789,5.768853187561035
1761315752703134000,6.821134033203125,4.280056476593018,-18.889801025390625,-1.9102389812469482
1761315752722056400,6.840056396484375,2.294672727584839,-12.681246757507324,-1.8586963415145874
1761315752740978700,6.858978759765625,0.4860415458679199,-10.815689086914062,0.8394055366516113
1761315752759901200,6.877901123046875,-2.050488233566284,-9.85246467590332,3.957369804382324
1761315752778823700,6.89682373046875,-2.799142837524414,-5.572761535644531,4.9368414878845215
1761315752797746200,6.91574609375,-1.9184281826019287,0.2534341812133789,3.8049428462982178
1761315752816668700,6.934668701171875,-1.4307730197906494,5.196495532989502,1.0605840682983398
1761315752835591200,6.953591064453125,0.7814511060714722,8.768814086914062,-0.697138786315918
1761315752854513400,6.972513427734375,2.6183784008026123,10.127927780151367,-2.027452230453491
1761315752873436000,6.991435791015625,5.279372215270996,10.313232421875,-3.6231026649475098
1761315752892358400,7.0103583984375,10.649797439575195,10.466511726379395,-6.083161354064941
1761315752911281000,7.029281005859375,9.072342872619629,7.748212814331055,-5.8762030601501465
1761315752930203400,7.048203369140625,4.638237953186035,5.948923110961914,-3.2340142726898193
1761315752949126000,7.0671259765625,3.7694554328918457,6.197025299072266,-4.5132293701171875
1761315752968048400,7.08604833984375,3.170443058013916,8.45364761352539,-3.510301113128662
1761315752986971000,7.104970947265625,1.161605954170227,9.247099876403809,-2.0870072841644287
1761315753005893000,7.12389306640625,-0.2048531472682953,9.051307678222656,-1.2854340076446533
1761315753024815600,7.142815673828125,-0.9139764904975891,8.854023933410645,-1.6320396661758423
1761315753043738000,7.161738037109375,-1.203105092048645,8.82375717163086,-2.0487465858459473
1761315753062660600,7.18066064453125,-0.9178579449653625,8.92388916015625,-2.145585060119629
1761315753081583000,7.1995830078125,0.3072171211242676,8.439786911010742,-2.05912184715271
1761315753100505600,7.218505615234375,0.3290112018585205,8.424227714538574,-1.6680402755737305
1761315753119427800,7.237427734375,-0.5772054195404053,8.597563743591309,-2.344053030014038
1761315753138350300,7.256350341796875,-2.3532028198242188,7.809281349182129,-1.528963565826416
1761315753157272800,7.27527294921875,-4.010124683380127,5.559160232543945,-0.8188320398330688
1761315753176195300,7.2941953125,-4.340423107147217,2.7253222465515137,0.22641468048095703
1761315753195117800,7.313117919921875,3.836700677871704,-10.584031105041504,3.390188217163086
1761315753214040300,7.332040283203125,-2.5780904293060303,-24.54559898376465,8.934757232666016
1761315753232962600,7.350962646484375,10.904109954833984,-23.597896575927734,5.772877216339111
1761315753251885000,7.369885009765625,0.7807776927947998,-14.703784942626953,-3.8111491203308105
1761315753270807600,7.3888076171875,10.321905136108398,-20.466651916503906,0.9195330142974854
1761315753289730000,7.40772998046875,5.2953972816467285,-19.121021270751953,6.047873497009277
1761315753308652500,7.426652587890625,0.16095900535583496,-12.303241729736328,8.192091941833496
1761315753327575000,7.445574951171875,0.17650508880615234,-11.46340560913086,9.768562316894531
1761315753346497500,7.46449755859375,-1.1506543159484863,-12.169134140014648,7.971714496612549
1761315753365419800,7.483419677734375,-0.04303240776062012,-8.94661808013916,3.395223379135132
1761315753384342300,7.50234228515625,2.383859157562256,-4.004758834838867,0.11013245582580566
1761315753403264800,7.5212646484375,0.41725122928619385,0.7947778701782227,-3.4039711952209473
1761315753422187300,7.540187255859375,0.5276362895965576,4.919684886932373,-5.194666862487793
1761315753441109800,7.55910986328125,1.1237220764160156,7.927369117736816,-4.031769752502441
1761315753460032300,7.5780322265625,1.6976372003555298,9.36249828338623,-2.8006627559661865
1761315753478954500,7.59695458984375,2.542168617248535,9.59814739227295,-2.8189680576324463
1761315753497877000,7.615876953125,5.804357528686523,9.761799812316895,-3.122190237045288
1761315753516799500,7.634799560546875,15.451218605041504,7.840259075164795,0.13429617881774902
1761315753535722000,7.653721923828125,6.578057289123535,8.02200984954834,-0.9094858169555664
1761315753554644500,7.67264453125,-0.44468265771865845,9.25586986541748,-2.190157175064087
1761315753573567000,7.69156689453125,-1.5116740465164185,10.208820343017578,-4.006623268127441
1761315753592489500,7.710489501953125,-2.862492084503174,9.525646209716797,-3.8610153198242188
1761315753611411700,7.72941162109375,-1.66025972366333,9.206277847290039,-4.1413655281066895
1761315753630334200,7.748334228515625,0.051334261894226074,8.983142852783203,-4.345032215118408
1761315753649256700,7.767256591796875,0.7754406929016113,9.05386734008789,-3.7828845977783203
1761315753668179200,7.78617919921875,1.5156381130218506,8.987715721130371,-3.7584102153778076
1761315753687101700,7.805101806640625,1.071324348449707,8.54114818572998,-3.4524693489074707
1761315753706024000,7.82402392578125,1.432115077972412,7.971851825714111,-3.169665575027466
1761315753724946400,7.842946533203125,3.7179861068725586,7.069734573364258,-2.7485716342926025
1761315753743869000,7.861868896484375,8.995793342590332,4.642858028411865,-1.8730775117874146
1761315753762791400,7.88079150390625,-0.2644009590148926,2.032562732696533,-1.425155758857727
1761315753781714000,7.8997138671875,-10.674638748168945,2.2831578254699707,0.535590648651123
1761315753800636400,7.918636474609375,-4.708606719970703,0.1938915252685547,-2.563243865966797
1761315753819558700,7.93755859375,33.130985260009766,-39.85954284667969,15.478578567504883
1761315753838481200,7.956481201171875,7.8148393630981445,-37.86750030517578,3.3640761375427246
1761315753857403600,7.975403564453125,-1.6803710460662842,-9.753850936889648,4.206714630126953
1761315753876326100,7.994326171875,-1.9299956560134888,-9.405993461608887,16.177873611450195
1761315753895248600,8.01324853515625,0.4935147762298584,-9.709663391113281,11.009765625
1761315753914171100,8.032171142578125,3.890413999557495,-14.764657974243164,2.78289532661438
1761315753933093400,8.05109326171875,4.304015159606934,-15.585905075073242,-4.439952373504639
1761315753952016000,8.070015869140626,0.6049282550811768,-13.246685981750488,-2.823117971420288
1761315753970938400,8.0889384765625,0.5722006559371948,-10.321703910827637,-1.3917725086212158
1761315753989860900,8.10786083984375,-0.475821852684021,-6.502779006958008,-0.47052001953125
1761315754008783400,8.126783447265625,-0.8115517497062683,-1.8739986419677734,0.824589729309082
1761315754027705600,8.14570556640625,-0.90639728307724,2.5165796279907227,0.8423559665679932
1761315754046628000,8.164628173828126,-0.8805691003799438,7.710587978363037,0.28411078453063965
1761315754065550600,8.183550537109374,3.053623914718628,10.856969833374023,1.3484077453613281
1761315754084473000,8.20247314453125,11.207693099975586,12.637983322143555,0.9758906364440918
1761315754103395600,8.2213955078125,13.827079772949219,11.893399238586426,1.5855333805084229
1761315754122318000,8.240318115234375,5.3030104637146,7.932155609130859,1.281202793121338
1761315754141240300,8.259240234375,3.600644588470459,6.879722595214844,-3.779451370239258
1761315754160162800,8.278162841796876,3.1769959926605225,6.9252610206604,-5.337879180908203
1761315754179085300,8.297085205078124,1.0557520389556885,8.796453475952148,-3.877647876739502
1761315754198007800,8.3160078125,-0.5552554130554199,9.83464241027832,-2.97282338142395
1761315754216930300,8.334930419921875,-0.9553168416023254,9.885868072509766,-2.4316089153289795
1761315754235852800,8.353852783203125,-1.197923183441162,9.83228874206543,-1.5816587209701538
1761315754254775000,8.372775146484376,-0.9245400428771973,9.394682884216309,-1.454969882965088
1761315754273697500,8.391697509765624,-0.7622306942939758,9.120800018310547,-1.1574124097824097
1761315754292620000,8.4106201171875,-0.014717504382133484,8.65018367767334,-0.9093350172042847
1761315754311542500,8.42954248046875,0.6603624820709229,8.474933624267578,-0.18743395805358887
1761315754330465000,8.448465087890625,0.4995163083076477,8.212625503540039,-2.0369603633880615
1761315754349387300,8.46738720703125,6.4416022300720215,7.168262481689453,-4.348122596740723
1761315754368309800,8.486309814453126,20.33133316040039,0.35343170166015625,-4.730330467224121
1761315754387232300,8.505232177734374,-17.99651527404785,0.23172283172607422,4.696361541748047
1761315754406154800,8.52415478515625,-9.543329238891602,1.985243320465088,0.11682367324829102
1761315754425077200,8.5430771484375,8.684157371520996,-14.660748481750488,2.6236226558685303
1761315754443999500,8.56199951171875,6.6061296463012695,-32.02084732055664,10.020113945007324
1761315754462922000,8.580921875,-0.2563908100128174,-17.490299224853516,-1.1198233366012573
1761315754481844500,8.599844482421876,3.2399845123291016,-6.714486122131348,0.6661224365234375
1761315754500767000,8.61876708984375,3.3567399978637695,-13.922490119934082,6.333678722381592
1761315754519689500,8.637689453125,5.095942974090576,-17.795286178588867,0.8698999881744385
1761315754538612000,8.656612060546875,4.587024211883545,-16.333580017089844,0.570709228515625
1761315754557534200,8.6755341796875,1.4960105419158936,-13.278157234191895,2.9143543243408203
1761315754576456700,8.694456787109376,0.9011051654815674,-10.846409797668457,5.486265182495117
1761315754595379200,8.713379150390624,-1.6325528621673584,-8.318577766418457,4.818471908569336
1761315754614301700,8.7323017578125,-0.7917755842208862,-5.624335289001465,2.8376288414001465
1761315754633224200,8.75122412109375,0.5133843421936035,-1.3861751556396484,0.7756078243255615
1761315754652146400,8.770146484375,0.5960341691970825,3.5997138023376465,-1.032597303390503
1761315754671069000,8.78906884765625,0.7142471075057983,6.842904090881348,-2.217902183532715
1761315754689991400,8.807991455078126,0.87671959400177,9.285862922668457,-2.504110813140869
1761315754708914000,8.826913818359374,1.6011505126953125,9.973228454589844,-2.301943778991699
1761315754727836400,8.84583642578125,2.3349502086639404,10.015416145324707,-2.2184808254241943
1761315754746758700,8.864758544921875,6.054046154022217,10.411162376403809,-3.2155065536499023
1761315754765681200,8.88368115234375,8.957918167114258,8.92318058013916,-1.421154499053955
1761315754784603600,8.902603759765626,6.690950870513916,7.928940773010254,-0.3454000949859619
1761315754803526100,8.921526123046876,2.7480273246765137,8.041589736938477,-0.48715007305145264
1761315754822448600,8.94044873046875,-0.19485241174697876,9.033977508544922,-1.2475075721740723
1761315754841371100,8.95937109375,0.3826659023761749,9.835659980773926,-1.682875394821167
1761315754860293400,8.97829345703125,-0.7336170673370361,9.519121170043945,-2.1984894275665283
1761315754879215900,8.9972158203125,-1.3625164031982422,9.07460880279541,-2.919099807739258
1761315754898138400,9.016138427734376,-1.261728286743164,8.438909530639648,-2.9672083854675293
1761315754917060900,9.035060791015624,-0.22050434350967407,8.395636558532715,-2.9701011180877686
1761315754935983000,9.053983154296875,0.490996390581131,8.558669090270996,-3.4400477409362793
1761315754954905600,9.072905517578125,0.3648720383644104,8.214137077331543,-3.0715317726135254
1761315754973828000,9.091828125,12.162339210510254,5.526394844055176,-1.8953087329864502
1761315754992750600,9.11075048828125,17.18498420715332,-2.412753105163574,-1.7302438020706177
1761315755011673000,9.129673095703126,-15.91238021850586,-6.904223442077637,2.7263336181640625
1761315755030595300,9.14859521484375,-3.6135566234588623,-11.436129570007324,-2.957814931869507
1761315755049517800,9.167517822265625,6.516051292419434,-29.749723434448242,12.412592887878418
1761315755068440300,9.1864404296875,-2.792048454284668,-13.029953956604004,-2.517328977584839
1761315755087362800,9.20536279296875,0.3557705879211426,-6.230912208557129,5.487949848175049
1761315755106285300,9.224285400390626,1.9452309608459473,-12.07072639465332,10.687040328979492
1761315755125207800,9.243207763671874,6.785942077636719,-19.455324172973633,4.709049224853516
1761315755144130000,9.262130126953124,4.115335464477539,-16.552091598510742,0.7949671745300293
1761315755163052500,9.281052490234375,1.4026062488555908,-10.384990692138672,1.116889476776123
1761315755181975000,9.29997509765625,-0.11798739433288574,-10.199973106384277,2.8342626094818115
1761315755200897500,9.3188974609375,-1.7585123777389526,-9.51497745513916,2.9958953857421875
1761315755219819800,9.33781982421875,-1.7557798624038696,-6.325308799743652,1.913036584854126
1761315755238742300,9.3567421875,-0.3415263295173645,-0.8454036712646484,0.43958115577697754
1761315755257664800,9.375664794921875,-0.37935954332351685,4.185371398925781,-1.0654172897338867
1761315755276587300,9.394587158203125,-0.06931041181087494,7.687129974365234,-2.3751630783081055
1761315755295509800,9.413509765625,0.3311941623687744,10.052661895751953,-2.8024463653564453
1761315755314432000,9.432431884765625,1.5964796543121338,10.338447570800781,-2.989391326904297
1761315755333354500,9.4513544921875,2.9971795082092285,10.133325576782227,-2.7558696269989014
1761315755352277000,9.470277099609374,9.580326080322266,11.095385551452637,-4.252098560333252
1761315755371199500,9.489199462890625,12.877976417541504,8.023390769958496,-1.8961384296417236
1761315755390121700,9.508121826171875,4.781801223754883,5.915352821350098,-0.03450512886047363
1761315755409044200,9.527044189453125,0.8253328204154968,5.526031494140625,0.7990372180938721
1761315755427966700,9.545966796875,2.5888161659240723,6.804407119750977,-0.2608158588409424
1761315755446889200,9.56488916015625,1.9070125818252563,9.419137954711914,-0.903245210647583
1761315755465811700,9.583811767578124,0.2919827401638031,10.875378608703613,-1.6719703674316406
1761315755484734000,9.60273388671875,-0.47915223240852356,10.92036247253418,-2.3907155990600586
1761315755503656400,9.621656494140625,-1.391424536705017,9.783658981323242,-3.459090232849121
1761315755522579000,9.640578857421875,-1.3263182640075684,9.416569709777832,-3.742398738861084
1761315755541501400,9.65950146484375,-0.3097507953643799,9.253196716308594,-4.3048858642578125
1761315755560424000,9.678423828125,3.4069840908050537,7.453311920166016,-2.8367433547973633
1761315755579346200,9.69734619140625,-4.742561340332031,5.675444602966309,-1.6498894691467285
1761315755598268700,9.7162685546875,-5.145328044891357,3.432077407836914,-0.6538618803024292
1761315755617191200,9.735191162109375,21.953763961791992,-16.281267166137695,7.54100227355957
1761315755636113700,9.75411376953125,-4.97743034362793,-26.739343643188477,-0.7162001132965088
1761315755655036000,9.773035888671876,-0.12003684043884277,-25.76457977294922,4.070148468017578
1761315755673958400,9.79195849609375,1.5746548175811768,-7.0810747146606445,1.1214489936828613
1761315755692881000,9.810880859375,6.0034499168396,-10.355809211730957,6.942670822143555
1761315755711803400,9.829803466796875,6.665613651275635,-20.275541305541992,2.960231304168701
1761315755730725600,9.8487255859375,3.3575470447540283,-17.05693817138672,-2.258422613143921
1761315755749648100,9.867648193359376,0.9757838249206543,-12.116710662841797,1.830575942993164
1761315755768570600,9.886570556640624,-0.46077263355255127,-11.197480201721191,6.637543678283691
1761315755787493000,9.9054931640625,-0.8731426000595093,-9.216647148132324,6.723755836486816
1761315755806415600,9.92441552734375,-0.16785788536071777,-5.401375770568848,5.933777809143066
1761315755825338000,9.943338134765625,1.6702864170074463,0.47884464263916016,4.439718723297119
1761315755844260400,9.96226025390625,1.6100143194198608,4.936394691467285,0.9525306224822998
1761315755863182800,9.981182861328126,0.9841233491897583,8.04014778137207,-2.5780460834503174
1761315755882105300,10.000105224609374,1.1786234378814697,9.64245319366455,-3.803140163421631
1761315755901027800,10.01902783203125,1.1653650999069214,10.00647258758545,-3.867138147354126
1761315755919950000,10.0379501953125,1.9766789674758911,9.818704605102539,-3.353412389755249
1761315755938872600,10.05687255859375,4.942200660705566,10.010078430175781,-4.257709503173828
1761315755957795000,10.075795166015626,8.223861694335938,9.123780250549316,-5.295337200164795
1761315755976717600,10.094717529296876,5.998658180236816,7.962385654449463,-3.244594097137451
1761315755995639800,10.113639892578124,2.1708462238311768,7.467371940612793,-1.753502607345581
1761315756014562300,10.132562255859375,1.7430044412612915,9.116207122802734,-0.9199866056442261
1761315756033484800,10.15148486328125,-0.8317608833312988,10.604165077209473,-0.7464296817779541
1761315756052407300,10.1704072265625,-2.608715057373047,10.505884170532227,-1.1915717124938965
1761315756071329500,10.18932958984375,-2.1231753826141357,9.754936218261719,-2.1407337188720703
1761315756090252000,10.208251953125,-1.1223466396331787,9.269227981567383,-2.187386989593506
1761315756109174500,10.227174560546874,0.33856093883514404,8.922636032104492,-1.9033015966415405
1761315756128097000,10.246096923828125,3.2006301879882812,8.227359771728516,-1.6305270195007324
1761315756147019500,10.26501953125,9.132194519042969,5.781723976135254,0.0942840576171875
1761315756165941800,10.283941650390625,0.5446171760559082,2.8018569946289062,0.3695063591003418
1761315756184864300,10.3028642578125,-8.065839767456055,2.023164749145508,-0.17996299266815186
1761315756203786800,10.321786865234374,-4.574666976928711,-0.3752937316894531,-1.658830165863037
1761315756222709200,10.340709228515625,11.588610649108887,-21.93132209777832,4.525804042816162
1761315756241631500,10.359631591796875,12.598245620727539,-40.09021759033203,11.87785816192627
1761315756260554000,10.378553955078125,-1.782914161682129,-14.983508110046387,-1.6795244216918945
1761315756279476500,10.3974765625,-1.2038638591766357,-3.9771032333374023,8.459142684936523
1761315756298399000,10.41639892578125,-1.3149561882019043,-7.4622344970703125,11.534417152404785
1761315756317321200,10.4353212890625,1.7152178287506104,-14.574691772460938,4.8386359214782715
1761315756336243700,10.45424365234375,4.1126885414123535,-20.048349380493164,-0.9920611381530762
1761315756355166200,10.473166259765625,4.138154983520508,-14.786227226257324,-3.2688851356506348
1761315756374088700,10.492088623046875,-0.8405276536941528,-9.444826126098633,-0.7841181755065918
1761315756393011000,10.511010986328126,0.6955057382583618,-5.836383819580078,0.8263931274414062
1761315756411933400,10.529933349609376,0.25033724308013916,-2.5168256759643555,-0.3678901195526123
1761315756430856000,10.54885595703125,-0.49849623441696167,1.0155067443847656,-0.0564122200012207
1761315756449778400,10.5677783203125,-0.391074538230896,4.817985534667969,-0.6332387924194336
1761315756468701000,10.586700927734375,0.3129739761352539,8.493385314941406,-0.9041707515716553
1761315756487623200,10.605623046875,2.211625099182129,10.616315841674805,-1.3624963760375977
1761315756506545700,10.624545654296876,3.61336612701416,10.901655197143555,-2.0047430992126465
1761315756525468200,10.64346826171875,4.3006205558776855,10.772782325744629,-2.434556484222412
1761315756544390700,10.662390625,7.393850326538086,10.972423553466797,-3.087212562561035
1761315756563313000,10.68131298828125,6.951406478881836,8.933761596679688,-2.078446626663208
1761315756582235400,10.7002353515625,3.7866640090942383,8.514245986938477,-1.278286337852478
1761315756601158000,10.719157958984376,2.069183349609375,7.991900444030762,-0.4491114616394043
1761315756620080400,10.738080322265626,2.5161044597625732,8.407356262207031,-0.2561084032058716
1761315756639002600,10.757002685546874,0.14590615034103394,9.613282203674316,-1.5202364921569824
1761315756657925000,10.775925048828125,-2.27661395072937,9.480514526367188,-2.161837100982666
1761315756676847600,10.79484765625,-2.321183204650879,9.654809951782227,-3.048187732696533
1761315756695769900,10.813769775390625,-1.242175817489624,9.347002983093262,-2.491150379180908
1761315756714692400,10.8326923828125,-0.6029555797576904,9.349979400634766,-2.347245693206787
1761315756733614800,10.85161474609375,0.5051227807998657,8.9721040725708,-2.0344393253326416
1761315756752537300,10.870537353515624,13.323023796081543,4.865819454193115,1.6397645473480225
1761315756771459800,10.8894599609375,-3.2144453525543213,2.646523952484131,1.7712037563323975
1761315756790382000,10.908382080078125,5.463730812072754,-7.880592346191406,3.550710678100586
1761315756809304600,10.9273046875,13.388177871704102,-36.68824768066406,3.290722608566284
1761315756828227000,10.94622705078125,-3.0297183990478516,-27.128740310668945,-0.46908116340637207
1761315756847149600,10.965149658203124,-4.652032852172852,-9.200434684753418,3.051929473876953
1761315756866071800,10.98407177734375,-1.2245135307312012,-6.111969947814941,9.952752113342285
1761315756884994300,11.002994384765625,-3.1567203998565674,-9.64047622680664,6.996831893920898
1761315756903916800,11.021916748046875,3.688687801361084,-15.716386795043945,0.5976479053497314
1761315756922839000,11.040839111328125,6.8653388023376465,-18.5770320892334,-1.7207571268081665
1761315756941761500,11.059761474609376,-0.021886348724365234,-13.722268104553223,0.0466001033782959
1761315756960684000,11.07868408203125,-0.2718515396118164,-9.397974014282227,2.6502418518066406
1761315756979606500,11.0976064453125,-1.0740883350372314,-5.251590728759766,4.034026145935059
1761315756998528800,11.11652880859375,-1.6815334558486938,-0.7963581085205078,3.0448338985443115
1761315757017451300,11.135451171875,0.0007079839706420898,3.5265684127807617,2.5662901401519775
1761315757036373800,11.154373779296876,0.961185872554779,7.304237365722656,1.134049415588379
1761315757055296300,11.173296142578126,1.3294906616210938,9.873330116271973,-0.7425829172134399
1761315757074218500,11.192218505859374,1.8527209758758545,10.48197078704834,-1.923795223236084
1761315757093141000,11.21114111328125,2.3713502883911133,10.105030059814453,-2.524526357650757
1761315757112063500,11.2300634765625,6.781204700469971,10.284536361694336,-3.946136474609375
1761315757130986000,11.248986083984375,11.078272819519043,7.996149063110352,-3.7949535846710205
1761315757149908200,11.267908203125,5.914422512054443,6.675997734069824,-1.7407739162445068
1761315757168830700,11.286830810546874,0.21282193064689636,5.581899166107178,-0.5443040132522583
1761315757187753200,11.305753173828125,2.5900301933288574,7.075479030609131,-1.959355115890503
1761315757206675700,11.32467578125,1.8883142471313477,9.690184593200684,-2.0259387493133545
1761315757225598000,11.343597900390625,-0.46379372477531433,10.558101654052734,-1.7273130416870117
1761315757244520400,11.3625205078125,-1.1132984161376953,10.274724960327148,-2.1224365234375
1761315757263443000,11.38144287109375,-1.6674838066101074,9.530388832092285,-2.6811740398406982
1761315757282365400,11.400365478515624,-1.5596272945404053,9.051627159118652,-2.5891404151916504
1761315757301287700,11.41928759765625,-0.5558685064315796,8.395511627197266,-2.4547557830810547
1761315757320210200,11.438210205078125,0.5129269957542419,7.3282694816589355,-2.245924711227417
1761315757339132700,11.457132568359375,8.719505310058594,4.957207202911377,-0.6284704804420471
1761315757358055200,11.47605517578125,7.15319299697876,-0.8490228652954102,1.3261178731918335
1761315757376977400,11.494977294921876,-3.212317943572998,-7.408774375915527,0.42068278789520264
1761315757395900000,11.51389990234375,25.94292449951172,-30.516447067260742,2.4009130001068115
1761315757414822400,11.532822509765625,-13.611882209777832,-23.604843139648438,-1.710850715637207
1761315757433744600,11.55174462890625,-0.6921796798706055,-8.052324295043945,3.6568515300750732
1761315757452667100,11.570667236328125,1.6695599555969238,-7.248872756958008,14.932350158691406
1761315757471589600,11.589589599609376,3.797034740447998,-8.909098625183105,14.889044761657715
1761315757490512100,11.60851220703125,4.528237819671631,-15.924860954284668,7.271373748779297
1761315757509434400,11.627434326171874,3.6087911128997803,-17.709985733032227,-3.0934998989105225
1761315757528356900,11.64635693359375,-0.3915255069732666,-13.56192398071289,-5.109678268432617
1761315757547279400,11.665279296875,-0.7167966365814209,-10.804194450378418,-1.9227418899536133
1761315757566201900,11.684201904296875,-1.603325366973877,-7.089301109313965,-0.47482335567474365
1761315757585124000,11.7031240234375,-2.0306103229522705,-2.9835920333862305,0.7635509967803955
1761315757604046600,11.722046630859374,-1.7040910720825195,1.9688329696655273,0.8287148475646973
1761315757622969000,11.740968994140625,-0.2100474238395691,6.001288414001465,0.1261451244354248
1761315757641891600,11.7598916015625,0.29191282391548157,9.016836166381836,-1.2679846286773682
1761315757660813800,11.778813720703125,1.2297313213348389,10.376288414001465,-1.7440038919448853
1761315757679736300,11.797736328125,2.2104363441467285,10.40393352508545,-1.894871711730957
1761315757698658800,11.816658935546876,7.2315754890441895,10.960416793823242,-2.2447779178619385
1761315757717581000,11.8355810546875,14.526408195495605,9.272906303405762,-1.1641967296600342
1761315757736503600,11.854503662109375,8.375490188598633,5.529329299926758,1.1028854846954346
1761315757755426000,11.873426025390625,2.0277762413024902,4.530820846557617,0.13807880878448486
1761315757774348500,11.8923486328125,2.482801914215088,6.855434894561768,-2.7584335803985596
1761315757793270800,11.911270751953126,0.5689694881439209,9.603976249694824,-1.7663342952728271
1761315757812193300,11.930193359375,-1.3787710666656494,10.723548889160156,-2.0455126762390137
1761315757831115800,11.94911572265625,-1.5169920921325684,10.373078346252441,-2.444099187850952
1761315757850038300,11.968038330078125,-2.0757486820220947,9.701994895935059,-1.8720884323120117
1761315757868960500,11.98696044921875,-0.1628512591123581,9.265384674072266,-2.019649028778076
1761315757887883000,12.005883056640625,1.8873642683029175,9.011907577514648,-2.106234550476074
1761315757906805500,12.024805419921876,12.085677146911621,7.230451583862305,-2.3781299591064453
1761315757925728000,12.04372802734375,2.9512875080108643,3.7546138763427734,1.705613374710083
1761315757944650200,12.062650146484375,-10.288894653320312,2.1556363105773926,2.4549498558044434
1761315757963572700,12.08157275390625,4.0781097412109375,-4.3320207595825195,2.265509605407715
1761315757982495200,12.1004951171875,4.277444839477539,-30.927001953125,3.5804431438446045
1761315758001417500,12.11941748046875,5.411949157714844,-26.032243728637695,-2.6436851024627686
1761315758020340000,12.138340087890626,-6.777539253234863,-6.194680213928223,-3.122310161590576
1761315758039262500,12.157262451171874,4.0971808433532715,-5.384526252746582,7.096654891967773
1761315758058185000,12.17618505859375,3.7188608646392822,-14.683053970336914,12.599451065063477
1761315758077107200,12.195107177734375,7.205105781555176,-20.317413330078125,4.69645881652832
1761315758096029700,12.21402978515625,3.7710955142974854,-14.258166313171387,-0.4950270652770996
1761315758114952200,12.2329521484375,1.1382598876953125,-9.854074478149414,-1.2141188383102417
1761315758133874400,12.25187451171875,0.157806396484375,-9.7124662399292,-0.0796961784362793
1761315758152797000,12.270796875,0.0756216049194336,-7.893284797668457,0.6062190532684326
1761315758171719400,12.289719482421875,0.01779341697692871,-2.8628673553466797,0.4777803421020508
1761315758190642000,12.308641845703125,0.6666689515113831,2.531191825866699,1.1380727291107178
1761315758209564200,12.327564208984375,0.43542763590812683,6.481579303741455,-0.23398232460021973
1761315758228486700,12.346486572265626,-0.29080459475517273,9.194572448730469,-1.5974960327148438
1761315758247409200,12.3654091796875,0.24198712408542633,10.407270431518555,-2.0624420642852783
1761315758266331600,12.38433154296875,1.2566169500350952,10.251152038574219,-2.0739519596099854
1761315758285254000,12.40325390625,1.9268348217010498,10.08835220336914,-2.0900306701660156
1761315758304176400,12.42217626953125,6.339879989624023,10.85720443725586,-3.4350461959838867
1761315758323099000,12.441098876953125,8.918485641479492,10.04256820678711,-2.3856053352355957
1761315758342021000,12.460021240234376,5.992086887359619,8.101143836975098,-0.6871660947799683
1761315758360943600,12.478943603515624,1.2924518585205078,7.825653076171875,-0.34591078758239746
1761315758379866000,12.4978662109375,1.0130882263183594,8.32705020904541,-0.391035795211792
1761315758398788600,12.51678857421875,0.4396775960922241,8.669259071350098,-1.1345231533050537
1761315758417710800,12.5357109375,-0.5695028305053711,8.727058410644531,-2.191906213760376
1761315758436633300,12.55463330078125,-1.4001976251602173,8.60573673248291,-2.530233383178711
1761315758455555800,12.573555908203126,-1.1128721237182617,8.605281829833984,-2.5939741134643555
1761315758474478000,12.59247802734375,-0.48158353567123413,8.446876525878906,-2.5305800437927246
1761315758493400600,12.611400634765625,-0.3907129168510437,7.786419868469238,-2.112908363342285
1761315758512323000,12.630322998046875,7.176352500915527,3.3826475143432617,1.098357915878296
1761315758531245600,12.64924560546875,-4.7307844161987305,-0.9010047912597656,-2.57584547996521
1761315758550167800,12.668167724609376,2.871748685836792,-21.308849334716797,-2.2883872985839844
1761315758569090300,12.68709033203125,9.436891555786133,-39.28840255737305,5.806758880615234
1761315758588012800,12.7060126953125,6.59918212890625,-20.724468231201172,-0.03190493583679199
1761315758606935300,12.724935302734375,-8.079618453979492,-4.5116424560546875,3.591904878616333
1761315758625857500,12.743857421875,-2.557047128677368,-3.6484813690185547,13.821929931640625
1761315758644780000,12.762780029296875,-3.968895673751831,-3.653164863586426,9.620180130004883
1761315758663702500,12.78170263671875,-4.518195152282715,-1.9991836547851562,3.7521729469299316
1761315758682624800,12.800624755859374,-3.6103909015655518,-1.9723243713378906,0.1867457628250122
1761315758701547300,12.81954736328125,-0.7586016654968262,-3.0855236053466797,-0.8493732213973999
1761315758720469800,12.8384697265625,-0.972869873046875,-1.9336929321289062,-1.5090913772583008
1761315758739392300,12.857392333984375,-0.9157617092132568,-0.9888448715209961,-1.4056390523910522
1761315758758314500,12.876314453125,0.6382888555526733,0.05021858215332031,-1.048868179321289
1761315758777237000,12.895237060546876,0.1060338020324707,2.063009738922119,-0.9556630849838257
1761315758796159500,12.914159423828124,-0.053265929222106934,3.4649462699890137,-0.4639911651611328
1761315758815081700,12.933081787109375,0.12171262502670288,4.40886926651001,-0.0311276912689209
1761315758834004200,12.952004150390625,0.2602234482765198,5.395755767822266,-0.4399303197860718
1761315758852926700,12.9709267578125,1.993876576423645,7.284472942352295,-1.6795846223831177
1761315758871849200,12.98984912109375,3.63096284866333,6.604232311248779,-1.3812469244003296
1761315758890771500,13.008771484375,3.035106658935547,4.3533782958984375,-0.8813248872756958
1761315758909694000,13.02769384765625,2.3790714740753174,2.778888702392578,-1.1901962757110596
1761315758928616400,13.046616455078125,2.5087127685546875,-0.033573150634765625,-2.9554295539855957
1761315758947539000,13.0655390625,1.7216625213623047,-9.289277076721191,-2.131955146789551
1761315758966461200,13.084461181640625,0.9223098158836365,-8.460497856140137,-0.32050657272338867
1761315758985383700,13.1033837890625,0.33043915033340454,-2.1041316986083984,1.4081071615219116
1761315759004306200,13.12230615234375,0.07439947128295898,1.8377466201782227,1.8732378482818604
1761315759023228400,13.141228515625,-0.37530648708343506,1.4558229446411133,4.236349582672119
1761315759042151000,13.16015087890625,-0.13424181938171387,1.5370960235595703,3.3750436305999756
1761315759061073400,13.179073486328125,1.0635831356048584,1.3776979446411133,-1.587188482284546
1761315759079995600,13.19799560546875,2.182372808456421,-0.6993389129638672,-4.654538154602051
1761315759098918100,13.216918212890626,2.0508460998535156,-4.479233741760254,0.7919410467147827
1761315759117840600,13.235840576171874,-0.9404946565628052,-2.1334218978881836,5.4368791580200195
1761315759136763100,13.25476318359375,-0.46868693828582764,1.7019071578979492,4.427141189575195
1761315759155685400,13.273685302734375,-0.0569344162940979,2.5679750442504883,3.048506736755371
1761315759174608000,13.29260791015625,-0.27741295099258423,2.7030715942382812,0.520883321762085
1761315759193530400,13.3115302734375,-0.31502455472946167,1.3008708953857422,-1.3175220489501953
1761315759212452900,13.330452880859376,-0.4086475372314453,-2.2232179641723633,-0.14728546142578125
1761315759231375000,13.349375,-0.7949880361557007,-0.5328664779663086,0.9655113220214844
1761315759250297600,13.368297607421875,-0.09010398387908936,1.2415046691894531,2.1852309703826904
1761315759269220000,13.38722021484375,0.6641980409622192,-3.28201961517334,3.668056011199951
1761315759288142300,13.406142333984375,-2.0344974994659424,-1.130218505859375,0.710132360458374
1761315759307064800,13.42506494140625,0.5544393062591553,2.914707660675049,-3.308657169342041
1761315759325987300,13.4439873046875,3.4677376747131348,3.5300097465515137,-4.674343109130859
1761315759344909800,13.462909912109374,3.7168498039245605,-2.6350364685058594,-5.7560882568359375
1761315759363832000,13.48183203125,1.614970088005066,-4.238807678222656,-1.691959261894226
1761315759382754600,13.500754638671875,-1.155977487564087,-0.14678955078125,1.8904197216033936
1761315759401677000,13.519677001953125,-2.4626612663269043,1.1811771392822266,5.183867454528809
1761315759420599300,13.538599365234376,-1.6468515396118164,1.3106184005737305,4.551609992980957
1761315759439521800,13.557521728515624,-1.2089895009994507,-0.36509132385253906,0.2322218418121338
1761315759458444300,13.5764443359375,-0.2546752691268921,-2.4215383529663086,1.881666898727417
1761315759477366500,13.595366455078125,0.27508679032325745,-1.6033172607421875,4.058253288269043
1761315759496289000,13.6142890625,-0.2914201617240906,1.1359643936157227,1.1619136333465576
1761315759515211500,13.63321142578125,2.070168972015381,4.3119025230407715,-8.062255859375
1761315759534134000,13.652134033203126,3.3360390663146973,-3.8525190353393555,-8.491077423095703
1761315759553056300,13.67105615234375,0.7246304750442505,-3.347203254699707,-3.112755537033081
1761315759571978800,13.689978759765625,-1.7896006107330322,0.6612205505371094,2.9467315673828125
1761315759590901200,13.7089013671875,-1.842929720878601,1.213057518005371,6.5677385330200195
1761315759609823700,13.72782373046875,-2.8808515071868896,-0.9012451171875,6.511598587036133
1761315759628746000,13.74674609375,-3.9731972217559814,-1.0796308517456055,3.81445574760437
1761315759647668500,13.76566845703125,-2.688183069229126,0.39975929260253906,1.929396152496338
1761315759666591000,13.784591064453124,-1.2951600551605225,0.2973928451538086,-2.780245542526245
1761315759685513200,13.80351318359375,0.8474512696266174,-1.9868659973144531,-3.6701338291168213
1761315759704435700,13.822435791015625,0.6265248656272888,-2.566577911376953,-3.224665880203247
1761315759723358200,13.841358154296875,-1.2203575372695923,-1.6759586334228516,-2.4750070571899414
1761315759742280400,13.860280517578126,-1.5845093727111816,-0.36594676971435547,-0.8505306243896484
1761315759761203000,13.879202880859374,-2.022254467010498,-0.08706188201904297,0.5583109855651855
1761315759780125400,13.89812548828125,2.6325297355651855,-0.39063358306884766,-0.23792362213134766
1761315759799048000,13.9170478515625,5.329893589019775,-3.6520729064941406,0.24115049839019775
1761315759817970200,13.93597021484375,6.164865016937256,-6.038755416870117,2.4151484966278076
1761315759836892700,13.954892578125,6.112885475158691,-3.4880733489990234,1.6606444120407104
1761315759855815200,13.973815185546876,3.926115036010742,-2.375089645385742,1.8803234100341797
1761315759874737400,13.9927373046875,-1.4120442867279053,0.11015987396240234,2.0415756702423096
1761315759893660000,14.011659912109375,-8.22961139678955,3.3678789138793945,-3.516636848449707
1761315759912582400,14.03058251953125,-9.177427291870117,4.886379241943359,-8.901153564453125
1761315759931504600,14.049504638671875,-8.007187843322754,4.876389503479004,-5.482172012329102
1761315759950427100,14.06842724609375,6.491410255432129,-1.5932111740112305,2.4093971252441406
1761315759969349600,14.087349609375,12.587370872497559,-3.3302135467529297,7.10404109954834
1761315759988272000,14.106272216796874,3.832228183746338,0.2256479263305664,1.5615589618682861
1761315760007194400,14.1251943359375,-2.768582820892334,1.821300983428955,0.7302436828613281
1761315760026116900,14.144116943359375,-4.374665260314941,3.2458982467651367,0.3306272029876709
1761315760045039400,14.163039306640625,-3.9903879165649414,1.3657703399658203,1.9644687175750732
1761315760063961600,14.181961669921876,-0.8298768401145935,1.7317357063293457,0.24186158180236816
1761315760082884000,14.200884033203126,1.7563823461532593,2.792581081390381,-0.7945232391357422
1761315760101806600,14.219806640625,0.8075383901596069,3.6514291763305664,-0.3977632522583008
1761315760120728800,14.238728759765625,0.4573920965194702,2.358447551727295,0.1112971305847168
1761315760139651300,14.2576513671875,0.2602583169937134,0.9358863830566406,0.18120694160461426
1761315760158573800,14.27657373046875,0.37107527256011963,-0.3517780303955078,0.48428797721862793
1761315760177496300,14.295496337890626,0.2965962886810303,-0.35399436950683594,0.5269947052001953
1761315760196418600,14.31441845703125,0.11567330360412598,-0.1161508560180664,0.45125603675842285
1761315760215341000,14.333341064453125,-0.41731691360473633,0.5580167770385742,0.940575361251831
1761315760234263600,14.352263671875,-0.41146326065063477,0.6159086227416992,0.5156669616699219
1761315760253185800,14.371185791015625,-0.1771477460861206,-0.3540191650390625,0.8343698978424072
1761315760272108300,14.3901083984375,-0.007959127426147461,-1.0379400253295898,0.796379566192627
1761315760291030800,14.40903076171875,0.5614557266235352,-1.5505027770996094,0.8580596446990967
1761315760309953000,14.427953125,0.6051771640777588,-1.0046052932739258,0.15654683113098145
1761315760328875500,14.44687548828125,2.035853385925293,-0.27410411834716797,-0.29632043838500977
1761315760347798000,14.465798095703125,0.18573498725891113,0.40507984161376953,-0.6063137054443359
1761315760366720500,14.484720458984375,-0.2788403034210205,0.1116790771484375,-0.492156982421875
1761315760385642800,14.503642822265626,0.28085780143737793,0.05085182189941406,-0.06634664535522461
1761315760404565200,14.522565185546876,0.4170393943786621,0.34701061248779297,-0.12743854522705078
1761315760423487700,14.54148779296875,0.1053304672241211,0.14991378784179688,0.09441757202148438
1761315760442410000,14.560409912109375,-0.10144925117492676,-0.16690444946289062,0.3025674819946289
1761315760461332500,14.57933251953125,0.3468310832977295,-0.2540569305419922,0.13481998443603516
1761315760480255000,14.5982548828125,0.4447453022003174,-0.5255775451660156,-0.13742542266845703
1761315760499177200,14.61717724609375,-0.020301103591918945,-0.22796344757080078,0.21524715423583984
1761315760518099700,14.636099609375,-0.2705881595611572,0.01821136474609375,0.3130512237548828
1761315760537022200,14.655022216796874,0.016218900680541992,-0.08168792724609375,0.1336965560913086
1761315760555944700,14.67394482421875,0.18999075889587402,-0.1312704086303711,-0.016254901885986328
1761315760574867000,14.692866943359375,0.24857711791992188,0.00022792816162109375,-0.08276605606079102
1761315760593789400,14.71178955078125,0.0722498893737793,-0.07879066467285156,-0.028316497802734375
1761315760612712000,14.7307119140625,-0.019602060317993164,-0.0865945816040039,0.0740976333618164
1761315760631634200,14.74963427734375,-0.09622716903686523,0.1208944320678711,0.09270715713500977
1761315760650556700,14.768556640625,-0.09426426887512207,-0.04560375213623047,0.1753082275390625
1761315760669479200,14.787479248046875,-0.10122942924499512,-0.05684852600097656,0.2729034423828125
1761315760688401700,14.806401611328125,-0.0742647647857666,-0.009716033935546875,0.22423839569091797
1761315760707324000,14.825323974609375,-0.22742700576782227,-0.15841197967529297,0.10452079772949219
1761315760726246400,14.844246337890626,-0.1621861457824707,-0.2481517791748047,0.14077091217041016
1761315760745169000,14.8631689453125,0.019745588302612305,-0.08749866485595703,0.09719276428222656
1761315760764091100,14.882091064453125,-0.06294131278991699,0.013971328735351562,0.07911252975463867
1761315760783013600,14.901013671875,-0.12240076065063477,0.11141777038574219,0.036353111267089844
1761315760801936100,14.91993603515625,-0.09245157241821289,0.021841049194335938,-0.01387929916381836
1761315760820858400,14.9388583984375,0.03110957145690918,-0.04941368103027344,-0.06049537658691406
1761315760839780900,14.95778076171875,0.04181647300720215,-0.11673641204833984,0.21169233322143555
1761315760858703400,14.976703369140624,-0.0021724700927734375,0.002178192138671875,0.08977174758911133
1761315760877625600,14.99562548828125,-0.09323763847351074,0.18666553497314453,-0.09230184555053711
1761315760896548000,15.014548095703125,0.12042570114135742,0.09833431243896484,-0.0780782699584961
1761315760915470600,15.033470703125,0.14462494850158691,0.008943557739257812,-0.3635835647583008
1761315760934392800,15.052392822265626,-0.302659273147583,0.09498214721679688,-0.21686029434204102
1761315760953315300,15.0713154296875,0.5933797359466553,0.07662487030029297,0.10249567031860352
1761315760972237800,15.09023779296875,0.2421267032623291,-0.04115009307861328,-0.048397064208984375
