time,seconds_elapsed,z,y,x
1761315746155960000,0.2739599609375,-0.007330167107284069,0.008551862090826035,0.0030542362947016954
1761315746174882600,0.292882568359375,-0.007941014133393764,0.03787253051996231,0.026877280324697495
1761315746193805000,0.31180517578125,-0.005497625097632408,0.05070032179355621,0.04031591862440109
1761315746212727600,0.3307275390625,0.0006108472589403391,0.036039989441633224,0.03787253051996231
1761315746231650000,0.349650146484375,0.004886778071522713,0.01588202826678753,0.02993151545524597
1761315746250572500,0.368572509765625,-0.0006108472589403391,0.01832541823387146,0.033596597611904144
1761315746269495000,0.3874951171875,-0.00916270911693573,0.02870982140302658,0.036039989441633224
1761315746288417500,0.40641748046875,-0.01588202826678753,0.042759306728839874,0.04337015375494957
1761315746307340000,0.425340087890625,-0.014660334214568138,0.045202698558568954,0.043981000781059265
1761315746326262300,0.44426220703125,-0.01038440316915512,0.0397050715982914,0.0390942245721817
1761315746345184800,0.463184814453125,-0.005497625097632408,0.038483377546072006,0.042759306728839874
1761315746364107300,0.482107177734375,0.0006108472589403391,0.04337015375494957,0.04947862774133682
1761315746383029800,0.50102978515625,0.006108472589403391,0.042759306728839874,0.04703523963689804
1761315746401952300,0.5199521484375,0.012827792204916477,0.038483377546072006,0.04886778071522713
1761315746420874800,0.538874755859375,0.011606098152697086,0.029320668429136276,0.042759306728839874
1761315746439797200,0.55779736328125,0.006719320081174374,0.021379653364419937,0.0390942245721817
1761315746458719700,0.5767197265625,0.008551862090826035,0.007330167107284069,0.03420744836330414
1761315746477642200,0.595642333984375,0.009773556143045425,0.007941014133393764,0.03665083646774292
1761315746496564700,0.614564697265625,0.011606098152697086,0.004886778071522713,0.028098974376916885
1761315746515487200,0.6334873046875,0.014049487188458443,-0.004886778071522713,0.01954711228609085
1761315746534409700,0.65240966796875,0.014660334214568138,-0.004886778071522713,0.02076880633831024
1761315746553332200,0.671332275390625,0.014049487188458443,-0.004886778071522713,0.018936265259981155
1761315746572254700,0.690254638671875,0.012827792204916477,-0.0030542362947016954,0.01588202826678753
1761315746591177200,0.70917724609375,0.010995250195264816,-0.005497625097632408,0.007941014133393764
1761315746610099500,0.728099365234375,0.006108472589403391,-0.01710372418165207,-0.004886778071522713
1761315746629022000,0.74702197265625,0.004886778071522713,-0.02076880633831024,-0.0030542362947016954
1761315746647944400,0.7659443359375,0.012827792204916477,-0.014660334214568138,-0.0006108472589403391
1761315746666867000,0.784866943359375,0.017714571207761765,-0.005497625097632408,0.008551862090826035
1761315746685789400,0.80378955078125,0.016492875292897224,-0.0030542362947016954,0.012827792204916477
1761315746704712000,0.8227119140625,0.010995250195264816,-0.004275931045413017,0.014660334214568138
1761315746723634400,0.841634521484375,0.010995250195264816,0.0036650835536420345,0.01588202826678753
1761315746742557000,0.860556884765625,0.008551862090826035,0.012216945178806782,0.014049487188458443
1761315746761479400,0.8794794921875,0.004275931045413017,0.0012216945178806782,0.013438640162348747
1761315746780402000,0.89840185546875,0.0018325417768210173,-0.0030542362947016954,0.006719320081174374
1761315746799324400,0.917324462890625,0.0018325417768210173,-0.0030542362947016954,0.004275931045413017
1761315746818247000,0.936246826171875,0.006108472589403391,0.0012216945178806782,0.004275931045413017
1761315746837169400,0.95516943359375,0.012216945178806782,0.0030542362947016954,0.00916270911693573
1761315746856091600,0.974091552734375,0.018936265259981155,0.010995250195264816,0.025655584409832954
1761315746875014100,0.99301416015625,0.018936265259981155,0.021379653364419937,0.038483377546072006
1761315746893936600,1.0119365234375,0.018936265259981155,0.022601349279284477,0.038483377546072006
1761315746912859100,1.030859130859375,0.01710372418165207,0.020157959312200546,0.029320668429136276
1761315746931781600,1.04978173828125,0.005497625097632408,0.006719320081174374,0.01954711228609085
1761315746950704000,1.0687041015625,0.004275931045413017,-0.015271181240677834,0.0006108472589403391
1761315746969626600,1.087626708984375,0.007941014133393764,-0.023212196305394173,-0.008551862090826035
1761315746988549000,1.106549072265625,0.012827792204916477,-0.01954711228609085,-0.005497625097632408
1761315747007471600,1.1254716796875,0.012827792204916477,-0.012827792204916477,-0.0006108472589403391
1761315747026394000,1.14439404296875,0.013438640162348747,-0.007941014133393764,0.006719320081174374
1761315747045316600,1.163316650390625,0.013438640162348747,-0.0024433890357613564,0.022601349279284477
1761315747064239000,1.182239013671875,0.01038440316915512,0.0030542362947016954,0.02748812735080719
1761315747083161300,1.201161376953125,0.00916270911693573,0.010995250195264816,0.02993151545524597
1761315747102083800,1.220083740234375,0.006719320081174374,0.02626643143594265,0.03787253051996231
1761315747121006300,1.23900634765625,0.006719320081174374,0.025655584409832954,0.028098974376916885
1761315747139928800,1.2579287109375,0.006108472589403391,0.009773556143045425,0.0006108472589403391
1761315747158851300,1.276851318359375,0.0018325417768210173,-0.01588202826678753,-0.022601349279284477
1761315747177773800,1.29577392578125,0.0030542362947016954,-0.030542362481355667,-0.03542914241552353
1761315747196696300,1.3146962890625,0.014660334214568138,-0.034818295389413834,-0.04092676565051079
1761315747215618800,1.333618896484375,0.01832541823387146,-0.006108472589403391,-0.0030542362947016954
1761315747234541300,1.352541259765625,0.006719320081174374,0.04337015375494957,0.037261683493852615
1761315747253463600,1.371463623046875,0,0.03237490355968475,0.02504473738372326
1761315747272386000,1.390385986328125,-0.004886778071522713,0.005497625097632408,0.005497625097632408
1761315747291308500,1.40930859375,-0.007330167107284069,0.0012216945178806782,0.005497625097632408
1761315747310231000,1.42823095703125,-0.004886778071522713,0.00916270911693573,0.008551862090826035
1761315747329153500,1.447153564453125,-0.0024433890357613564,0.014049487188458443,0.0036650835536420345
1761315747348076000,1.466075927734375,-0.0024433890357613564,0.01832541823387146,0.006719320081174374
1761315747366998500,1.48499853515625,-0.0036650835536420345,0.03298575058579445,0.01038440316915512
1761315747385921000,1.503921142578125,-0.007941014133393764,0.030542362481355667,0.007330167107284069
1761315747404843500,1.522843505859375,-0.010995250195264816,0.03176405653357506,0.004886778071522713
1761315747423766000,1.54176611328125,-0.009773556143045425,0.03420744836330414,0.004275931045413017
1761315747442688500,1.5606884765625,-0.007330167107284069,0.045202698558568954,0.004886778071522713
1761315747461610800,1.57961083984375,-0.009773556143045425,0.053143709897994995,0.006108472589403391
1761315747480533200,1.598533203125,-0.014660334214568138,0.04337015375494957,-0.008551862090826035
1761315747499455700,1.617455810546875,-0.014660334214568138,0.017714571207761765,-0.02870982140302658
1761315747518378200,1.636378173828125,-0.01954711228609085,0.022601349279284477,-0.022601349279284477
1761315747537300700,1.65530078125,-0.022601349279284477,0.03298575058579445,-0.01038440316915512
1761315747556223200,1.67422314453125,-0.025655584409832954,0.02993151545524597,-0.012827792204916477
1761315747575145700,1.693145751953125,-0.029320668429136276,0.03176405653357506,-0.011606098152697086
1761315747594068200,1.712068115234375,-0.034818295389413834,0.031153209507465363,-0.005497625097632408
1761315747612990700,1.73099072265625,-0.026877280324697495,0.037261683493852615,0.006719320081174374
1761315747631913200,1.749913330078125,-0.009773556143045425,0.03420744836330414,0.004275931045413017
1761315747650835700,1.768835693359375,0.015271181240677834,0.04581354558467865,0.024433890357613564
1761315747669758000,1.787758056640625,0.051922015845775604,0.0794101431965828,0.034818295389413834
1761315747688680400,1.806680419921875,0.010995250195264816,0.038483377546072006,0.025655584409832954
1761315747707603000,1.82560302734375,0.016492875292897224,0.061084724962711334,0.03298575058579445
1761315747726525400,1.844525390625,0.00916270911693573,0.18691925704479218,0.05986303091049194
1761315747745448000,1.863447998046875,-0.02626643143594265,0.30603447556495667,0.09956810623407364
1761315747764370400,1.882370361328125,-0.08063183724880219,0.3561239540576935,0.11117420345544815
1761315747783293000,1.90129296875,-0.13438639044761658,0.3164188861846924,0.03665083646774292
1761315747802215400,1.92021533203125,-0.1698155403137207,0.1979145109653473,0
1761315747821137700,1.9391376953125,-0.1954711228609085,0.19363857805728912,0.025655584409832954
1761315747840060400,1.958060302734375,-0.2736595869064331,0.17225892841815948,0.03176405653357506
1761315747858982700,1.976982666015625,-0.3836120665073395,0.18630841374397278,-0.008551862090826035
1761315747877905200,1.9959052734375,-0.47646087408065796,0.09712471067905426,-0.030542362481355667
1761315747896827600,2.01482763671875,-0.5583143830299377,-0.05925218388438225,-0.038483377546072006
1761315747915750100,2.033750244140625,-0.6096255779266357,0.021990500390529633,-0.07330167293548584
1761315747934672600,2.052672607421875,-0.6603258848190308,-0.01832541823387146,-0.10934165865182877
1761315747953595100,2.07159521484375,-0.8075400590896606,-0.12339114397764206,-0.16187451779842377
1761315747972517600,2.090517578125,-1.1074661016464233,-0.14843589067459106,-0.3158080279827118
1761315747991440100,2.109440185546875,-1.38731050491333,-0.11606097966432571,-0.5070032477378845
1761315748010362400,2.1283623046875,-1.5418548583984375,-0.19913621246814728,-0.6377245187759399
1761315748029284900,2.147284912109375,-1.427626371383667,-0.3005368411540985,-0.6371136903762817
1761315748048207400,2.166207275390625,-1.1312891244888306,0.05008947476744652,-0.34512871503829956
1761315748067129900,2.1851298828125,-0.9474241137504578,-0.183865025639534,-0.061084724962711334
1761315748086052400,2.20405224609375,-0.8600729703903198,-0.31825143098831177,-0.36284327507019043
1761315748104974800,2.222974853515625,-1.1361758708953857,-0.1979145109653473,-0.6719319820404053
1761315748123897300,2.2418974609375,-1.839948296546936,0.051922015845775604,-0.8130376935005188
1761315748142819800,2.26081982421875,-2.437356948852539,0.08063183724880219,-0.7751652002334595
1761315748161742300,2.279742431640625,-2.5601372718811035,-0.14721418917179108,-0.7745543122291565
1761315748180664800,2.298664794921875,-2.4147555828094482,-0.5094466209411621,-0.7855495810508728
1761315748199587000,2.317587158203125,-2.108110189437866,-0.8038749694824219,-0.7061394453048706
1761315748218509600,2.336509521484375,-2.058020830154419,-1.5229185819625854,-0.3646758198738098
1761315748237432000,2.35543212890625,-2.680474042892456,-2.4507956504821777,1.3353121280670166
1761315748256354600,2.3743544921875,-2.3145766258239746,-1.4990955591201782,1.2137534618377686
1761315748275277000,2.393277099609375,-0.7757760286331177,-0.14721418917179108,1.2174185514450073
1761315748294199600,2.412199462890625,0.6340594291687012,1.1667182445526123,1.3285927772521973
1761315748313122000,2.4311220703125,0.9700254201889038,2.108110189437866,1.3781477212905884
1761315748332044500,2.45004443359375,0.6615476012229919,2.2302796840667725,1.4636664390563965
1761315748350966800,2.468966796875,0.5741963982582092,0.8942803740501404,1.258345365524292
1761315748369889300,2.48788916015625,0.5729747414588928,-0.30725616216659546,1.1648857593536377
1761315748388811800,2.506811767578125,0.578472375869751,-0.2767138183116913,1.5161992311477661
1761315748407734300,2.525734375,0.5577035546302795,0.4190412163734436,1.7263307571411133
1761315748426656800,2.54465673828125,0.5919110178947449,0.763559103012085,1.276059865951538
1761315748445579300,2.563579345703125,0.5369347333908081,0.021379653364419937,0.7201889157295227
1761315748464501800,2.582501708984375,0.10934165865182877,-0.7696675658226013,0.4227063059806824
1761315748483424300,2.60142431640625,-1.054322361946106,-1.9254668951034546,-0.011606098152697086
1761315748502346800,2.6203466796875,-2.2064566612243652,-2.078789472579956,-0.7763868570327759
1761315748521269000,2.63926904296875,-1.7269415855407715,-2.639547348022461,-0.8783983588218689
1761315748540191500,2.65819140625,-0.6969767212867737,-2.7018537521362305,-1.5949985980987549
1761315748559114000,2.677114013671875,-0.5082249045372009,-2.174081802368164,-2.219895362854004
1761315748578036500,2.696036376953125,-0.40071579813957214,-1.5284161567687988,-2.530205726623535
1761315748596959000,2.714958984375,-0.20524467527866364,-0.8307522535324097,-2.4269726276397705
1761315748615881500,2.733881591796875,-0.07696675509214401,-0.4031592011451721,-2.1178839206695557
1761315748634804000,2.752803955078125,-0.129499614238739,-0.2864873707294464,-1.9419597387313843
1761315748653726500,2.7717265625,-0.3054236173629761,-0.3035911023616791,-1.909584879875183
1761315748672648700,2.790648681640625,-0.48012593388557434,-0.42514967918395996,-1.8808751106262207
1761315748691571200,2.8095712890625,-0.5289937257766724,-0.7452336549758911,-1.5571260452270508
1761315748710493700,2.82849365234375,-0.5167768001556396,-1.1697725057601929,-0.9046648144721985
1761315748729416200,2.847416259765625,-0.6511631608009338,-1.640201210975647,0.1575985997915268
1761315748748338700,2.866338623046875,-0.8405258059501648,-1.4844352006912231,1.155722975730896
1761315748767261200,2.88526123046875,-0.7452336549758911,-0.7464553713798523,1.0909732580184937
1761315748786183700,2.90418359375,-0.11300674080848694,-0.40010493993759155,0.652384877204895
1761315748805106200,2.923106201171875,0.2895416021347046,0.4850127100944519,0.25350162386894226
1761315748824028700,2.942028564453125,0.34512871503829956,1.8478893041610718,0.04581354558467865
1761315748842951000,2.960950927734375,0.2101314514875412,2.770268678665161,0.1557660549879074
1761315748861873400,2.979873291015625,0.10140064358711243,2.755608320236206,0.5766398310661316
1761315748880796000,2.9987958984375,0.1301104724407196,2.376272201538086,0.9614735841751099
1761315748899718400,3.017718505859375,0.32374903559684753,1.808184266090393,1.0677610635757446
1761315748918641000,3.036640869140625,0.5815265774726868,0.9785773158073425,1.077534556388855
1761315748937563400,3.0555634765625,0.7702783942222595,0.0653606578707695,1.623097538948059
1761315748956486000,3.07448583984375,0.8667922616004944,0.4349232614040375,2.009152889251709
1761315748975408400,3.093408447265625,0.7000309824943542,0.16065283119678497,1.8240662813186646
1761315748994331000,3.112330810546875,0.418430358171463,-2.284034252166748,2.075735330581665
1761315749013253000,3.131253173828125,0.6022953987121582,-1.4050250053405762,3.0146076679229736
1761315749032175600,3.150175537109375,0.6426113247871399,2.147815227508545,1.3671525716781616
1761315749051098000,3.16909814453125,0.5308262705802917,2.679863214492798,0.2864873707294464
1761315749070020600,3.1880205078125,-0.3255815804004669,-0.6743753552436829,-0.1960819661617279
1761315749088943000,3.206943115234375,-1.3763152360916138,-4.4911017417907715,-0.3787252902984619
1761315749107865600,3.225865478515625,-1.3689850568771362,-3.7873294353485107,-0.5399889945983887
1761315749126788000,3.2447880859375,-0.2742704153060913,-1.5907225608825684,-1.618210792541504
1761315749145710600,3.263710693359375,-0.008551862090826035,-1.0561549663543701,-2.1258249282836914
1761315749164632800,3.2826328125,-0.02870982140302658,-1.285833477973938,-2.1612539291381836
1761315749183555300,3.301555419921875,0.09590301662683487,-1.0042328834533691,-2.202791690826416
1761315749202477800,3.320477783203125,-0.01832541823387146,-0.312142938375473,-2.0879523754119873
1761315749221400300,3.339400390625,-0.29320669174194336,0.1716480851173401,-1.833839774131775
1761315749240322800,3.35832275390625,-0.4190412163734436,0.4300364851951599,-1.6432554721832275
1761315749259245300,3.377245361328125,-0.4324798583984375,0.5564818382263184,-1.5455199480056763
1761315749278167800,3.396167724609375,-0.3506263196468353,0.6120689511299133,-1.3506596088409424
1761315749297090300,3.41509033203125,-0.22723518311977386,0.4947862923145294,-1.0280559062957764
1761315749316012800,3.4340126953125,-0.10384403169155121,-0.054365407675504684,-0.4862344264984131
1761315749334935000,3.45293505859375,0.024433890357613564,-0.7769976854324341,0.28098973631858826
1761315749353857500,3.471857421875,0.07269082218408585,-0.8826742768287659,0.7739434838294983
1761315749372780000,3.490780029296875,-0.018936265259981155,-0.3811686933040619,0.6224533319473267
1761315749391702500,3.50970263671875,-0.12827792763710022,-0.007330167107284069,0.15393351018428802
1761315749410625000,3.528625,-0.08979454636573792,-0.02076880633831024,-0.2486148327589035
1761315749429547500,3.547547607421875,0.005497625097632408,0.07085828483104706,-0.40132665634155273
1761315749448470000,3.566469970703125,0.1692046970129013,0.4416425824165344,-0.21623992919921875
1761315749467392500,3.585392578125,0.3927747905254364,1.0671501159667969,0.23334364593029022
1761315749486314800,3.604314697265625,0.5680879354476929,1.9175258874893188,0.7757760286331177
1761315749505237200,3.6232373046875,0.6029062271118164,2.3493947982788086,1.5326920747756958
1761315749524159700,3.64215966796875,0.4831801950931549,1.6750195026397705,3.084855079650879
1761315749543082200,3.661082275390625,0.2638860046863556,-0.04031591862440109,5.453796863555908
1761315749562004700,3.680004638671875,-0.4727957844734192,0.2895416021347046,3.1990835666656494
1761315749580927200,3.69892724609375,-0.2498365342617035,1.955398440361023,0.9309312105178833
1761315749599849700,3.717849609375,0.27915719151496887,0.9584193229675293,3.8441381454467773
1761315749618772200,3.736772216796875,-0.17714570462703705,-0.790436327457428,1.4160202741622925
1761315749637694700,3.75569482421875,1.077534556388855,2.379326343536377,-0.12705622613430023
1761315749656617000,3.774616943359375,0.5253286361694336,0.36284327507019043,-0.8502993583679199
1761315749675539500,3.79353955078125,-0.6676560640335083,-2.3921542167663574,-0.8484668135643005
1761315749694462000,3.8124619140625,-0.8875610828399658,-4.185678005218506,-0.3158080279827118
1761315749713384400,3.831384521484375,-0.420873761177063,-3.3004841804504395,-1.012784719467163
1761315749732307000,3.850306884765625,0.13621893525123596,-2.153923749923706,-2.0054879188537598
1761315749751229400,3.8692294921875,0.3439069986343384,-1.8613280057907104,-2.4856138229370117
1761315749770152000,3.88815185546875,0.18691925704479218,-1.497262954711914,-2.4642341136932373
1761315749789074400,3.907074462890625,0.0390942245721817,-0.7250757217407227,-2.2357773780822754
1761315749807996700,3.92599658203125,0.03665083646774292,-0.1441599577665329,-1.9334079027175903
1761315749826919200,3.944919189453125,0.053143709897994995,0.25350162386894226,-1.7544296979904175
1761315749845841700,3.963841552734375,0.06352811306715012,0.5387672781944275,-1.6536399126052856
1761315749864764200,3.98276416015625,0.08185353130102158,0.7385143637657166,-1.5754514932632446
1761315749883686700,4.001686767578125,0.08612946420907974,0.6682668924331665,-1.3304253816604614
1761315749902609200,4.020609130859375,0.129499614238739,0.24433889985084534,-0.7256865501403809
1761315749921531600,4.03953173828125,0.44958359003067017,-0.38849884271621704,0.527161180973053
1761315749940454100,4.0584541015625,0.6896465420722961,-0.3775036036968231,1.3433294296264648
1761315749959376600,4.077376708984375,0.5815265774726868,0.0647498071193695,1.1453386545181274
1761315749978299000,4.096298828125,0.35795649886131287,0.497229665517807,0.43797749280929565
1761315749997221400,4.115221435546875,0.17409147322177887,0.7916580438613892,-0.1973036676645279
1761315750016144000,4.134143798828125,0.12888877093791962,0.9932376146316528,-0.4086568057537079
1761315750035066400,4.15306640625,0.23823043704032898,1.1276240348815918,-0.2223484069108963
1761315750053988900,4.17198876953125,0.43797749280929565,1.3372210264205933,0.2345653474330902
1761315750072911400,4.190911376953125,0.5998520255088806,1.7251089811325073,0.7238540053367615
1761315750091833900,4.209833740234375,0.550373375415802,1.797799825668335,1.3702067136764526
1761315750110756400,4.22875634765625,0.24250635504722595,1.2742273807525635,2.5717432498931885
1761315750129678800,4.247678955078125,-0.16798299551010132,0.5448757410049438,4.452618598937988
1761315750148601300,4.266601318359375,-0.5729747414588928,-0.284654825925827,3.7543435096740723
1761315750167523600,4.285523681640625,-0.6212316751480103,0.3005368411540985,0.7519529461860657
1761315750186446000,4.304446044921875,0.8338065147399902,1.511312484741211,1.1587772369384766
1761315750205368600,4.32336865234375,0.33596599102020264,0.21929416060447693,3.1153974533081055
1761315750224291000,4.342291015625,0.6597150564193726,1.0298885107040405,-0.04825693368911743
1761315750243213600,4.361213623046875,1.0555440187454224,1.478326678276062,-0.3023693859577179
1761315750262136000,4.380135986328125,-0.3787252902984619,-1.918136715888977,-0.712247908115387
1761315750281058600,4.39905859375,-1.142895221710205,-4.490490913391113,0.0018325417768210173
1761315750299980800,4.417980712890625,-0.8234221339225769,-4.15147066116333,-0.5790832042694092
1761315750318903300,4.4369033203125,-0.0653606578707695,-2.1386525630950928,-1.9297428131103516
1761315750337825800,4.45582568359375,0.19363857805728912,-1.3255385160446167,-2.848457098007202
1761315750356748300,4.474748291015625,-0.017714571207761765,-1.113574504852295,-2.839905261993408
1761315750375670800,4.4936708984375,0.10934165865182877,-0.6994200944900513,-2.622443675994873
1761315750394593300,4.51259326171875,0.17592400312423706,0.004886778071522713,-2.3597793579101562
1761315750413515800,4.531515869140625,0.1844758689403534,0.44958359003067017,-2.3787155151367188
1761315750432438300,4.550438232421875,0.011606098152697086,0.6872031688690186,-2.4642341136932373
1761315750451360800,4.56936083984375,-0.12094775587320328,0.4471401870250702,-2.06412935256958
1761315750470283300,4.588283203125,-0.10078980028629303,-0.53143709897995,-1.1490037441253662
1761315750489205500,4.60720556640625,0.0018325417768210173,-1.793523907661438,0.3775036036968231
1761315750508128000,4.6261279296875,-0.2351761907339096,-2.2907536029815674,1.585224986076355
1761315750527050500,4.645050537109375,-0.4960079789161682,-1.728163242340088,1.6322602033615112
1761315750545973000,4.663972900390625,-0.4434750974178314,-1.156944751739502,1.3298144340515137
1761315750564895500,4.6828955078125,-0.021379653364419937,-0.8081509470939636,1.0488247871398926
1761315750583818000,4.70181787109375,0.1973036676645279,0.2522799074649811,0.6493306159973145
1761315750602740500,4.720740478515625,0.19913621246814728,1.4031925201416016,0.2718270421028137
1761315750621662700,4.739662841796875,0.2101314514875412,2.403149366378784,0.03542914241552353
1761315750640585200,4.758585205078125,0.2919849753379822,3.0750813484191895,0.17409147322177887
1761315750659507700,4.7775078125,0.36284327507019043,2.992617130279541,0.7470661997795105
1761315750678430200,4.79643017578125,0.5216635465621948,2.7977569103240967,1.1373976469039917
1761315750697352700,4.815352783203125,0.6071822047233582,2.255324363708496,1.3267602920532227
1761315750716275200,4.834275146484375,0.5143333673477173,0.8527427911758423,1.903476357460022
1761315750735197700,4.85319775390625,0.46363306045532227,-0.3701734244823456,2.6700897216796875
1761315750754120200,4.8721201171875,0.3646758198738098,-0.9376505613327026,2.3408429622650146
1761315750773042700,4.891042724609375,0.448361873626709,-2.356724977493286,1.7177788019180298
1761315750791965200,4.909965087890625,0.6896465420722961,-0.962695300579071,2.3518383502960205
1761315750810887400,4.928887451171875,0.8173136115074158,-0.25655585527420044,1.296217918395996
1761315750829810000,4.947809814453125,1.142895221710205,1.0610417127609253,0.061084724962711334
1761315750848732400,4.966732421875,0.16309621930122375,0.04214845970273018,0.012216945178806782
1761315750867655000,4.985655029296875,-1.1398409605026245,-2.2938077449798584,-0.0781884491443634
1761315750886577400,5.004577392578125,-1.30476975440979,-3.4452548027038574,-0.012827792204916477
1761315750905500000,5.0235,-0.6267293095588684,-2.01526141166687,-0.8399149775505066
1761315750924422400,5.04242236328125,-0.14721418917179108,-0.7293516397476196,-2.0372519493103027
1761315750943344600,5.0613447265625,-0.16248537600040436,-0.6615476012229919,-2.3897109031677246
1761315750962267400,5.080267333984375,0.007330167107284069,-0.8008207678794861,-2.564413070678711
1761315750981189600,5.099189697265625,0.32008397579193115,-0.6639909744262695,-2.660316228866577
1761315751000112000,5.118112060546875,0.4227063059806824,-0.25716668367385864,-2.553417921066284
1761315751019034600,5.13703466796875,0.43858832120895386,0.18019993603229523,-2.4697318077087402
1761315751037957000,5.15595703125,0.35917818546295166,0.5302154421806335,-2.4581258296966553
1761315751056879600,5.174879638671875,0.23945212364196777,0.7256865501403809,-2.3487839698791504
1761315751075802000,5.193802001953125,0.12033691257238388,0.4868452548980713,-2.0244240760803223
1761315751094724600,5.212724609375,-0.01954711228609085,-1.1459494829177856,-0.6206207871437073
1761315751113647000,5.231647216796875,-0.5522059202194214,-2.761716842651367,1.2137534618377686
1761315751132569300,5.2505693359375,-0.9883508682250977,-2.5631914138793945,1.5455199480056763
1761315751151491800,5.269491943359375,-0.8148702383041382,-1.9065306186676025,1.3866996765136719
1761315751170414300,5.288414306640625,-0.09773556143045425,-1.2974395751953125,1.3476054668426514
1761315751189336800,5.3073369140625,0.2602209448814392,-0.07146912813186646,1.1483927965164185
1761315751208259300,5.32625927734375,0.3793361485004425,1.4966521263122559,0.6554391384124756
1761315751227181800,5.345181884765625,0.40132665634155273,2.8985466957092285,0.22540263831615448
1761315751246104300,5.364104248046875,0.3939964771270752,3.878345489501953,0.08429691940546036
1761315751265026800,5.38302685546875,0.518609344959259,4.417799949645996,0.27976804971694946
1761315751283949300,5.40194921875,0.6487197875976562,4.106267929077148,0.9132166504859924
1761315751302871600,5.42087158203125,0.5748072862625122,3.004223108291626,1.9822757244110107
1761315751321794000,5.4397939453125,0.35917818546295166,1.8155144453048706,3.386002779006958
1761315751340716500,5.458716552734375,-0.03298575058579445,1.0017894506454468,3.2204630374908447
1761315751359639000,5.47763916015625,0.08674030750989914,-0.36223241686820984,2.2528810501098633
1761315751378561500,5.4965615234375,0.07085828483104706,-4.062286853790283,3.3120901584625244
1761315751397484000,5.515484130859375,0.3402419090270996,-1.3677634000778198,2.1374309062957764
1761315751416406500,5.534406494140625,0.3139754831790924,1.5174208879470825,0.6554391384124756
1761315751435328800,5.553328857421875,0.4227063059806824,2.2541027069091797,-0.6310052275657654
1761315751454251300,5.572251220703125,0.19302773475646973,0.7690566778182983,-0.527161180973053
1761315751473173800,5.591173828125,-0.2516690790653229,-0.9352071285247803,-0.31886225938796997
1761315751492096300,5.61009619140625,-0.11056335270404816,-0.971247136592865,-0.6804838180541992
1761315751511018800,5.629018798828125,-0.18753011524677277,-1.1923738718032837,-1.285833477973938
1761315751529941200,5.647941162109375,-0.012216945178806782,-2.526540517807007,-1.7214438915252686
1761315751548863700,5.66686376953125,0.11483928561210632,-3.5319952964782715,-2.06412935256958
1761315751567786200,5.6857861328125,0.21868331730365753,-3.400052309036255,-2.4471304416656494
1761315751586708700,5.704708740234375,0.3518480062484741,-2.1319332122802734,-2.682917594909668
1761315751605631000,5.723630859375,0.5143333673477173,-0.9352071285247803,-2.53509259223938
1761315751624553500,5.742553466796875,0.5320479869842529,-0.17897824943065643,-2.298083782196045
1761315751643476000,5.76147607421875,0.4581354558467865,0.5674771070480347,-2.180190324783325
1761315751662398500,5.7803984375,0.2773246467113495,1.1691616773605347,-2.1673624515533447
1761315751681321000,5.799321044921875,0.1429382562637329,1.2748382091522217,-2.0830655097961426
1761315751700243500,5.818243408203125,0.10750912129878998,1.0030112266540527,-1.872934103012085
1761315751719166000,5.837166015625,0.022601349279284477,-0.23334364593029022,-1.0042328834533691
1761315751738088200,5.856088134765625,-0.42331716418266296,-3.154491662979126,1.2601778507232666
1761315751757010700,5.8750107421875,-0.46424391865730286,-3.541768789291382,2.4587366580963135
1761315751775933200,5.89393310546875,-0.5900784730911255,-2.602285623550415,2.5369250774383545
1761315751794855700,5.912855712890625,-0.6352811455726624,-1.9431815147399902,1.6725761890411377
1761315751813778200,5.931778076171875,-0.38605546951293945,-0.4691306948661804,0.6902574300765991
1761315751832700700,5.95070068359375,-0.20096874237060547,1.254069447517395,0.24189551174640656
1761315751851623200,5.969623046875,-0.1820324808359146,2.5919013023376465,0.22906772792339325
1761315751870545700,5.988545654296875,-0.20646637678146362,3.603464365005493,0.4178195297718048
1761315751889468200,6.00746826171875,-0.15210096538066864,4.111154556274414,0.6920899152755737
1761315751908390400,6.026390380859375,0.17775654792785645,4.166131019592285,1.041494607925415
1761315751927313000,6.04531298828125,0.624285876750946,3.7170820236206055,1.9529550075531006
1761315751946235400,6.0642353515625,0.5430431962013245,3.4971768856048584,4.437347412109375
1761315751965158000,6.083157958984375,0.3524588644504547,2.6981887817382812,2.9455819129943848
1761315751984080400,6.102080322265625,0.4422534108161926,-1.507036566734314,1.6487531661987305
1761315752003003000,6.1210029296875,0.20096874237060547,-6.376176357269287,2.9009900093078613
1761315752021925400,6.13992529296875,-0.3408527672290802,-0.2229592502117157,3.0756924152374268
1761315752040847600,6.15884765625,0.8283088803291321,3.36889910697937,-0.16737215220928192
1761315752059770000,6.17777001953125,0.37567105889320374,2.663370370864868,0.03542914241552353
1761315752078692600,6.196692626953125,-0.7666133046150208,-0.37383851408958435,-0.23028941452503204
1761315752097615000,6.215614990234375,-0.7983773946762085,-2.607783317565918,-0.130721315741539
1761315752116537600,6.23453759765625,-0.2901524603366852,-2.952301263809204,-0.7134696245193481
1761315752135460000,6.253460205078125,0.045202698558568954,-1.715335488319397,-1.7263307571411133
1761315752154382600,6.272382568359375,0.3023693859577179,-1.2229162454605103,-2.3805482387542725
1761315752173305000,6.29130517578125,0.3396310806274414,-1.184432864189148,-2.7806529998779297
1761315752192227300,6.310227294921875,0.288930743932724,-1.0219475030899048,-2.9009900093078613
1761315752211149800,6.32914990234375,0.2651077210903168,-0.6468872427940369,-2.845402956008911
1761315752230072300,6.348072265625,0.20524467527866364,0.21257483959197998,-2.740947961807251
1761315752248994800,6.366994873046875,0.1178935244679451,0.975523054599762,-2.555250406265259
1761315752267917300,6.385917236328125,0.0036650835536420345,1.0396620035171509,-2.2424967288970947
1761315752286839800,6.40483984375,0.042759306728839874,-0.04092676565051079,-1.543076515197754
1761315752305762300,6.42376220703125,0.1459924876689911,-2.4275834560394287,0.05375456064939499
1761315752324684500,6.4426845703125,-0.3927747905254364,-3.973637819290161,1.4447301626205444
1761315752343607000,6.46160693359375,-0.869235634803772,-3.736629009246826,1.5656778812408447
1761315752362529500,6.480529541015625,-0.3402419090270996,-2.6676464080810547,1.362876534461975
1761315752381452000,6.4994521484375,0.15515519678592682,-1.0176715850830078,1.3573789596557617
1761315752400374500,6.51837451171875,0.2620534598827362,0.8686248064041138,1.1545013189315796
1761315752419297000,6.537297119140625,0.3292466700077057,3.024381160736084,0.6896465420722961
1761315752438219500,6.556219482421875,0.23151111602783203,4.513703346252441,0.16676130890846252
1761315752457142000,6.57514208984375,0.28160059452056885,5.2522172927856445,-0.1441599577665329
1761315752476064300,6.594064208984375,0.34940463304519653,4.78247594833374,-0.007941014133393764
1761315752494986800,6.61298681640625,0.5076140761375427,3.304759979248047,0.444085955619812
1761315752513909200,6.6319091796875,0.6071822047233582,1.7635923624038696,0.6297835111618042
1761315752532831700,6.650831787109375,0.3787252902984619,0.45508119463920593,0.7287407517433167
1761315752551754200,6.669754150390625,0.27976804971694946,-0.577861487865448,0.8875610828399658
1761315752570676700,6.6886767578125,-0.1692046970129013,-2.558915615081787,2.596788167953491
1761315752589599200,6.70759912109375,-1.0579874515533447,-4.254703998565674,4.351217746734619
1761315752608521500,6.726521484375,-0.8222004175186157,-7.379263877868652,3.7836642265319824
1761315752627444000,6.74544384765625,0.35856732726097107,1.9633394479751587,2.0158722400665283
1761315752646366500,6.764366455078125,0.9132166504859924,4.745825290679932,-0.4355340898036957
1761315752665289000,6.7832890625,-0.12155860662460327,2.4538497924804688,-0.4611896872520447
1761315752684211500,6.80221142578125,-0.8527427911758423,-0.554649293422699,-0.8887827396392822
1761315752703134000,6.821134033203125,-0.3671191930770874,-2.5521962642669678,-0.9590302109718323
1761315752722056400,6.840056396484375,0.29442837834358215,-2.105056047439575,-1.6658568382263184
1761315752740978700,6.858978759765625,0.6255075931549072,-1.4031925201416016,-2.3555033206939697
1761315752759901200,6.877901123046875,0.6285618543624878,-1.3127107620239258,-2.676809072494507
1761315752778823700,6.89682373046875,0.38483378291130066,-1.1215155124664307,-2.876556158065796
1761315752797746200,6.91574609375,0.11422843486070633,-0.1973036676645279,-2.900379180908203
1761315752816668700,6.934668701171875,-0.038483377546072006,1.1734375953674316,-2.9156503677368164
1761315752835591200,6.953591064453125,-0.05986303091049194,2.171027421951294,-2.7763772010803223
1761315752854513400,6.972513427734375,-0.18019993603229523,2.278536558151245,-2.4569039344787598
1761315752873436000,6.991435791015625,-0.2486148327589035,1.5082582235336304,-1.9315754175186157
1761315752892358400,7.0103583984375,0.07146912813186646,-0.5839699506759644,-0.684148907661438
1761315752911281000,7.029281005859375,0.5161659121513367,-2.4941656589508057,0.7794411182403564
1761315752930203400,7.048203369140625,0.2779355049133301,-3.0030014514923096,1.3659307956695557
1761315752949126000,7.0671259765625,0.05741964280605316,-2.7721011638641357,1.4294589757919312
1761315752968048400,7.08604833984375,0.09590301662683487,-1.9462357759475708,1.2852226495742798
1761315752986971000,7.104970947265625,0.06169557198882103,-0.46424391865730286,0.9382613897323608
1761315753005893000,7.12389306640625,-0.06658235192298889,1.3940298557281494,0.601073682308197
1761315753024815600,7.142815673828125,-0.1429382562637329,3.1325011253356934,0.47951510548591614
1761315753043738000,7.161738037109375,-0.07635590434074402,4.304182529449463,0.5247178077697754
1761315753062660600,7.18066064453125,0.05803048983216286,4.629764080047607,0.7024743556976318
1761315753081583000,7.1995830078125,0.28221142292022705,3.800157070159912,1.0836430788040161
1761315753100505600,7.218505615234375,0.35856732726097107,2.084287166595459,1.5882792472839355
1761315753119427800,7.237427734375,0.2895416021347046,0.8319739699363708,1.8002432584762573
1761315753138350300,7.256350341796875,0.17225892841815948,0.4416425824165344,1.7018967866897583
1761315753157272800,7.27527294921875,0.053143709897994995,0.5393781065940857,1.5235294103622437
1761315753176195300,7.2941953125,-0.06291726976633072,0.23334364593029022,1.580949068069458
1761315753195117800,7.313117919921875,-0.23884128034114838,-2.0458037853240967,2.526540517807007
1761315753214040300,7.332040283203125,-0.7690566778182983,-7.090943813323975,2.208899974822998
1761315753232962600,7.350962646484375,-0.8008207678794861,-3.7604520320892334,2.1905746459960938
1761315753251885000,7.369885009765625,0.9352071285247803,2.9675724506378174,-0.7745543122291565
1761315753270807600,7.3888076171875,1.1373976469039917,3.426318645477295,-1.23940908908844
1761315753289730000,7.40772998046875,0.46668729186058044,0.1966928243637085,-0.5851916670799255
1761315753308652500,7.426652587890625,0.12155860662460327,-1.909584879875183,-0.7488987445831299
1761315753327575000,7.445574951171875,-0.22662433981895447,-2.8411269187927246,-1.2247487306594849
1761315753346497500,7.46449755859375,-0.25594499707221985,-3.6877613067626953,-1.9327970743179321
1761315753365419800,7.483419677734375,0.00916270911693573,-3.5313844680786133,-2.653596878051758
1761315753384342300,7.50234228515625,0.11483928561210632,-2.243107557296753,-2.8979358673095703
1761315753403264800,7.5212646484375,0.07635590434074402,-0.22479179501533508,-2.8111953735351562
1761315753422187300,7.540187255859375,0.1844758689403534,1.155722975730896,-2.648710012435913
1761315753441109800,7.55910986328125,0.29259583353996277,1.6432554721832275,-2.3829915523529053
1761315753460032300,7.5780322265625,0.21623992919921875,1.793523907661438,-2.0653510093688965
1761315753478954500,7.59695458984375,0.06902574002742767,1.5833925008773804,-1.7666466236114502
1761315753497877000,7.615876953125,0.006108472589403391,0.7928797602653503,-1.1001359224319458
1761315753516799500,7.634799560546875,-0.4214846193790436,-2.2302796840667725,1.4202961921691895
1761315753535722000,7.653721923828125,-0.9578084945678711,-4.006089210510254,2.656651020050049
1761315753554644500,7.67264453125,-0.9602518677711487,-3.3872244358062744,2.1636972427368164
1761315753573567000,7.69156689453125,-0.3793361485004425,-2.047025442123413,1.1019684076309204
1761315753592489500,7.710489501953125,0.17592400312423706,0.28037887811660767,-0.028098974376916885
1761315753611411700,7.72941162109375,0.3549022674560547,2.1197164058685303,-0.6963658928871155
1761315753630334200,7.748334228515625,0.45019441843032837,3.2638332843780518,-0.7232431769371033
1761315753649256700,7.767256591796875,0.38544461131095886,3.854522466659546,-0.3671191930770874
1761315753668179200,7.78617919921875,0.29626092314720154,3.683485269546509,0.2730487287044525
1761315753687101700,7.805101806640625,0.3426853120326996,2.8924381732940674,0.9675820469856262
1761315753706024000,7.82402392578125,0.5143333673477173,2.205235004425049,1.4917653799057007
1761315753724946400,7.842946533203125,0.6688777208328247,1.6774629354476929,2.217451810836792
1761315753743869000,7.861868896484375,0.6126797795295715,1.4196853637695312,3.548488140106201
1761315753762791400,7.88079150390625,0.4446968138217926,2.1808011531829834,3.976081132888794
1761315753781714000,7.8997138671875,-0.036039989441633224,1.6035504341125488,0.9547542929649353
1761315753800636400,7.918636474609375,0.6352811455726624,0.8008207678794861,-0.3365768492221832
1761315753819558700,7.93755859375,0.3414636254310608,-3.5527639389038086,3.453195810317993
1761315753838481200,7.956481201171875,-0.8197570443153381,-1.571175456047058,2.7275092601776123
1761315753857403600,7.975403564453125,0.6914790868759155,2.258378744125366,0.841747522354126
1761315753876326100,7.994326171875,-0.2113531529903412,1.4661097526550293,-0.09895725548267365
1761315753895248600,8.01324853515625,-0.8918370008468628,-1.9163042306900024,-0.6749862432479858
1761315753914171100,8.032171142578125,-0.762948215007782,-3.7457916736602783,-1.0054545402526855
1761315753933093400,8.05109326171875,0.30786702036857605,-2.084287166595459,-2.1093318462371826
1761315753952016000,8.070015869140626,0.8063184022903442,-0.5662553906440735,-3.2662765979766846
1761315753970938400,8.0889384765625,0.5974085927009583,-0.9718579649925232,-3.32003116607666
1761315753989860900,8.10786083984375,0.48073679208755493,-1.6340928077697754,-3.0005581378936768
1761315754008783400,8.126783447265625,0.4569137394428253,-1.540633201599121,-2.6878042221069336
1761315754027705600,8.14570556640625,0.3646758198738098,-0.9174925684928894,-2.5454769134521484
1761315754046628000,8.164628173828126,0.4330907166004181,-0.024433890357613564,-2.625497817993164
1761315754065550600,8.183550537109374,0.4037700295448303,-0.08857285231351852,-2.654818534851074
1761315754084473000,8.20247314453125,0.3695625960826874,-1.982886552810669,-1.7037293910980225
1761315754103395600,8.2213955078125,-0.004886778071522713,-4.229659080505371,0.2907632887363434
1761315754122318000,8.240318115234375,-0.8912261724472046,-3.877734661102295,1.382423758506775
1761315754141240300,8.259240234375,-1.032942771911621,-2.3487839698791504,1.5614019632339478
1761315754160162800,8.278162841796876,-0.2919849753379822,-1.0805888175964355,1.5418548583984375
1761315754179085300,8.297085205078124,0.22051586210727692,0.37200596928596497,1.050046443939209
1761315754198007800,8.3160078125,0.3549022674560547,2.3774938583374023,0.4043808877468109
1761315754216930300,8.334930419921875,0.45141613483428955,4.205836296081543,0.09651386737823486
1761315754235852800,8.353852783203125,0.4868452548980713,4.97855806350708,-0.042759306728839874
1761315754254775000,8.372775146484376,0.42881476879119873,4.629764080047607,-0.1557660549879074
1761315754273697500,8.391697509765624,0.3365768492221832,3.628509044647217,-0.009773556143045425
1761315754292620000,8.4106201171875,0.15393351018428802,1.8711014986038208,0.5686988234519958
1761315754311542500,8.42954248046875,-0.055587101727724075,0.6853706240653992,1.2345223426818848
1761315754330465000,8.448465087890625,-0.10323318839073181,0.014660334214568138,1.6554723978042603
1761315754349387300,8.46738720703125,0.2113531529903412,-0.6548282504081726,2.558915615081787
1761315754368309800,8.486309814453126,0.6303943991661072,-1.7672574520111084,5.893607139587402
1761315754387232300,8.505232177734374,-0.6914790868759155,0.41110020875930786,3.773890733718872
1761315754406154800,8.52415478515625,-1.0091196298599243,1.5803382396697998,1.0176715850830078
1761315754425077200,8.5430771484375,0.0781884491443634,-1.1624423265457153,1.0640959739685059
1761315754443999500,8.56199951171875,-0.07696675509214401,-2.755608320236206,2.7739336490631104
1761315754462922000,8.580921875,-0.08307522535324097,0.3921639323234558,1.3249276876449585
1761315754481844500,8.599844482421876,0.6548282504081726,3.269941806793213,-0.36284327507019043
1761315754500767000,8.61876708984375,-0.1056765764951706,2.2742607593536377,-0.6700994372367859
1761315754519689500,8.637689453125,-0.2211267054080963,-1.2326897382736206,-0.5234960913658142
1761315754538612000,8.656612060546875,-0.10873081535100937,-3.21863055229187,-0.49295374751091003
1761315754557534200,8.6755341796875,0.2773246467113495,-3.5460445880889893,-1.0579874515533447
1761315754576456700,8.694456787109376,0.4471401870250702,-2.874112606048584,-1.7599272727966309
1761315754595379200,8.713379150390624,0.4813476502895355,-2.1808011531829834,-2.500274181365967
1761315754614301700,8.7323017578125,0.4581354558467865,-1.6377578973770142,-2.917482852935791
1761315754633224200,8.75122412109375,0.3658975064754486,-0.8625163435935974,-2.8759453296661377
1761315754652146400,8.770146484375,0.3133646547794342,0.06352811306715012,-2.6499316692352295
1761315754671069000,8.78906884765625,0.3536805510520935,0.6090146899223328,-2.4507956504821777
1761315754689991400,8.807991455078126,0.3823903799057007,0.9877400398254395,-2.2510485649108887
1761315754708914000,8.826913818359374,0.36162158846855164,1.262621283531189,-2.0280892848968506
1761315754727836400,8.84583642578125,0.2754921019077301,1.1581664085388184,-1.793523907661438
1761315754746758700,8.864758544921875,0.30969956517219543,0.6071822047233582,-1.225359559059143
1761315754765681200,8.88368115234375,0.22967857122421265,-0.6749862432479858,0.03420744836330414
1761315754784603600,8.902603759765626,-0.15454435348510742,-1.8246771097183228,1.138619303703308
1761315754803526100,8.921526123046876,-0.4556920528411865,-2.0537447929382324,1.5791164636611938
1761315754822448600,8.94044873046875,-0.4593571424484253,-1.1270132064819336,1.3224843740463257
1761315754841371100,8.95937109375,-0.18019993603229523,-0.05008947476744652,0.9535325765609741
1761315754860293400,8.97829345703125,0.010995250195264816,1.2504043579101562,0.47585001587867737
1761315754879215900,8.9972158203125,0.08796200156211853,2.177135944366455,0.12583453953266144
1761315754898138400,9.016138427734376,0.07024743407964706,2.7995893955230713,0.06169557198882103
1761315754917060900,9.035060791015624,0.03237490355968475,3.105012893676758,0.3689517378807068
1761315754935983000,9.053983154296875,0.1575985997915268,2.8832755088806152,0.9468132257461548
1761315754954905600,9.072905517578125,0.446529358625412,2.3286261558532715,1.4850460290908813
1761315754973828000,9.091828125,0.5888567566871643,0.9492566585540771,2.9254238605499268
1761315754992750600,9.11075048828125,0.34757208824157715,-0.6181774139404297,6.413438320159912
1761315755011673000,9.129673095703126,-0.7238540053367615,-0.34512871503829956,3.2308475971221924
1761315755030595300,9.14859521484375,0.265718549489975,0.3011476993560791,1.1160179376602173
1761315755049517800,9.167517822265625,-0.03237490355968475,-0.5302154421806335,3.6651599407196045
1761315755068440300,9.1864404296875,0.3530697226524353,1.188708782196045,0.5577035546302795
1761315755087362800,9.20536279296875,0.6090146899223328,2.252270221710205,0.022601349279284477
1761315755106285300,9.224285400390626,-0.28037887811660767,0.16248537600040436,-0.29259583353996277
1761315755125207800,9.243207763671874,-0.6365028619766235,-2.4416327476501465,-0.3658975064754486
1761315755144130000,9.262130126953124,-0.23945212364196777,-2.5809059143066406,-0.6175665855407715
1761315755163052500,9.281052490234375,0.1185043677687645,-1.8087950944900513,-1.5632344484329224
1761315755181975000,9.29997509765625,0.1704263836145401,-1.8026865720748901,-2.1123862266540527
1761315755200897500,9.3188974609375,0.055587101727724075,-2.2510485649108887,-2.5106585025787354
1761315755219819800,9.33781982421875,0.010995250195264816,-2.277925729751587,-2.7195682525634766
1761315755238742300,9.3567421875,0.06658235192298889,-1.9951034784317017,-2.660316228866577
1761315755257664800,9.375664794921875,0.15210096538066864,-1.332257866859436,-2.569910764694214
1761315755276587300,9.394587158203125,0.21868331730365753,-0.2980934679508209,-2.4593474864959717
1761315755295509800,9.413509765625,0.27854636311531067,0.5137225389480591,-2.341453790664673
1761315755314432000,9.432431884765625,0.2993151545524597,0.7824953198432922,-2.156978130340576
1761315755333354500,9.4513544921875,0.2999260127544403,0.5729747414588928,-1.8375048637390137
1761315755352277000,9.470277099609374,0.42331716418266296,-0.2596100866794586,-0.8655705451965332
1761315755371199500,9.489199462890625,0.38605546951293945,-1.668911099433899,0.9144383668899536
1761315755390121700,9.508121826171875,-0.1441599577665329,-2.0592424869537354,1.7012859582901
1761315755409044200,9.527044189453125,-0.6236750483512878,-1.1141854524612427,1.2357439994812012
1761315755427966700,9.545966796875,-0.7531746625900269,-0.6071822047233582,0.846023440361023
1761315755446889200,9.56488916015625,-0.4868452548980713,-0.2095206081867218,0.7317950129508972
1761315755465811700,9.583811767578124,-0.19058434665203094,0.6927008032798767,0.6169557571411133
1761315755484734000,9.60273388671875,-0.0390942245721817,1.784972071647644,0.578472375869751
1761315755503656400,9.621656494140625,-0.0036650835536420345,2.9614639282226562,0.6151232123374939
1761315755522579000,9.640578857421875,0.07146912813186646,3.8410840034484863,0.7794411182403564
1761315755541501400,9.65950146484375,0.3158080279827118,4.178958892822266,1.1490037441253662
1761315755560424000,9.678423828125,0.5815265774726868,3.813595771789551,2.0341978073120117
1761315755579346200,9.69734619140625,0.5296045541763306,3.046982526779175,2.2308905124664307
1761315755598268700,9.7162685546875,0.5247178077697754,2.1001691818237305,1.6896798610687256
1761315755617191200,9.735191162109375,-0.33413344621658325,-3.096461057662964,3.1709845066070557
1761315755636113700,9.75411376953125,-0.7091936469078064,-6.4959025382995605,3.3145334720611572
1761315755655036000,9.773035888671876,-0.09956810623407364,-1.064706802368164,2.1472043991088867
1761315755673958400,9.79195849609375,0.8832851648330688,3.068362236022949,-0.4691306948661804
1761315755692881000,9.810880859375,0.4062134325504303,1.2070342302322388,-0.6462764143943787
1761315755711803400,9.829803466796875,-0.2993151545524597,-1.6621917486190796,-0.5864133834838867
1761315755730725600,9.8487255859375,0.2583884000778198,-2.0372519493103027,-1.0219475030899048
1761315755749648100,9.867648193359376,0.6700994372367859,-1.871712327003479,-1.6102697849273682
1761315755768570600,9.886570556640624,0.6090146899223328,-1.9358513355255127,-2.1661407947540283
1761315755787493000,9.9054931640625,0.4844018816947937,-1.9999902248382568,-2.497830867767334
1761315755806415600,9.92441552734375,0.3671191930770874,-1.9211909770965576,-2.624886989593506
1761315755825338000,9.943338134765625,0.04459185153245926,-1.5131449699401855,-2.442243814468384
1761315755844260400,9.96226025390625,-0.17714570462703705,-0.5070032477378845,-2.20828914642334
1761315755863182800,9.981182861328126,-0.17409147322177887,0.39766156673431396,-2.0250349044799805
1761315755882105300,10.000105224609374,-0.13927318155765533,1.050046443939209,-1.6927341222763062
1761315755901027800,10.01902783203125,-0.0018325417768210173,1.2864443063735962,-1.4343457221984863
1761315755919950000,10.0379501953125,0.08368607610464096,1.0891406536102295,-1.1691616773605347
1761315755938872600,10.05687255859375,0.22906772792339325,0.5234960913658142,-0.6621584296226501
1761315755957795000,10.075795166015626,0.6310052275657654,-0.41476529836654663,0.5943543910980225
1761315755976717600,10.094717529296876,0.7385143637657166,-1.0610417127609253,1.6554723978042603
1761315755995639800,10.113639892578124,0.5442649126052856,-0.5424323678016663,1.9040873050689697
1761315756014562300,10.132562255859375,0.34512871503829956,-0.13316470384597778,1.6750195026397705
1761315756033484800,10.15148486328125,0.17409147322177887,0.010995250195264816,1.012784719467163
1761315756052407300,10.1704072265625,-0.03298575058579445,0.5296045541763306,0.22051586210727692
1761315756071329500,10.18932958984375,-0.029320668429136276,1.2131426334381104,-0.2980934679508209
1761315756090252000,10.208251953125,0.05864133685827255,1.6701327562332153,-0.4178195297718048
1761315756109174500,10.227174560546874,0.13621893525123596,2.2657089233398438,0.008551862090826035
1761315756128097000,10.246096923828125,0.2223484069108963,2.3982627391815186,0.9657495021820068
1761315756147019500,10.26501953125,0.09834641218185425,1.4514493942260742,2.8124170303344727
1761315756165941800,10.283941650390625,-0.3249707520008087,1.436178207397461,3.990130662918091
1761315756184864300,10.3028642578125,-0.6426113247871399,1.797799825668335,1.8625496625900269
1761315756203786800,10.321786865234374,-0.46485477685928345,0.6261184215545654,0.833195686340332
1761315756222709200,10.340709228515625,0.10995250940322876,-1.904698133468628,2.3432865142822266
1761315756241631500,10.359631591796875,-0.6957550048828125,-3.7464025020599365,3.1795363426208496
1761315756260554000,10.378553955078125,0.3762819170951843,2.2559351921081543,1.6438663005828857
1761315756279476500,10.3974765625,0.5131117105484009,4.009754180908203,-0.4563029110431671
1761315756298399000,10.41639892578125,-0.633448600769043,0.7678350210189819,-0.5882459282875061
1761315756317321200,10.4353212890625,-1.243685007095337,-3.207024574279785,-0.6084038615226746
1761315756336243700,10.45424365234375,-0.7623373866081238,-5.6688151359558105,-1.0152281522750854
1761315756355166200,10.473166259765625,0.32130566239356995,-3.6559972763061523,-1.6285951137542725
1761315756374088700,10.492088623046875,0.8637380003929138,-0.6236750483512878,-2.7330069541931152
1761315756393011000,10.511010986328126,0.5729747414588928,0.39766156673431396,-2.8698368072509766
1761315756411933400,10.529933349609376,0.46485477685928345,0.05619794875383377,-2.579073429107666
1761315756430856000,10.54885595703125,0.418430358171463,-0.03665083646774292,-2.4214749336242676
1761315756449778400,10.5677783203125,0.3011476993560791,0.31947311758995056,-2.437356948852539
1761315756468701000,10.586700927734375,0.18569757044315338,0.21257483959197998,-2.573575973510742
1761315756487623200,10.605623046875,0.1050657257437706,-0.006719320081174374,-2.4905006885528564
1761315756506545700,10.624545654296876,0.0030542362947016954,-0.12400199472904205,-1.9841082096099854
1761315756525468200,10.64346826171875,-0.0397050715982914,-0.25655585527420044,-1.3072131872177124
1761315756544390700,10.662390625,0.030542362481355667,-0.7831062078475952,-0.41537612676620483
1761315756563313000,10.68131298828125,0.061084724962711334,-1.7306066751480103,0.7623373866081238
1761315756582235400,10.7002353515625,-0.02870982140302658,-2.0128180980682373,1.4282371997833252
1761315756601158000,10.719157958984376,-0.19974705576896667,-1.7623707056045532,1.6285951137542725
1761315756620080400,10.738080322265626,-0.3567348122596741,-1.4135769605636597,1.5583477020263672
1761315756639002600,10.757002685546874,-0.24250635504722595,-0.5845808386802673,1.339664340019226
1761315756657925000,10.775925048828125,-0.18569757044315338,1.0683718919754028,0.9578084945678711
1761315756676847600,10.79484765625,-0.1044548824429512,2.4795053005218506,0.6633801460266113
1761315756695769900,10.813769775390625,0.029320668429136276,3.19236421585083,0.6444438695907593
1761315756714692400,10.8326923828125,0.16126367449760437,3.43792462348938,0.8124268651008606
1761315756733614800,10.85161474609375,0.31031039357185364,3.3530168533325195,1.1752700805664062
1761315756752537300,10.870537353515624,0.12278030067682266,1.8741557598114014,3.0439281463623047
1761315756771459800,10.8894599609375,-0.37139514088630676,1.0592091083526611,4.2021708488464355
1761315756790382000,10.908382080078125,-0.4318690001964569,-1.2974395751953125,4.105046272277832
1761315756809304600,10.9273046875,-0.3658975064754486,-6.757421493530273,4.269364356994629
1761315756828227000,10.94622705078125,-0.005497625097632408,1.2913310527801514,2.552807092666626
1761315756847149600,10.965149658203124,0.582748293876648,5.111722469329834,0.3701734244823456
1761315756866071800,10.98407177734375,0.20402298867702484,2.4324700832366943,-0.29687178134918213
1761315756884994300,11.002994384765625,-0.48928865790367126,-1.1264023780822754,-0.5967977643013
1761315756903916800,11.021916748046875,-0.48928865790367126,-4.480106353759766,-0.8283088803291321
1761315756922839000,11.040839111328125,0.24617144465446472,-4.426962852478027,-1.2015365362167358
1761315756941761500,11.059761474609376,0.9333745837211609,-0.9877400398254395,-2.0855088233947754
1761315756960684000,11.07868408203125,1.1025793552398682,0.3255815804004669,-2.7366721630096436
1761315756979606500,11.0976064453125,0.8222004175186157,-0.1423274129629135,-2.9474143981933594
1761315756998528800,11.11652880859375,0.5833591222763062,-0.5949652194976807,-3.0023906230926514
1761315757017451300,11.135451171875,0.42881476879119873,-0.23334364593029022,-2.891827344894409
1761315757036373800,11.154373779296876,0.2480039894580841,0.2761029601097107,-2.686582565307617
1761315757055296300,11.173296142578126,0.045202698558568954,0.6084038615226746,-2.4617908000946045
1761315757074218500,11.192218505859374,-0.10201149433851242,0.8429692387580872,-2.108110189437866
1761315757093141000,11.21114111328125,-0.18936264514923096,0.9028322696685791,-1.7128920555114746
1761315757112063500,11.2300634765625,-0.10873081535100937,0.28221142292022705,-1.0066763162612915
1761315757130986000,11.248986083984375,0.17653486132621765,-1.6279842853546143,0.6688777208328247
1761315757149908200,11.267908203125,0.05008947476744652,-2.775766372680664,1.8417809009552002
1761315757168830700,11.286830810546874,-0.38605546951293945,-2.258378744125366,1.8478893041610718
1761315757187753200,11.305753173828125,-0.44042086601257324,-1.6805171966552734,1.442286729812622
1761315757206675700,11.32467578125,-0.12522368133068085,-1.0085088014602661,1.0237799882888794
1761315757225598000,11.343597900390625,0.022601349279284477,0.6975875496864319,0.5619794726371765
1761315757244520400,11.3625205078125,0.016492875292897224,2.4477412700653076,0.208298921585083
1761315757263443000,11.38144287109375,0.1178935244679451,3.560094118118286,0.028098974376916885
1761315757282365400,11.400365478515624,0.2993151545524597,4.362823963165283,0.051922015845775604
1761315757301287700,11.41928759765625,0.3970507085323334,4.353050231933594,0.40132665634155273
1761315757320210200,11.438210205078125,0.5344913601875305,3.232069253921509,1.0708152055740356
1761315757339132700,11.457132568359375,0.5974085927009583,0.9211576581001282,2.5638022422790527
1761315757358055200,11.47605517578125,-0.05070032179355621,-0.7482879161834717,4.683518409729004
1761315757376977400,11.494977294921876,-0.7153021693229675,-0.7189671993255615,4.195451736450195
1761315757395900000,11.51389990234375,-0.791047215461731,-4.315177917480469,4.108100414276123
1761315757414822400,11.532822509765625,-0.10201149433851242,1.1935955286026,1.7391585111618042
1761315757433744600,11.55174462890625,1.296217918395996,5.015819549560547,0.07269082218408585
1761315757452667100,11.570667236328125,0.6096255779266357,1.5607911348342896,0.183865025639534
1761315757471589600,11.589589599609376,-0.7342383861541748,-1.5076473951339722,-0.33352261781692505
1761315757490512100,11.60851220703125,-1.3512704372406006,-3.5527639389038086,-0.28343313932418823
1761315757509434400,11.627434326171874,-0.5125008225440979,-3.2430644035339355,-1.0561549663543701
1761315757528356900,11.64635693359375,0.5241069197654724,-0.9248227477073669,-2.1093318462371826
1761315757547279400,11.665279296875,0.5961869359016418,-0.5076140761375427,-2.4935548305511475
1761315757566201900,11.684201904296875,0.5564818382263184,-0.9688037633895874,-2.5809059143066406
1761315757585124000,11.7031240234375,0.5161659121513367,-1.505814790725708,-2.7281203269958496
1761315757604046600,11.722046630859374,0.3946073353290558,-1.6304277181625366,-2.8961031436920166
1761315757622969000,11.740968994140625,0.261442631483078,-1.1404517889022827,-2.8612849712371826
1761315757641891600,11.7598916015625,0.2718270421028137,-0.2113531529903412,-2.628552198410034
1761315757660813800,11.778813720703125,0.33230090141296387,0.39888325333595276,-2.4074254035949707
1761315757679736300,11.797736328125,0.3365768492221832,0.45385950803756714,-2.205235004425049
1761315757698658800,11.816658935546876,0.36162158846855164,-0.261442631483078,-1.5522392988204956
1761315757717581000,11.8355810546875,0.2993151545524597,-2.1960723400115967,0.32008397579193115
1761315757736503600,11.854503662109375,-0.3939964771270752,-3.455639362335205,1.7580947875976562
1761315757755426000,11.873426025390625,-0.896723747253418,-2.73483943939209,1.7501537799835205
1761315757774348500,11.8923486328125,-0.47585001587867737,-1.8845402002334595,1.2589561939239502
1761315757793270800,11.911270751953126,0.033596597611904144,-0.5821374654769897,0.7360709309577942
1761315757812193300,11.930193359375,0.22051586210727692,2.1429286003112793,0.237008735537529
1761315757831115800,11.94911572265625,0.38788801431655884,4.407415866851807,0.02993151545524597
1761315757850038300,11.968038330078125,0.418430358171463,5.094007968902588,-0.15271180868148804
1761315757868960500,11.98696044921875,0.4349232614040375,5.2522172927856445,0.10140064358711243
1761315757887883000,12.005883056640625,0.610236406326294,4.855166912078857,0.8441908955574036
1761315757906805500,12.024805419921876,0.9309312105178833,2.356114149093628,2.694523572921753
1761315757925728000,12.04372802734375,0.5351021885871887,0.18019993603229523,4.09282922744751
1761315757944650200,12.062650146484375,-0.4844018816947937,0.05803048983216286,2.4819488525390625
1761315757963572700,12.08157275390625,-0.7201889157295227,-1.4245721101760864,2.517988681793213
1761315757982495200,12.1004951171875,-0.9981244206428528,-6.134891510009766,4.570511817932129
1761315758001417500,12.11941748046875,-0.5045598149299622,-1.1300674676895142,1.9566200971603394
1761315758020340000,12.138340087890626,0.9718579649925232,4.516146659851074,-0.24128466844558716
1761315758039262500,12.157262451171874,0.8014315962791443,3.758619546890259,-0.971247136592865
1761315758058185000,12.17618505859375,-0.3542914092540741,-0.11422843486070633,-0.9578084945678711
1761315758077107200,12.195107177734375,-0.7488987445831299,-3.160600185394287,-0.38849884271621704
1761315758096029700,12.21402978515625,-0.3524588644504547,-2.9614639282226562,-0.9865183234214783
1761315758114952200,12.2329521484375,0.22051586210727692,-1.2662863731384277,-1.9560092687606812
1761315758133874400,12.25187451171875,0.3439069986343384,-1.1343433856964111,-2.3005270957946777
1761315758152797000,12.270796875,0.18936264514923096,-1.6163781881332397,-2.2815909385681152
1761315758171719400,12.289719482421875,0.2211267054080963,-1.8637713193893433,-2.159421443939209
1761315758190642000,12.308641845703125,0.22906772792339325,-1.5052039623260498,-2.0561883449554443
1761315758209564200,12.327564208984375,0.2241809368133545,-0.5723638534545898,-1.8912594318389893
1761315758228486700,12.346486572265626,0.23334364593029022,0.15943112969398499,-1.8533869981765747
1761315758247409200,12.3654091796875,0.19119518995285034,0.6267293095588684,-1.770311713218689
1761315758266331600,12.38433154296875,0.12461283802986145,0.7336275577545166,-1.5882792472839355
1761315758285254000,12.40325390625,0.0794101431965828,0.5241069197654724,-1.3763152360916138
1761315758304176400,12.42217626953125,0.182643324136734,-0.07269082218408585,-0.8160919547080994
1761315758323099000,12.441098876953125,0.3304683566093445,-1.3035480976104736,0.4489727318286896
1761315758342021000,12.460021240234376,0.0525328628718853,-2.3206851482391357,1.3285927772521973
1761315758360943600,12.478943603515624,-0.22967857122421265,-2.243718385696411,1.3145432472229004
1761315758379866000,12.4978662109375,-0.37444937229156494,-1.4679423570632935,0.9058864712715149
1761315758398788600,12.51678857421875,-0.37200596928596497,-0.19241689145565033,0.6267293095588684
1761315758417710800,12.5357109375,-0.25777754187583923,1.300493836402893,0.4984513521194458
1761315758436633300,12.55463330078125,-0.17348061501979828,2.457514762878418,0.4727957844734192
1761315758455555800,12.573555908203126,-0.17531315982341766,3.2229065895080566,0.5522059202194214
1761315758474478000,12.59247802734375,-0.13438639044761658,3.359736204147339,0.841747522354126
1761315758493400600,12.611400634765625,-0.08674030750989914,2.9248130321502686,1.3298144340515137
1761315758512323000,12.630322998046875,-0.38910970091819763,1.0665392875671387,2.899768352508545
1761315758531245600,12.64924560546875,-0.2730487287044525,0.1185043677687645,3.1563241481781006
1761315758550167800,12.668167724609376,0.6853706240653992,-2.4446871280670166,3.1642651557922363
1761315758569090300,12.68709033203125,0.28221142292022705,-7.381707191467285,2.6749765872955322
1761315758588012800,12.7060126953125,-0.10078980028629303,0.17897824943065643,2.7800421714782715
1761315758606935300,12.724935302734375,0.864959716796875,5.988899230957031,0.8026533126831055
1761315758625857500,12.743857421875,0.4947862923145294,3.8942277431488037,-0.26816195249557495
1761315758644780000,12.762780029296875,-0.36101073026657104,1.1911520957946777,-0.7287407517433167
1761315758663702500,12.78170263671875,-0.6041279435157776,0.6707102656364441,-0.7434011101722717
1761315758682624800,12.800624755859374,-0.42392799258232117,0.2608317732810974,-0.6181774139404297
1761315758701547300,12.81954736328125,-0.3170297145843506,-1.3659307956695557,-0.6786513328552246
1761315758720469800,12.8384697265625,-0.11117420345544815,-3.528330087661743,-1.1361758708953857
1761315758739392300,12.857392333984375,0.1704263836145401,-3.958366632461548,-1.7251089811325073
1761315758758314500,12.876314453125,0.13927318155765533,-3.1532700061798096,-1.7758092880249023
1761315758777237000,12.895237060546876,0.15454435348510742,-1.6542507410049438,-1.6340928077697754
1761315758796159500,12.914159423828124,0.15393351018428802,-0.5021164417266846,-1.5675103664398193
1761315758815081700,12.933081787109375,-0.03665083646774292,-0.15026842057704926,-1.5241402387619019
1761315758834004200,12.952004150390625,-0.16004198789596558,-0.12644538283348083,-1.644477128982544
1761315758852926700,12.9709267578125,-0.18019993603229523,-0.35856732726097107,-1.8075734376907349
1761315758871849200,12.98984912109375,-0.16065283119678497,-0.9926267862319946,-1.7000643014907837
1761315758890771500,13.008771484375,-0.14110571146011353,-1.4575579166412354,-1.442286729812622
1761315758909694000,13.02769384765625,-0.11483928561210632,-1.5760623216629028,-1.2137534618377686
1761315758928616400,13.046616455078125,0.12400199472904205,-1.8790425062179565,-0.9645278453826904
1761315758947539000,13.0655390625,0.5497625470161438,-2.1404850482940674,-0.4990622103214264
1761315758966461200,13.084461181640625,0.6957550048828125,-1.4868786334991455,0.012216945178806782
1761315758985383700,13.1033837890625,0.4960079789161682,-0.7440119385719299,0.22601348161697388
1761315759004306200,13.12230615234375,0.46363306045532227,0.04214845970273018,0.1704263836145401
1761315759023228400,13.141228515625,0.38483378291130066,1.0017894506454468,-0.10384403169155121
1761315759042151000,13.16015087890625,-0.12583453953266144,1.2412415742874146,-0.5076140761375427
1761315759061073400,13.179073486328125,-0.27976804971694946,0.30847787857055664,-0.781884491443634
1761315759079995600,13.19799560546875,0.34451785683631897,-0.3127537965774536,-0.4300364851951599
1761315759098918100,13.216918212890626,0.5619794726371765,-0.0018325417768210173,0.5057815313339233
1761315759117840600,13.235840576171874,0.3292466700077057,0.9828532338142395,1.0121738910675049
1761315759136763100,13.25476318359375,0.12644538283348083,1.452060341835022,0.860683798789978
1761315759155685400,13.273685302734375,-0.34940463304519653,1.105022668838501,0.6346703171730042
1761315759174608000,13.29260791015625,-0.4831801950931549,0.43919917941093445,0.3506263196468353
1761315759193530400,13.3115302734375,-0.21807247400283813,-0.6420004963874817,-0.012827792204916477
1761315759212452900,13.330452880859376,0.10628741979598999,-1.3647091388702393,-0.258999228477478
1761315759231375000,13.349375,0.4984513521194458,-1.155722975730896,-0.5485408306121826
1761315759250297600,13.368297607421875,0.42698222398757935,-0.20157960057258606,-0.5094466209411621
1761315759269220000,13.38722021484375,-0.7763868570327759,1.3634874820709229,0.4703523814678192
1761315759288142300,13.406142333984375,-1.26872980594635,0.6713211536407471,0.8313631415367126
1761315759307064800,13.42506494140625,-0.990183413028717,-1.9401272535324097,0.0787992998957634
1761315759325987300,13.4439873046875,-1.225359559059143,-3.2027485370635986,-0.10384403169155121
1761315759344909800,13.462909912109374,-0.7641699314117432,-1.2785032987594604,0.70308518409729
1761315759363832000,13.48183203125,0.11178504675626755,0.4196520745754242,1.0873081684112549
1761315759382754600,13.500754638671875,0.5302154421806335,1.4215179681777954,0.8771766424179077
1761315759401677000,13.519677001953125,0.34573954343795776,1.1630531549453735,0.25350162386894226
1761315759420599300,13.538599365234376,-0.3793361485004425,0.12461283802986145,-0.08429691940546036
1761315759439521800,13.557521728515624,-0.49173203110694885,-0.8594620823860168,-0.018936265259981155
1761315759458444300,13.5764443359375,-0.09895725548267365,-1.728163242340088,-0.1588202863931656
1761315759477366500,13.595366455078125,-0.2516690790653229,-2.049468994140625,-0.2504473626613617
1761315759496289000,13.6142890625,-0.4214846193790436,-2.1490371227264404,-0.6206207871437073
1761315759515211500,13.63321142578125,-0.3365768492221832,-2.0390844345092773,-1.4337348937988281
1761315759534134000,13.652134033203126,-0.1172826737165451,1.4062467813491821,-0.056808795779943466
1761315759553056300,13.67105615234375,-0.12339114397764206,2.0305325984954834,0.7678350210189819
1761315759571978800,13.689978759765625,0.07207997888326645,1.9517333507537842,0.49295374751091003
1761315759590901200,13.7089013671875,-0.08612946420907974,1.9902167320251465,0.182643324136734
1761315759609823700,13.72782373046875,-0.4618005156517029,1.5125341415405273,0.3298575282096863
1761315759628746000,13.74674609375,-0.3414636254310608,0.30664533376693726,0.13560809195041656
1761315759647668500,13.76566845703125,-0.6206207871437073,0.4446968138217926,-0.7733326554298401
1761315759666591000,13.784591064453124,-0.6878139972686768,2.596788167953491,-0.6719319820404053
1761315759685513200,13.80351318359375,-0.20768806338310242,2.4117014408111572,-0.390942245721817
1761315759704435700,13.822435791015625,0.38849884271621704,1.637147068977356,-0.08857285231351852
1761315759723358200,13.841358154296875,1.151447057723999,1.3549355268478394,-0.014049487188458443
1761315759742280400,13.860280517578126,1.7666466236114502,1.3506596088409424,-0.21379654109477997
1761315759761203000,13.879202880859374,2.10688853263855,2.5045502185821533,-0.28221142292022705
1761315759780125400,13.89812548828125,2.2125651836395264,6.701834201812744,-0.03237490355968475
1761315759799048000,13.9170478515625,2.552807092666626,7.662086009979248,-0.17775654792785645
1761315759817970200,13.93597021484375,2.4733970165252686,4.627320766448975,0.47951510548591614
1761315759836892700,13.954892578125,1.9853299856185913,1.427626371383667,1.3390535116195679
1761315759855815200,13.973815185546876,1.8430025577545166,0.15332266688346863,2.0250349044799805
1761315759874737400,13.9927373046875,1.355546474456787,0.8179244995117188,2.344508171081543
1761315759893660000,14.011659912109375,2.0073204040527344,2.028700113296509,0.8008207678794861
1761315759912582400,14.03058251953125,3.200916051864624,2.3023595809936523,-0.8307522535324097
1761315759931504600,14.049504638671875,4.098327159881592,2.517988681793213,-2.5460877418518066
1761315759950427100,14.06842724609375,3.9223265647888184,2.506382703781128,-2.697577953338623
1761315759969349600,14.087349609375,2.0244240760803223,2.280369281768799,-0.12033691257238388
1761315759988272000,14.106272216796874,0.8777875304222107,-0.37200596928596497,1.4202961921691895
1761315760007194400,14.1251943359375,0.19241689145565033,-0.8741224408149719,1.7318283319473267
1761315760026116900,14.144116943359375,-0.2223484069108963,0.3304683566093445,1.4532819986343384
1761315760045039400,14.163039306640625,-0.4703523814678192,1.700675129890442,0.9492566585540771
1761315760063961600,14.181961669921876,-0.5833591222763062,2.3145766258239746,0.6175665855407715
1761315760082884000,14.200884033203126,-0.291374146938324,1.7043402194976807,0.818535327911377
1761315760101806600,14.219806640625,0.22601348161697388,1.0757020711898804,0.8985562920570374
1761315760120728800,14.238728759765625,0.5436540842056274,0.7434011101722717,0.684759795665741
1761315760139651300,14.2576513671875,0.6713211536407471,0.38849884271621704,0.4227063059806824
1761315760158573800,14.27657373046875,0.5876350402832031,0.06291726976633072,0.2510582208633423
1761315760177496300,14.295496337890626,0.4953971207141876,-0.08063183724880219,0.1575985997915268
1761315760196418600,14.31441845703125,0.4471401870250702,-0.020157959312200546,0.25777754187583923
1761315760215341000,14.333341064453125,0.47829338908195496,0.17531315982341766,0.4086568057537079
1761315760234263600,14.352263671875,0.573585569858551,0.15149012207984924,0.5644228458404541
1761315760253185800,14.371185791015625,0.5399889945983887,0.3689517378807068,0.6077930331230164
1761315760272108300,14.3901083984375,0.4312581717967987,0.726908266544342,0.5387672781944275
1761315760291030800,14.40903076171875,0.36101073026657104,0.3310792148113251,0.4618005156517029
1761315760309953000,14.427953125,0.25411245226860046,0.24311721324920654,0.3561239540576935
1761315760328875500,14.44687548828125,0.29748260974884033,-0.395218163728714,0.5925218462944031
1761315760347798000,14.465798095703125,0.40071579813957214,-0.25533416867256165,0.7556180357933044
1761315760366720500,14.484720458984375,0.37139514088630676,0.06413896381855011,0.7024743556976318
1761315760385642800,14.503642822265626,0.28160059452056885,-0.005497625097632408,0.5393781065940857
1761315760404565200,14.522565185546876,0.3127537965774536,-0.24617144465446472,0.4611896872520447
1761315760423487700,14.54148779296875,0.4049917459487915,-0.0916270911693573,0.5583143830299377
1761315760442410000,14.560409912109375,0.3793361485004425,0.22784602642059326,0.6444438695907593
1761315760461332500,14.57933251953125,0.2980934679508209,-0.023212196305394173,0.45263782143592834
1761315760480255000,14.5982548828125,0.22845686972141266,-0.11972606182098389,0.29503923654556274
1761315760499177200,14.61717724609375,0.1563768982887268,0.004275931045413017,0.2870981991291046
1761315760518099700,14.636099609375,0.08674030750989914,0.16676130890846252,0.2351761907339096
1761315760537022200,14.655022216796874,0.04459185153245926,0.11483928561210632,0.1172826737165451
1761315760555944700,14.67394482421875,0.021379653364419937,0.013438640162348747,0.04031591862440109
1761315760574867000,14.692866943359375,0.02993151545524597,-0.07696675509214401,0.01832541823387146
1761315760593789400,14.71178955078125,0.05497625470161438,-0.13560809195041656,0.014049487188458443
1761315760612712000,14.7307119140625,0.034818295389413834,-0.09895725548267365,0.015271181240677834
1761315760631634200,14.74963427734375,0.038483377546072006,0.02076880633831024,0.055587101727724075
1761315760650556700,14.768556640625,0.042759306728839874,0.07757759839296341,0.0653606578707695
1761315760669479200,14.787479248046875,0.07207997888326645,0.08674030750989914,0.06841489672660828
1761315760688401700,14.806401611328125,0.0794101431965828,0.05131116881966591,0.08796200156211853
1761315760707324000,14.825323974609375,0.06963659077882767,0.022601349279284477,0.08063183724880219
1761315760726246400,14.844246337890626,0.05070032179355621,-0.008551862090826035,0.04153761267662048
1761315760745169000,14.8631689453125,0.055587101727724075,-0.06902574002742767,0.01832541823387146
1761315760764091100,14.882091064453125,0.08002099394798279,-0.08063183724880219,0.06047387793660164
1761315760783013600,14.901013671875,0.10140064358711243,0.016492875292897224,0.08857285231351852
1761315760801936100,14.91993603515625,0.07146912813186646,0.0787992998957634,0.08918370306491852
1761315760820858400,14.9388583984375,0.07269082218408585,0.05497625470161438,0.09468132257461548
1761315760839780900,14.95778076171875,0.062306419014930725,0.05497625470161438,0.07085828483104706
1761315760858703400,14.976703369140624,0.04459185153245926,0.06047387793660164,0.056808795779943466
1761315760877625600,14.99562548828125,0.055587101727724075,0.04825693368911743,0.045202698558568954
1761315760896548000,15.014548095703125,0.07696675509214401,-0.009773556143045425,0.02870982140302658
1761315760915470600,15.033470703125,0.08490777015686035,0.02748812735080719,0.03176405653357506
1761315760934392800,15.052392822265626,0.06047387793660164,0.26755109429359436,0.1435490995645523
1761315760953315300,15.0713154296875,0.0525328628718853,-0.056808795779943466,-0.04703523963689804
1761315760972237800,15.09023779296875,0.036039989441633224,-0.13682979345321655,-0.04031591862440109
