time,seconds_elapsed,z,y,x
1761316239638254600,0.250254638671875,0.0023670331574976444,0.05024218559265137,0.060092099010944366
1761316239657177000,0.269177001953125,-0.0025197449140250683,0.06245913356542587,0.06620056927204132
1761316239676099600,0.288099609375,-0.006184828467667103,0.06795676052570343,0.07475243508815765
1761316239695022000,0.30702197265625,-0.0067956759594380856,0.06795676052570343,0.08391514420509338
1761316239713944600,0.325944580078125,-0.004963133949786425,0.06612421572208405,0.08635853230953217
1761316239732867000,0.3448671875,-0.004352286923676729,0.0716218426823616,0.08330429345369339
1761316239751789600,0.36378955078125,-0.004352286923676729,0.0850604772567749,0.07780666649341583
1761316239770712000,0.382712158203125,-0.0037414394319057465,0.08261708915233612,0.07719582319259644
1761316239789634600,0.401634521484375,-0.000687203137204051,0.07956285774707794,0.07963921129703522
1761316239808557000,0.42055712890625,0.0029778804164379835,0.08811471611261368,0.09613208472728729
1761316239827479600,0.4394794921875,0.008475505746901035,0.09605573117733002,0.11873343586921692
1761316239846402000,0.458402099609375,0.018249060958623886,0.10277505218982697,0.135226309299469
1761316239865324500,0.477324462890625,0.02435753494501114,0.10949437320232391,0.12606360018253326
1761316239884247000,0.4962470703125,0.01763821393251419,0.07895200699567795,0.1486649513244629
1761316239903169500,0.51516943359375,0.02557922899723053,0.07895200699567795,0.16576866805553436
1761316239922092000,0.534092041015625,0.03596363216638565,0.09239064902067184,0.0949103906750679
1761316239941014500,0.5530146484375,0.023746687918901443,0.02764083817601204,0.14011308550834656
1761316239959937000,0.57193701171875,0.02008160389959812,0.001985253533348441,0.18959172070026398
1761316239978859500,0.590859619140625,0.006642963737249374,-0.01817270554602146,0.17004460096359253
1761316239997782000,0.609781982421875,0.0011453386396169662,-0.0725381150841713,0.1999761164188385
1761316240016704500,0.62870458984375,0.03352024406194687,0.008704573847353458,0.11934428662061691
1761316240035627000,0.647626953125,0.07750124484300613,0.02641914412379265,0.023441264405846596
1761316240054549500,0.666549560546875,0.02680092304944992,0.006261184345930815,0.14255647361278534
1761316240073472000,0.685471923828125,0.03962871432304382,-0.060932014137506485,0.1987544298171997
1761316240092394500,0.70439453125,0.10926530510187149,-0.04321744292974472,0.0949103906750679
1761316240111317000,0.72331689453125,0.20272493362426758,-0.014507622458040714,0.02832804247736931
1761316240130239500,0.742239501953125,0.13125580549240112,-0.030389651656150818,0.04359922185540199
1761316240149162000,0.761161865234375,0.08299887180328369,-0.0261137206107378,0.10590564459562302
1761316240168084500,0.78008447265625,0.043293800204992294,-0.12201674282550812,0.1865374743938446
1761316240187007000,0.799007080078125,-0.057496000081300735,-0.03405473381280899,0.1859266310930252
1761316240205929500,0.817929443359375,-0.09842276573181152,0.027029991149902344,0.15171918272972107
1761316240224852000,0.83685205078125,-0.10453123599290848,0.13148486614227295,0.10468395054340363
1761316240243774500,0.8557744140625,-0.12102411687374115,0.11377029865980148,0.039323292672634125
1761316240262697000,0.874697021484375,-0.15217731893062592,0.07345438003540039,0.06436803191900253
1761316240281619500,0.893619384765625,-0.05688514932990074,0.09239064902067184,0.06436803191900253
1761316240300542000,0.9125419921875,0.012751436792314053,0.04291202127933502,-0.014431266114115715
1761316240319464400,0.93146435546875,0.012751436792314053,0.028251685202121735,-0.02176143415272236
1761316240338387000,0.950386962890625,0.00786465872079134,0.0716218426823616,0.03626905754208565
1761316240357309400,0.969309326171875,-0.011071606539189816,0.07650861889123917,0.0680331140756607
1761316240376232000,0.98823193359375,0.0005344913806766272,0.0850604772567749,0.07719582319259644
1761316240395154400,1.007154541015625,-0.012904148548841476,0.08994726091623306,0.08391514420509338
1761316240414077000,1.026076904296875,-0.030007870867848396,0.09177979826927185,0.08819106966257095
1761316240432999400,1.04499951171875,0.011529741808772087,0.11010521650314331,0.06192464008927345
1761316240451922000,1.063921875,-0.01901262067258358,0.00992626789957285,-0.005879404954612255
1761316240470844400,1.082844482421875,-0.0165692325681448,-0.0035123717971146107,-0.007101099472492933
1761316240489767000,1.101766845703125,0.017027366906404495,0.010537114925682545,-0.03092414326965809
1761316240508689400,1.120689453125,0.029855160042643547,0.02764083817601204,-0.0364217683672905
1761316240527612000,1.13961181640625,0.010308047756552696,0.02641914412379265,-0.030313294380903244
1761316240546534400,1.158534423828125,0.004199574701488018,0.014202198944985867,-0.04008685052394867
1761316240565457000,1.177456787109375,-0.000687203137204051,-0.016340164467692375,-0.048638712614774704
1761316240584379400,1.19637939453125,-0.00129805039614439,0.0007635590736754239,-0.04253023862838745
1761316240603302000,1.215302001953125,-0.011071606539189816,0.01969982497394085,-0.031534988433122635
1761316240622224400,1.234224365234375,-0.019623467698693275,0.08689302206039429,-0.012598725035786629
1761316240641147000,1.25314697265625,-0.017180079594254494,0.014202198944985867,-0.04130854457616806
1761316240660069400,1.2720693359375,-0.0031305921729654074,0.03497100621461868,-0.07368344813585281
1761316240678991600,1.29099169921875,-0.0025197449140250683,0.072843536734581,-0.05596888065338135
1761316240697914000,1.3099140625,-0.0067956759594380856,0.09666658192873001,-0.03764346241950989
1761316240716836600,1.328836669921875,-0.03061871975660324,0.10216420143842697,-0.03214583545923233
1761316240735759000,1.347759033203125,-0.052609220147132874,-0.013896775431931019,-0.04130854457616806
1761316240754681600,1.366681640625,-0.05993938818573952,-0.13240113854408264,-0.10422581434249878
1761316240773604000,1.38560400390625,-0.06482616811990738,-0.1647760421037674,-0.11583191156387329
1761316240792526600,1.404526611328125,-0.07032378762960434,-0.09086353331804276,-0.07246175408363342
1761316240811449000,1.423448974609375,-0.06665870547294617,-0.1250709742307663,-0.12071868777275085
1761316240830371600,1.44237158203125,-0.014736690558493137,-0.16966283321380615,-0.18791188299655914
1761316240849294000,1.461294189453125,0.0035887276753783226,-0.12873606383800507,-0.20135052502155304
1761316240868216600,1.480216552734375,-0.019623467698693275,-0.12262758612632751,-0.13782241940498352
1761316240887139000,1.49913916015625,-0.034283801913261414,-0.111021488904953,-0.11827529966831207
1761316240906061600,1.5180615234375,-0.03733803704380989,-0.06642963737249374,-0.10483665764331818
1761316240924984000,1.536984130859375,-0.04405735805630684,-0.0719272643327713,-0.10361496359109879
1761316240943906600,1.555906494140625,-0.035505495965480804,-0.0853659063577652,-0.13171394169330597
1761316240962829000,1.5748291015625,-0.0293970238417387,-0.059710320085287094,-0.13782241940498352
1761316240981751600,1.59375146484375,-0.0293970238417387,-0.043828289955854416,-0.1396549493074417
1761316241000674000,1.612674072265625,-0.018401773646473885,-0.013896775431931019,-0.12316207587718964
1761316241019596500,1.631596435546875,-0.012293301522731781,-0.029167955741286278,-0.1152210608124733
1761316241038519000,1.65051904296875,-0.031229566782712936,-0.010842538438737392,-0.09200886636972427
1761316241057441500,1.669441650390625,-0.048333290964365005,0.016034740954637527,-0.09384141117334366
1761316241076364000,1.688364013671875,-0.049554985016584396,-0.018783552572131157,-0.12071868777275085
1761316241095286500,1.70728662109375,-0.055052608251571655,-0.05543438717722893,-0.15859122574329376
1761316241114209000,1.726208984375,-0.08009734749794006,-0.029778804630041122,-0.18302510678768158
1761316241133131500,1.745131591796875,-0.0886492058634758,0.05635065957903862,-0.1683647781610489
1761316241152053800,1.7640537109375,-0.11308310180902481,0.1913478970527649,-0.14698512852191925
1761316241170976300,1.782976318359375,-0.056274302303791046,0.3568875193595886,-0.13598987460136414
1761316241189898800,1.801898681640625,0.11964970827102661,0.4136963188648224,-0.14332003891468048
1761316241208821200,1.8208212890625,0.34016555547714233,0.3617742955684662,-0.153704434633255
1761316241227743700,1.83974365234375,0.48127129673957825,0.34222719073295593,-0.1524827480316162
1761316241246666200,1.858666259765625,0.5032618045806885,0.24632415175437927,-0.1689756214618683
1761316241265588700,1.877588623046875,0.4238516390323639,0.016034740954637527,-0.2318928837776184
1761316241284511200,1.89651123046875,0.32245099544525146,0.04352286830544472,-0.2563267946243286
1761316241303433700,1.915433837890625,0.06467345356941223,0.27625566720962524,-0.1934095174074173
1761316241322356200,1.934356201171875,-0.1283542811870575,0.15836215019226074,-0.31924405694007874
1761316241341278700,1.95327880859375,-0.2065427303314209,0.26098448038101196,-0.4805077314376831
1761316241360201200,1.972201171875,-0.1796654462814331,0.33856210112571716,-0.619170069694519
1761316241379123700,1.991123779296875,-0.012904148548841476,0.17118994891643524,-0.646658182144165
1761316241398046200,2.010046142578125,0.14530529081821442,-0.004734066314995289,-0.5226562023162842
1761316241416968700,2.02896875,0.12820157408714294,0.06490252166986465,-0.3882697820663452
1761316241435891200,2.04789111328125,0.06711684167385101,0.004428642801940441,-0.34551048278808594
1761316241454813700,2.066813720703125,-0.030007870867848396,-0.0016798300202935934,-0.387658953666687
1761316241473736200,2.085736083984375,0.0005344913806766272,-0.033443886786699295,-0.4554629921913147
1761316241492658400,2.104658447265625,0.09216158092021942,0.027029991149902344,-0.5141043066978455
1761316241511581000,2.123580810546875,0.13675342500209808,-0.05360184609889984,-0.572134792804718
1761316241530503400,2.14250341796875,0.17768019437789917,-0.08964183181524277,-0.6265002489089966
1761316241549426000,2.161426025390625,0.19417306780815125,-0.1122431829571724,-0.6662052869796753
1761316241568348400,2.180348388671875,0.21738526225090027,-0.0584886260330677,-0.627721905708313
1761316241587271000,2.19927099609375,0.28763270378112793,-0.0010689827613532543,-0.5470900535583496
1761316241606193400,2.218193359375,0.21982865035533905,0.30191126465797424,-0.3650575876235962
1761316241625116000,2.237115966796875,0.03352024406194687,0.6697176694869995,-0.07429429888725281
1761316241644038400,2.256038330078125,-0.08987089991569519,0.8346464037895203,0.06558972597122192
1761316241662961000,2.2749609375,-0.14606885612010956,0.7906654477119446,0.031382277607917786
1761316241681883400,2.29388330078125,-0.141182079911232,0.6746044158935547,-0.12255123257637024
1761316241700806000,2.312805908203125,-0.21387289464473724,0.46867257356643677,-0.28137150406837463
1761316241719728400,2.331728271484375,-0.3262687921524048,0.3568875193595886,-0.39498910307884216
1761316241738651000,2.35065087890625,-0.3641413152217865,0.32756683230400085,-0.4463002681732178
1761316241757573400,2.369573486328125,-0.34276166558265686,0.22433365881443024,-0.46401485800743103
1761316241776495900,2.388495849609375,-0.35436776280403137,0.14248012006282806,-0.4524087607860565
1761316241795418000,2.407418212890625,-0.37086063623428345,0.16080553829669952,-0.468290776014328
1761316241814340600,2.426340576171875,-0.3910185992717743,0.24693500995635986,-0.4957789182662964
1761316241833263400,2.445263427734375,-0.3873535096645355,0.3342861533164978,-0.48844873905181885
1761316241852185600,2.464185546875,-0.40995487570762634,0.3501681983470917,-0.4530195891857147
1761316241871108000,2.483108154296875,-0.454546719789505,0.31168481707572937,-0.42308807373046875
1761316241890030600,2.502030517578125,-0.46065518260002136,0.26037365198135376,-0.40903860330581665
1761316241908953000,2.520953125,-0.4203392565250397,0.22066856920719147,-0.4133145213127136
1761316241927875600,2.53987548828125,-0.3641413152217865,0.21028417348861694,-0.43347248435020447
1761316241946798000,2.558798095703125,-0.2969481348991394,0.2298312783241272,-0.4414134919643402
1761316241965720600,2.577720458984375,-0.26762744784355164,0.254265159368515,-0.4127036929130554
1761316241984643000,2.59664306640625,-0.27801185846328735,0.20967331528663635,-0.3510081171989441
1761316242003565600,2.615565673828125,-0.33115556836128235,0.32756683230400085,-0.23800136148929596
1761316242022488000,2.634488037109375,-0.38552096486091614,0.38132140040397644,-0.019928891211748123
1761316242041410600,2.65341064453125,-0.29511559009552,0.28847262263298035,0.19142426550388336
1761316242060333000,2.6723330078125,0.07200361788272858,0.24998924136161804,0.2531198263168335
1761316242079255600,2.691255615234375,0.5270848274230957,0.02641914412379265,0.26167169213294983
1761316242098178000,2.710177978515625,0.9204704761505127,-0.22036315500736237,0.35024455189704895
1761316242117100500,2.7291005859375,1.0169843435287476,-0.43171629309654236,0.6013027429580688
1761316242136023000,2.74802294921875,0.9723924994468689,-0.20936790108680725,1.1841274499893188
1761316242154945300,2.7669453125,0.8001335263252258,-0.12262758612632751,1.9171441793441772
1761316242173867800,2.78586767578125,0.6706339120864868,0.07345438003540039,2.5994606018066406
1761316242192790300,2.804790283203125,0.5674007534980774,0.6355102062225342,2.9409241676330566
1761316242211712800,2.823712646484375,0.7720345854759216,0.5444939732551575,2.6336679458618164
1761316242230635300,2.84263525390625,1.0726478099822998,-0.2948864996433258,2.009992837905884
1761316242249557800,2.861557861328125,1.0958600044250488,-0.3901786804199219,1.557965874671936
1761316242268480300,2.880480224609375,0.954067051410675,-0.5318952798843384,1.3850961923599243
1761316242287402800,2.89940283203125,0.9064210057258606,-1.0346225500106812,1.157250165939331
1761316242306325200,2.9183251953125,0.9833877086639404,-1.5746115446090698,0.7491278052330017
1761316242325247700,2.937247802734375,0.9601755142211914,-1.5862176418304443,0.46691638231277466
1761316242344170200,2.956170166015625,0.8465579152107239,-1.1830583810806274,0.5017346739768982
1761316242363092700,2.9750927734375,0.7702020406723022,-0.9594883322715759,0.653224766254425
1761316242382015200,2.99401513671875,0.7756996750831604,-0.9900307059288025,0.7338566184043884
1761316242400937700,3.012937744140625,0.7873057723045349,-1.1751173734664917,0.5829773545265198
1761316242419860000,3.03185986328125,0.7292752861976624,-1.5208569765090942,0.2011978179216385
1761316242438782500,3.050782470703125,0.7170583009719849,-1.9050798416137695,-0.2331145852804184
1761316242457705000,3.069705078125,0.6364265084266663,-1.939898133277893,-0.5794649720191956
1761316242476627500,3.08862744140625,0.31145575642585754,-1.4945905208587646,-0.7559998631477356
1761316242495550000,3.107550048828125,-0.11735902726650238,-0.8470924496650696,-0.6484907269477844
1761316242514472400,3.126472412109375,-0.33298811316490173,-0.3639122545719147,-0.5189911127090454
1761316242533395000,3.14539501953125,-0.43438875675201416,-0.111021488904953,-0.5464792251586914
1761316242552317400,3.1643173828125,-0.4710395932197571,0.09910997003316879,-0.5751890540122986
1761316242571240000,3.183239990234375,-0.43499961495399475,0.3190149664878845,-0.572745680809021
1761316242590162400,3.202162353515625,-0.40140300989151,0.49860408902168274,-0.5910710692405701
1761316242609085000,3.2210849609375,-0.3513135313987732,0.4143071472644806,-0.5757998824119568
1761316242628007400,3.24000732421875,-0.23647424578666687,-0.04016320779919624,-0.5159368515014648
1761316242646930000,3.258929931640625,-0.0623827762901783,-0.3993414044380188,-0.5061632990837097
1761316242665852400,3.277852294921875,0.23265644907951355,-0.4775298535823822,-0.650934100151062
1761316242684774700,3.296774658203125,0.4605024755001068,-0.5373928546905518,-0.7266791462898254
1761316242703697200,3.315697265625,0.5631248354911804,-0.4103366434574127,-0.5293754935264587
1761316242722619600,3.33461962890625,0.5783960223197937,-0.1391204595565796,-0.26304611563682556
1761316242741542100,3.353542236328125,0.5276956558227539,0.14797775447368622,-0.1671430766582489
1761316242760464600,3.372464599609375,0.5545729398727417,0.31351736187934875,-0.3003077805042267
1761316242779387100,3.39138720703125,0.4617241621017456,0.6947624087333679,-0.6588751077651978
1761316242798309600,3.4103095703125,0.15813308954238892,0.865799605846405,-0.3901023268699646
1761316242817232100,3.429232177734375,0.04879142343997955,0.4808894991874695,0.22990763187408447
1761316242836154600,3.448154541015625,-0.07398887723684311,0.511431872844696,0.3465794622898102
1761316242855077000,3.4670771484375,-0.34520506858825684,0.9164999723434448,0.05276193097233772
1761316242873999600,3.48599951171875,-0.6921663284301758,1.4949723482131958,-0.19524206221103668
1761316242892922000,3.504922119140625,-0.9725452065467834,1.7197641134262085,-0.43591588735580444
1761316242911844600,3.5238447265625,-0.5376219153404236,1.3850197792053223,-0.5477009415626526
1761316242930767000,3.54276708984375,0.1477486789226532,0.5530458092689514,-0.5886276960372925
1761316242949689300,3.561689453125,0.27419406175613403,0.48638713359832764,-0.544646680355072
1761316242968611800,3.58061181640625,0.1349208950996399,0.7992172837257385,-0.39437827467918396
1761316242987534300,3.599534423828125,-0.2193705290555954,0.6336776614189148,-0.502498209476471
1761316243006456800,3.618456787109375,-0.3897969126701355,0.150421142578125,-0.8268581032752991
1761316243025379300,3.63737939453125,-0.43744298815727234,0.17241163551807404,-0.8500702977180481
1761316243044301800,3.6563017578125,-0.5412870049476624,0.36482852697372437,-0.5733565092086792
1761316243063224300,3.675224365234375,-0.6286382079124451,0.4931064546108246,-0.35833826661109924
1761316243082146800,3.694146728515625,-0.6432985067367554,0.5909183621406555,-0.3736094534397125
1761316243101069300,3.7130693359375,-0.6292490363121033,0.6794912219047546,-0.5049416422843933
1761316243119991800,3.73199169921875,-0.5828246474266052,0.5854207277297974,-0.6417713761329651
1761316243138914000,3.7509140625,-0.5950415730476379,0.4796678125858307,-0.7236249446868896
1761316243157836800,3.7698369140625,-0.6707866191864014,0.3312319219112396,-0.7523347735404968
1761316243176759300,3.78875927734375,-0.6622347831726074,0.13453911244869232,-0.7816554307937622
1761316243195681500,3.807681640625,-0.6933879852294922,0.22127941250801086,-0.7236249446868896
1761316243214604000,3.82660400390625,-0.7453100085258484,0.5267030596733093,-0.4835619628429413
1761316243233526500,3.845526611328125,-0.7697439193725586,0.8370898365974426,-0.25082916021347046
1761316243252449000,3.864448974609375,-0.7318713665008545,1.1119710206985474,-0.15675868093967438
1761316243271371500,3.88337158203125,-0.6176429390907288,0.9794172048568726,-0.25143998861312866
1761316243290294000,3.9022939453125,-0.44782739877700806,0.5964159965515137,-0.42125552892684937
1761316243309216500,3.921216552734375,-0.2828986346721649,0.4136963188648224,-0.40598437190055847
1761316243328139000,3.940138916015625,-0.2334200143814087,0.4155288338661194,-0.16042375564575195
1761316243347061500,3.9590615234375,-0.22547899186611176,0.6239041090011597,0.06253548711538315
1761316243365984000,3.97798388671875,-0.2468586415052414,0.8584694862365723,0.1608818918466568
1761316243384906200,3.99690625,-0.2590755820274353,0.9653677344322205,0.22379916906356812
1761316243403828700,4.015828857421875,-0.22792237997055054,0.9012287855148315,0.4204919934272766
1761316243422751200,4.034751220703125,0.045737188309431076,0.8444199562072754,0.6379535794258118
1761316243441673700,4.053673828125,0.43973368406295776,0.7161420583724976,0.8077691197395325
1761316243460596200,4.07259619140625,0.7048413753509521,-0.009620844386518002,1.286138892173767
1761316243479518700,4.091518798828125,0.861218273639679,-0.6778877377510071,1.5145957469940186
1761316243498441200,4.110441162109375,0.977890133857727,-1.2441431283950806,1.7131211757659912
1761316243517363700,4.12936376953125,1.206423282623291,-1.4396142959594727,1.5365862846374512
1761316243536286200,4.1482861328125,1.254069447517395,-0.9130639433860779,1.3386718034744263
1761316243555208700,4.167208740234375,1.1447277069091797,-0.11407572776079178,1.4706147909164429
1761316243574131200,4.186131103515625,1.1038010120391846,0.7778376340866089,1.8255170583724976
1761316243593053700,4.2050537109375,1.1905412673950195,0.8810707926750183,2.1944687366485596
1761316243611976000,4.223975830078125,1.0133192539215088,0.14248012006282806,2.0784077644348145
1761316243630898400,4.2428984375,0.8795437216758728,-0.17943638563156128,1.652036428451538
1761316243649821000,4.261821044921875,0.8581640720367432,-0.4372139275074005,1.09792160987854
1761316243668743400,4.280743408203125,0.9210813045501709,-1.095096468925476,0.6575007438659668
1761316243687666000,4.299666015625,0.9687274098396301,-1.9038581848144531,0.23540526628494263
1761316243706588400,4.31858837890625,0.9015341997146606,-2.0266385078430176,-0.11705360561609268
1761316243725511000,4.337510986328125,0.8832087516784668,-1.871483325958252,-0.1946312040090561
1761316243744433400,4.356433349609375,0.888706386089325,-2.1922545433044434,-0.09994988143444061
1761316243763356000,4.37535595703125,0.782418966293335,-2.5868618488311768,-0.029091600328683853
1761316243782278400,4.3942783203125,0.546631932258606,-2.2069149017333984,-0.11033428460359573
1761316243801201000,4.413200927734375,0.2118876427412033,-1.6582975387573242,-0.3106921911239624
1761316243820123400,4.432123291015625,-0.05077667906880379,-1.3369919061660767,-0.4829511046409607
1761316243839045600,4.451045654296875,-0.16256172955036163,-0.9655967950820923,-0.5177693963050842
1761316243857968000,4.469968017578125,-0.1784437596797943,-0.48486000299453735,-0.47317755222320557
1761316243876890600,4.488890625,-0.10514208674430847,-0.1519482582807541,-0.3632250428199768
1761316243895813000,4.507813232421875,-0.07643226534128189,0.08322793990373611,-0.2477749139070511
1761316243914735600,4.526735595703125,-0.141182079911232,0.2939702570438385,-0.2984752357006073
1761316243933658000,4.545658203125,-0.2309766262769699,0.511431872844696,-0.44813281297683716
1761316243952580600,4.56458056640625,-0.3342097997665405,0.6361210346221924,-0.5397599339485168
1761316243971503000,4.583503173828125,-0.30549997091293335,0.34161633253097534,-0.6148941516876221
1761316243990425600,4.602425537109375,-0.09781191498041153,-0.22036315500736237,-0.6924717426300049
1761316244009348000,4.62134814453125,0.1996707022190094,-0.7597413063049316,-0.8152520060539246
1761316244028270600,4.6402705078125,0.4244624972343445,-1.1256388425827026,-0.8628981113433838
1761316244047192800,4.65919287109375,0.49348822236061096,-0.9918632507324219,-0.701634407043457
1761316244066115300,4.678115234375,0.4488963782787323,-0.5233433842658997,-0.47256672382354736
1761316244085037800,4.697037841796875,0.4470638334751129,-0.12018419802188873,-0.39559996128082275
1761316244103960300,4.715960205078125,0.4085804522037506,-0.031000498682260513,-0.6179483532905579
1761316244122882800,4.7348828125,0.3444415032863617,0.35200074315071106,-1.0376003980636597
1761316244141805300,4.753805419921875,0.20577916502952576,0.42224815487861633,-1.0913549661636353
1761316244160727800,4.772727783203125,-0.05810684710741043,-0.17882554233074188,-0.43774840235710144
1761316244179650300,4.791650390625,-0.044668205082416534,-0.26067906618118286,0.14255647361278534
1761316244198572800,4.81057275390625,-0.025731941685080528,0.4637857675552368,-0.25082916021347046
1761316244217495000,4.8294951171875,-0.7214869856834412,1.1327399015426636,-0.4279748499393463
1761316244236417500,4.84841748046875,-1.0690590143203735,1.2927818298339844,-0.7535564303398132
1761316244255340000,4.867340087890625,-0.5009710788726807,1.0777636766433716,-0.8537353873252869
1761316244274262500,4.886262451171875,0.13186664879322052,0.6709393858909607,-0.8885536789894104
1761316244293185000,4.90518505859375,0.5295282006263733,0.6422295570373535,-0.9154309630393982
1761316244312107500,4.924107421875,0.4617241621017456,0.9439880847930908,-0.44691112637519836
1761316244331030000,4.943030029296875,-0.06543701142072678,1.042945384979248,-0.4017084240913391
1761316244349952500,4.961952392578125,-0.2737359404563904,0.6568898558616638,-0.6344412565231323
1761316244368875000,4.980875,-0.3763582706451416,0.5817556381225586,-0.39621078968048096
1761316244387797500,4.999797607421875,-0.5107446908950806,0.6520031094551086,-0.08528954535722733
1761316244406719700,5.0187197265625,-0.5693860054016113,0.9391012787818909,0.04115583375096321
1761316244425642200,5.037642333984375,-0.5333459973335266,0.9513182640075684,-0.15920206904411316
1761316244444564700,5.056564697265625,-0.4814240038394928,0.6294017434120178,-0.5208236575126648
1761316244463487200,5.0754873046875,-0.48997586965560913,0.36666107177734375,-0.8256364464759827
1761316244482409700,5.09440966796875,-0.5076904296875,0.3092414140701294,-0.9056574106216431
1761316244501332200,5.113332275390625,-0.5364002585411072,0.41980478167533875,-0.7169055938720703
1761316244520254700,5.132254638671875,-0.5901548266410828,0.6165739297866821,-0.4524087607860565
1761316244539177200,5.15117724609375,-0.6573479771614075,0.8279271125793457,-0.23861220479011536
1761316244558099700,5.170099609375,-0.7300388216972351,0.842587411403656,-0.12438376992940903
1761316244577022200,5.189022216796875,-0.7544727325439453,0.7888329029083252,-0.15126104652881622
1761316244595944400,5.2079443359375,-0.7190435528755188,0.6984274983406067,-0.31435728073120117
1761316244614867000,5.226866943359375,-0.5987066626548767,0.41675055027008057,-0.5122717618942261
1761316244633789400,5.24578955078125,-0.4722612798213959,0.12904147803783417,-0.6411605477333069
1761316244652712000,5.2647119140625,-0.34276166558265686,0.07834116369485855,-0.6161158084869385
1761316244671634400,5.283634521484375,-0.18882815539836884,0.21272756159305573,-0.470734179019928
1761316244690557000,5.302556884765625,-0.07032378762960434,0.2970244884490967,-0.2465532273054123
1761316244709479400,5.3214794921875,-0.0361163429915905,0.4271349310874939,-0.00038177953683771193
1761316244728402000,5.34040185546875,-0.04772244393825531,0.6080220937728882,0.20486289262771606
1761316244747324200,5.35932421875,-0.043446511030197144,0.6318451166152954,0.2928248941898346
1761316244766246700,5.37824658203125,0.02008160389959812,0.5028799772262573,0.2121930718421936
1761316244785169200,5.397169189453125,0.19050799310207367,0.3574983477592468,0.09613208472728729
1761316244804091600,5.416091552734375,0.41468894481658936,-0.14889401197433472,0.29771167039871216
1761316244823014100,5.43501416015625,0.7152257561683655,-0.6943806409835815,0.5634302496910095
1761316244841936600,5.4539365234375,1.1215155124664307,-1.194664478302002,0.6434512138366699
1761316244860859100,5.472859130859375,1.4947432279586792,-1.154348611831665,0.7979955673217773
1761316244879781600,5.49178173828125,1.2852226495742798,-0.49646610021591187,1.3514995574951172
1761316244898704100,5.5107041015625,0.7830298542976379,0.19928891956806183,2.1908037662506104
1761316244917626600,5.529626708984375,0.5661790370941162,0.7173637747764587,2.855405569076538
1761316244936548900,5.548548828125,0.7830298542976379,0.8829033374786377,2.9861268997192383
1761316244955471400,5.567471435546875,0.9876636862754822,0.60252445936203,2.8248631954193115
1761316244974393900,5.586393798828125,0.9290223121643066,0.005650337319821119,2.375279664993286
1761316244993316400,5.60531640625,0.6969003677368164,-0.21181128919124603,1.595227599143982
1761316245012238800,5.62423876953125,0.7830298542976379,-0.8922951221466064,0.9940775632858276
1761316245031161300,5.643161376953125,0.8697701692581177,-1.6405830383300781,0.630623459815979
1761316245050083800,5.662083740234375,0.8129613399505615,-1.9374548196792603,0.26045000553131104
1761316245069006000,5.681006103515625,0.7372162938117981,-1.6234792470932007,0.10651648789644241
1761316245087928800,5.6999287109375,0.6889593601226807,-1.4102935791015625,0.15660595893859863
1761316245106851000,5.71885107421875,0.695067822933197,-1.362647533416748,0.26167169213294983
1761316245125773600,5.737773681640625,0.6559736132621765,-1.4023525714874268,0.2897706627845764
1761316245144696000,5.756696044921875,0.569844126701355,-1.3400461673736572,0.09613208472728729
1761316245163618600,5.77561865234375,0.29923880100250244,-1.1195303201675415,-0.2606027126312256
1761316245182541000,5.794541015625,-0.07093463838100433,-0.9698727130889893,-0.5348731279373169
1761316245201463600,5.813463623046875,-0.3751365840435028,-0.8409839868545532,-0.6649835705757141
1761316245220386000,5.832385986328125,-0.48997586965560913,-0.5734328627586365,-0.729733407497406
1761316245239308500,5.85130859375,-0.5064687132835388,-0.22280654311180115,-0.7095754742622375
1761316245258230800,5.870230712890625,-0.5107446908950806,0.03008422814309597,-0.6545991897583008
1761316245277153300,5.8891533203125,-0.5473955273628235,0.20356485247612,-0.6545991897583008
1761316245296075800,5.90807568359375,-0.6005392074584961,0.3727695345878601,-0.7407286763191223
1761316245314998300,5.926998291015625,-0.6243622303009033,0.5150969624519348,-0.8207496404647827
1761316245333920800,5.945920654296875,-0.5425087213516235,0.36605021357536316,-0.864119827747345
1761316245352843300,5.96484326171875,-0.2981698215007782,-0.033443886786699295,-0.8745042085647583
1761316245371765800,5.983765869140625,0.006032116711139679,-0.5538857579231262,-0.7517238855361938
1761316245390688300,6.002688232421875,0.2656421959400177,-0.931389331817627,-0.6222242712974548
1761316245409610500,6.021610595703125,0.4611133337020874,-0.7640172243118286,-0.44935452938079834
1761316245428533000,6.040532958984375,0.5606814026832581,0.001985253533348441,-0.08956547826528549
1761316245447455500,6.05945556640625,0.4977641701698303,0.6410078406333923,0.2262425571680069
1761316245466378000,6.0783779296875,0.44523128867149353,0.7656207084655762,0.38811707496643066
1761316245485300500,6.097300537109375,0.11964970827102661,0.8065474629402161,0.2922140657901764
1761316245504223000,6.116222900390625,0.20272493362426758,0.5860316157341003,0.5732038021087646
1761316245523145500,6.1351455078125,0.3022930324077606,1.232308030128479,0.1462215632200241
1761316245542067700,6.154067626953125,-0.24746949970722198,1.4338876008987427,-0.20929154753684998
1761316245560990200,6.172990234375,-0.9163472652435303,1.3098856210708618,-0.38460469245910645
1761316245579912700,6.19191259765625,-1.3848670721054077,1.485809564590454,-0.5812975168228149
1761316245598835200,6.210835205078125,-0.8167791366577148,1.3660835027694702,-0.9129875898361206
1761316245617757700,6.2297578125,0.12881241738796234,1.19932222366333,-0.4786751866340637
1761316245636680200,6.24868017578125,0.15630054473876953,1.24513578414917,-0.07857023179531097
1761316245655602700,6.267602783203125,-0.38613182306289673,0.893898606300354,-0.16408884525299072
1761316245674525200,6.286525146484375,-0.6408551335334778,0.4503471553325653,-0.3510081171989441
1761316245693447700,6.30544775390625,-0.5510605573654175,-0.06398624926805496,-0.5061632990837097
1761316245712370000,6.324369873046875,-0.4582118093967438,-0.11957334727048874,-0.595346987247467
1761316245731292400,6.34329248046875,-0.44904908537864685,0.23960483074188232,-0.6313869953155518
1761316245750215000,6.36221484375,-0.4692070484161377,0.3837648034095764,-0.6802547574043274
1761316245769137400,6.381137451171875,-0.47165045142173767,0.39598172903060913,-0.7242357730865479
1761316245788060000,6.400059814453125,-0.5107446908950806,0.4246915578842163,-0.6912500262260437
1761316245806982400,6.418982421875,-0.5919873714447021,0.36605021357536316,-0.6307761669158936
1761316245825904600,6.437904541015625,-0.6671215891838074,0.30191126465797424,-0.6723137497901917
1761316245844827100,6.4568271484375,-0.7538618445396423,0.2041756957769394,-0.8073109984397888
1761316245863749600,6.47574951171875,-0.8137248754501343,0.12232216447591782,-0.9276479482650757
1761316245882672000,6.494672119140625,-0.8436564207077026,0.279920756816864,-0.8812234997749329
1761316245901594600,6.5135947265625,-0.8460997939109802,0.45889899134635925,-0.7126296758651733
1761316245920517000,6.53251708984375,-0.8467106819152832,0.6214607357978821,-0.5690805912017822
1761316245939439600,6.551439697265625,-0.8399913311004639,0.6825454831123352,-0.5367056727409363
1761316245958362000,6.570362060546875,-0.8204442262649536,0.5309789776802063,-0.4689016342163086
1761316245977284400,6.589284423828125,-0.7343147397041321,0.4631749391555786,-0.3778853714466095
1761316245996206800,6.608206787109375,-0.5718293786048889,0.5340332388877869,-0.27648472785949707
1761316246015129300,6.62712939453125,-0.39651623368263245,0.5933617353439331,-0.06818582862615585
1761316246034051800,6.6460517578125,-0.2187596708536148,0.48577627539634705,0.14194563031196594
1761316246052974300,6.664974365234375,-0.05444176122546196,0.5585434436798096,0.2781645655632019
1761316246071896800,6.683896728515625,0.029855160042643547,0.7338566184043884,0.43026554584503174
1761316246090819300,6.7028193359375,0.15813308954238892,0.8028823733329773,0.6825454831123352
1761316246109741600,6.721741455078125,0.5020400881767273,0.5848098993301392,0.9617026448249817
1761316246128664000,6.7406640625,0.958953857421875,0.3892624080181122,1.22627592086792
1761316246147586600,6.759586669921875,1.2723948955535889,-0.8263236284255981,1.6654750108718872
1761316246166509000,6.778509033203125,1.7103723287582397,-1.7322101593017578,1.457787036895752
1761316246185431600,6.797431640625,2.1416304111480713,-1.3400461673736572,1.1920684576034546
1761316246204354000,6.81635400390625,1.6889926195144653,-0.36574479937553406,1.300188422203064
1761316246223276300,6.8352763671875,1.1306782960891724,0.28908345103263855,1.7082343101501465
1761316246242199000,6.854198974609375,1.0169843435287476,0.7051467895507812,2.1743109226226807
1761316246261121300,6.873121337890625,1.0934165716171265,0.5267030596733093,2.3874964714050293
1761316246280043800,6.892043701171875,0.9925504326820374,0.1766875684261322,2.0930681228637695
1761316246298966300,6.91096630859375,1.0090433359146118,-0.5037962794303894,1.4174710512161255
1761316246317888800,6.929888671875,1.0432507991790771,-1.1146435737609863,0.8395332098007202
1761316246336811300,6.948811279296875,1.0334771871566772,-1.487260341644287,0.40155571699142456
1761316246355733800,6.967733642578125,1.0585219860076904,-1.5495667457580566,0.07780666649341583
1761316246374656000,6.986656005859375,0.986441969871521,-1.7193822860717773,-0.2728196680545807
1761316246393578500,7.00557861328125,0.9058101177215576,-1.9234052896499634,-0.493946373462677
1761316246412501000,7.0245009765625,0.8813762664794922,-2.2252402305603027,-0.3870480954647064
1761316246431423500,7.043423583984375,0.9161945581436157,-2.5141708850860596,-0.13904410600662231
1761316246450346000,7.062345947265625,0.8716026544570923,-2.2533392906188965,-0.02970244735479355
1761316246469268500,7.0812685546875,0.486768901348114,-1.672347068786621,-0.3222982883453369
1761316246488190700,7.100190673828125,0.07444700598716736,-1.2227635383605957,-0.7914289832115173
1761316246507113200,7.11911328125,-0.1149156391620636,-0.8403730988502502,-0.9343672394752502
1761316246526035700,7.13803564453125,-0.11674818396568298,-0.30160582065582275,-0.8176954388618469
1761316246544958200,7.156958251953125,-0.0489441379904747,-0.0016798300202935934,-0.5947361588478088
1761316246563880700,7.175880615234375,-0.07154548168182373,0.04840964451432228,-0.4579063653945923
1761316246582803200,7.19480322265625,-0.16195088624954224,0.15469707548618317,-0.5776324272155762
1761316246601725700,7.2137255859375,-0.17538951337337494,0.1522536724805832,-0.8763367533683777
1761316246620648200,7.232648193359375,-0.06055023521184921,-0.05482354015111923,-1.008279800415039
1761316246639570400,7.2515703125,0.13919681310653687,-0.5441122055053711,-0.9013814926147461
1761316246658493000,7.270492919921875,0.39208757877349854,-1.1341906785964966,-0.8323557376861572
1761316246677415400,7.28941552734375,0.6639146208763123,-1.5636162757873535,-0.8024242520332336
1761316246696338000,7.308337890625,0.7573742270469666,-1.2288719415664673,-0.5776324272155762
1761316246715260400,7.327260498046875,0.6883485317230225,-0.510515570640564,-0.2752630412578583
1761316246734183000,7.346182861328125,0.6089383363723755,-0.030389651656150818,-0.1946312040090561
1761316246753105200,7.365105224609375,0.4531722962856293,-0.14400723576545715,-0.6155049800872803
1761316246772027600,7.384027587890625,0.17035003006458282,-0.029778804630041122,-1.1359468698501587
1761316246790950100,7.4029501953125,-0.26518407464027405,-0.2545706033706665,-0.8482377529144287
1761316246809872600,7.42187255859375,-0.48814332485198975,-0.5306735634803772,0.039323292672634125
1761316246828795100,7.440795166015625,-0.024510245770215988,-0.23868857324123383,0.35085538029670715
1761316246847717600,7.459717529296875,-0.015347537584602833,0.681323766708374,-0.01626380905508995
1761316246866640100,7.47864013671875,-0.6658998727798462,1.8040610551834106,-0.4524087607860565
1761316246885562400,7.497562255859375,-1.2743037939071655,2.4674410820007324,-0.8005917072296143
1761316246904484900,7.51648486328125,-0.9963682293891907,3.0404157638549805,-0.7272900342941284
1761316246923407400,7.535407470703125,-0.3531460762023926,1.8498746156692505,-0.21478916704654694
1761316246942329900,7.554329833984375,0.1990598440170288,1.1400700807571411,0.03321481868624687
1761316246961252400,7.57325244140625,0.2540360987186432,1.2860625982284546,0.37406760454177856
1761316246980174800,7.5921748046875,-0.1918824017047882,1.6556251049041748,0.2775537371635437
1761316246999097000,7.61109716796875,-0.4692070484161377,1.6482949256896973,-0.18791188299655914
1761316247018019600,7.63001953125,-0.4649311304092407,1.1186903715133667,-0.29236677289009094
1761316247036942000,7.648942138671875,-0.46126604080200195,0.6202390193939209,-0.19585290551185608
1761316247055864600,7.667864501953125,-0.4814240038394928,0.5408288836479187,-0.09933903813362122
1761316247074787000,7.686787109375,-0.49913856387138367,0.6941515803337097,-0.16469968855381012
1761316247093709600,7.70570947265625,-0.5137988924980164,0.5615977048873901,-0.3222982883453369
1761316247112631800,7.7246318359375,-0.4911975562572479,0.40453359484672546,-0.5153260231018066
1761316247131554600,7.743554443359375,-0.43683215975761414,0.4808894991874695,-0.5904602408409119
1761316247150476800,7.762476806640625,-0.45210331678390503,0.7405759692192078,-0.4798968732357025
1761316247169399300,7.7813994140625,-0.5070796012878418,0.8065474629402161,-0.3113030195236206
1761316247188321800,7.80032177734375,-0.5773270130157471,0.689875602722168,-0.2453315258026123
1761316247207244300,7.819244384765625,-0.6622347831726074,0.488219678401947,-0.2941993176937103
1761316247226166800,7.838166748046875,-0.7330930829048157,0.3446705639362335,-0.3858264088630676
1761316247245089300,7.85708935546875,-0.7966212034225464,0.37826716899871826,-0.47256672382354736
1761316247264011500,7.876011474609375,-0.8045622110366821,0.5285356044769287,-0.512882649898529
1761316247282934000,7.89493408203125,-0.7556943893432617,0.5359421372413635,-0.4951680600643158
1761316247301856500,7.9138564453125,-0.6787276864051819,0.40636613965034485,-0.4701233208179474
1761316247320779000,7.932779052734375,-0.5638883709907532,0.2939702570438385,-0.4713450074195862
1761316247339701500,7.951701416015625,-0.4142307937145233,0.15286453068256378,-0.43591588735580444
1761316247358623700,7.970623779296875,-0.2890070974826813,0.1113269105553627,-0.31802234053611755
1761316247377546200,7.989546142578125,-0.21142950654029846,0.2047865390777588,-0.18607935309410095
1761316247396468700,8.00846875,-0.18333053588867188,0.41797223687171936,-0.09506310522556305
1761316247415391200,8.02739111328125,-0.21326205134391785,0.7033142447471619,-0.011987877078354359
1761316247434313700,8.046313720703125,-0.26212984323501587,0.9922450184822083,0.2659476399421692
1761316247453236200,8.065236328125,-0.246247798204422,1.0588274002075195,0.7155312299728394
1761316247472158700,8.08415869140625,0.010918894782662392,0.9305494427680969,1.0301175117492676
1761316247491081000,8.1030810546875,0.4116346836090088,0.16019469499588013,1.051497220993042
1761316247510003500,8.12200341796875,0.9070318341255188,-0.9888089895248413,0.9061155319213867
1761316247528926000,8.140926025390625,1.3701304197311401,-1.6020996570587158,0.611687183380127
1761316247547848400,8.159848388671875,1.4373235702514648,-1.5300196409225464,0.5341095924377441
1761316247566771000,8.17877099609375,1.1465603113174438,-1.1531269550323486,0.8395332098007202
1761316247585693400,8.197693359375,0.9369633197784424,-0.5917583107948303,1.2256649732589722
1761316247604615700,8.21661572265625,0.9430717825889587,-0.0029015245381742716,1.6324893236160278
1761316247623538200,8.2355380859375,0.986441969871521,0.15347537398338318,1.9464647769927979
1761316247642460700,8.254460693359375,1.0298120975494385,-0.04932591691613197,2.1217780113220215
1761316247661383200,8.273383056640625,0.9797226190567017,-0.3229855000972748,2.013047218322754
1761316247680305700,8.2923056640625,0.8984799385070801,-0.6479562520980835,1.5500248670578003
1761316247699228200,8.311228271484374,0.9082534909248352,-1.181836724281311,0.8798491358757019
1761316247718150400,8.330150390625,0.8978691101074219,-1.6210359334945679,0.41499435901641846
1761316247737073000,8.349072998046875,0.9100860357284546,-1.8226155042648315,0.0942995473742485
1761316247755995400,8.367995361328125,0.8221240639686584,-1.7914623022079468,-0.0883437842130661
1761316247774918000,8.38691796875,0.778143048286438,-1.8940846920013428,-0.12071868777275085
1761316247793840400,8.40584033203125,0.7665369510650635,-2.286324977874756,-0.08040276914834976
1761316247812763000,8.424762939453124,0.6859050989151001,-2.576477289199829,-0.2337254285812378
1761316247831685000,8.44368505859375,0.5167004466056824,-2.373065233230591,-0.5812975168228149
1761316247850607600,8.462607666015625,0.25770118832588196,-1.8055118322372437,-0.7798228859901428
1761316247869530000,8.481530029296875,0.06467345356941223,-1.278961420059204,-0.6869741082191467
1761316247888452600,8.50045263671875,-0.012904148548841476,-0.6339067220687866,-0.42064470052719116
1761316247907375000,8.519375,-0.03855973482131958,-0.15561333298683167,-0.12316207587718964
1761316247926297600,8.538297607421875,-0.14423631131649017,0.058183200657367706,0.015500249341130257
1761316247945219800,8.5572197265625,-0.25357797741889954,0.1626380831003189,-0.19035527110099792
1761316247964142300,8.576142333984375,-0.27923354506492615,0.27503398060798645,-0.5147151947021484
1761316247983064800,8.59506494140625,-0.2987806797027588,0.5004366040229797,-0.6881957650184631
1761316248001987300,8.6139873046875,-0.2859528660774231,0.5872532725334167,-0.6961368322372437
1761316248020909800,8.632909912109374,-0.2468586415052414,0.3574983477592468,-0.7114079594612122
1761316248039832300,8.651832275390625,-0.0025197449140250683,-0.08047912269830704,-0.6973584890365601
1761316248058754600,8.670754638671875,0.44095537066459656,-0.6528429985046387,-0.5220453143119812
1761316248077677000,8.689677001953125,0.7427139282226562,-0.9142856597900391,-0.3235199749469757
1761316248096599600,8.708599609375,0.7256101965904236,-0.5508314967155457,-0.10911259055137634
1761316248115522000,8.72752197265625,0.6339830756187439,-0.07986827939748764,0.03443651273846626
1761316248134444500,8.746444580078125,0.5319716334342957,-0.03833066672086716,-0.049860406666994095
1761316248153367000,8.765366943359375,0.5002075433731079,-0.1892099380493164,-0.5513660311698914
1761316248172289300,8.784289306640625,0.32672691345214844,0.054518118500709534,-1.267279028892517
1761316248191211800,8.803211669921875,0.08544225990772247,0.8847358822822571,-1.343634843826294
1761316248210134300,8.82213427734375,-0.2975589632987976,1.2378056049346924,-0.7566106915473938
1761316248229056800,8.841056884765624,0.015194825828075409,0.6758261322975159,-0.07062921673059464
1761316248247979300,8.859979248046875,-0.06910209357738495,0.3703261613845825,0.19203510880470276
1761316248266901500,8.878901611328125,-0.8076164126396179,0.3336753249168396,0.6801020503044128
1761316248285824000,8.897823974609375,-1.326225757598877,1.7173206806182861,0.40033403038978577
1761316248304746500,8.91674658203125,-1.2895748615264893,3.1124958992004395,-0.20012883841991425
1761316248323669000,8.9356689453125,-0.4685961902141571,2.275635004043579,-0.5275429487228394
1761316248342591500,8.954591552734374,0.18439951539039612,1.4063994884490967,-0.33085015416145325
1761316248361514000,8.973513916015625,-0.12102411687374115,1.6379106044769287,0.5389963388442993
1761316248380436500,8.9924365234375,-0.7575269341468811,1.3624184131622314,0.32581067085266113
1761316248399358700,9.011358642578125,-0.8473215103149414,0.6721610426902771,-0.3009186387062073
1761316248418281200,9.03028125,-0.7086591720581055,0.2933593988418579,-0.46157145500183105
1761316248437203700,9.04920361328125,-0.5754944682121277,0.5144860744476318,-0.3668901324272156
1761316248456126200,9.068126220703125,-0.4838673770427704,0.6752153038978577,-0.2825932204723358
1761316248475048700,9.087048583984375,-0.4185067415237427,0.7625664472579956,-0.3009186387062073
1761316248493971000,9.105970947265625,-0.3916294574737549,0.6953732371330261,-0.417590469121933
1761316248512893400,9.1248935546875,-0.46432027220726013,0.5982485413551331,-0.4835619628429413
1761316248531816000,9.14381591796875,-0.5467846393585205,0.5285356044769287,-0.512882649898529
1761316248550738400,9.162738525390624,-0.562666654586792,0.5915291905403137,-0.4517979025840759
1761316248569661000,9.181660888671875,-0.5901548266410828,0.6611657738685608,-0.33146098256111145
1761316248588583200,9.200583251953125,-0.692777156829834,0.6312342882156372,-0.23616881668567657
1761316248607505700,9.219505615234375,-0.770965576171875,0.4289674758911133,-0.3650575876235962
1761316248626428200,9.23842822265625,-0.8149465918540955,0.254265159368515,-0.6026771664619446
1761316248645350700,9.2573505859375,-0.794788658618927,0.34405970573425293,-0.784709632396698
1761316248664273200,9.276273193359375,-0.7166001796722412,0.4674508571624756,-0.8464052081108093
1761316248683195600,9.295195556640625,-0.6976639032363892,0.5285356044769287,-0.7627191543579102
1761316248702118100,9.3141181640625,-0.6579588651657104,0.5016583204269409,-0.6625401973724365
1761316248721040400,9.333040283203125,-0.5522822737693787,0.36849361658096313,-0.6051205396652222
1761316248739963000,9.351962890625,-0.41117656230926514,0.22433365881443024,-0.4658474028110504
1761316248758885400,9.370885498046874,-0.2340308576822281,0.2017323076725006,-0.22456271946430206
1761316248777808000,9.389807861328125,-0.05199837312102318,0.3617742955684662,0.020997874438762665
1761316248796730400,9.40873046875,0.05184566229581833,0.5707604289054871,0.2549523711204529
1761316248815652600,9.427652587890625,0.08666395395994186,0.630623459815979,0.45225605368614197
1761316248834575000,9.4465751953125,0.2760266065597534,0.5506024360656738,0.43087637424468994
1761316248853497600,9.46549755859375,0.5692332983016968,-0.1104106456041336,0.38994961977005005
1761316248872420000,9.484420166015624,1.1270132064819336,-0.8470924496650696,0.2781645655632019
1761316248891342600,9.503342529296875,1.4684767723083496,-0.9845330715179443,0.35329878330230713
1761316248910264800,9.522264892578125,1.489856481552124,-0.5832064151763916,0.898785412311554
1761316248929187300,9.541187255859375,1.2827792167663574,-0.31504446268081665,1.6874655485153198
1761316248948109800,9.56010986328125,1.0047674179077148,0.32756683230400085,2.3325202465057373
1761316248967032300,9.5790322265625,0.9827768802642822,0.8975636959075928,2.765610933303833
1761316248985954800,9.597954833984375,1.105022668838501,0.35200074315071106,2.647106647491455
1761316249004877300,9.616877197265625,1.046915888786316,-0.687050461769104,2.08634877204895
1761316249023799600,9.635799560546875,1.0023239850997925,-1.2300937175750732,1.4718364477157593
1761316249042722000,9.65472216796875,1.0848647356033325,-1.0016367435455322,1.093645691871643
1761316249061644500,9.67364453125,1.1862653493881226,-1.0590564012527466,0.9940775632858276
1761316249080567000,9.692567138671874,1.1251806020736694,-1.4499987363815308,0.8767948746681213
1761316249099489500,9.711489501953125,1.0041565895080566,-1.6845639944076538,0.5762580037117004
1761316249118412000,9.730412109375,0.9595646858215332,-1.7676392793655396,0.3080960810184479
1761316249137334300,9.749334228515625,1.0072107315063477,-1.8684290647506714,0.19020256400108337
1761316249156256800,9.7682568359375,1.0475267171859741,-2.013199806213379,0.13095037639141083
1761316249175179300,9.78717919921875,0.9229138493537903,-1.8061226606369019,0.1468324065208435
1761316249194101800,9.806101806640624,0.6877376437187195,-1.4286190271377563,0.12606360018253326
1761316249213024300,9.825024169921875,0.4910448491573334,-1.4744325876235962,-0.03703261539340019
1761316249231946500,9.843946533203125,0.3303920030593872,-1.635696291923523,-0.2746522128582001
1761316249250869000,9.862868896484375,0.18439951539039612,-1.4603830575942993,-0.41087114810943604
1761316249269791500,9.88179150390625,0.008475505746901035,-0.9124531149864197,-0.4572955369949341
1761316249288714000,9.9007138671875,-0.18760646879673004,-0.44820916652679443,-0.4536304473876953
1761316249307636500,9.919636474609375,-0.3378748893737793,-0.19226416945457458,-0.4847836494445801
1761316249326559000,9.93855908203125,-0.3904077410697937,-0.041384901851415634,-0.5305972099304199
1761316249345481200,9.957481201171875,-0.3775799572467804,0.13148486614227295,-0.5177693963050842
1761316249364403700,9.97640380859375,-0.34581589698791504,0.3086305856704712,-0.5043307542800903
1761316249383326200,9.995326171875,-0.2743467688560486,0.28908345103263855,-0.5568636059761047
1761316249402248700,10.014248779296874,-0.11186140775680542,0.04840964451432228,-0.6393280029296875
1761316249421171200,10.033171142578125,0.08788564801216125,-0.37002071738243103,-0.6374954581260681
1761316249440093400,10.052093505859375,0.3810923397541046,-0.7298097610473633,-0.6093965172767639
1761316249459016000,10.071015869140625,0.5722874999046326,-0.7829535007476807,-0.5965687036514282
1761316249477938400,10.0899384765625,0.5991647839546204,-0.37857258319854736,-0.39559996128082275
1761316249496861000,10.10886083984375,0.5350258350372314,0.2805316150188446,-0.14759597182273865
1761316249515783400,10.127783447265625,0.27113983035087585,0.5285356044769287,-0.3522298038005829
1761316249534705700,10.14670556640625,0.03474193811416626,0.18646112084388733,-0.5929036140441895
1761316249553628200,10.165628173828125,-0.10514208674430847,0.045355409383773804,-0.48600533604621887
1761316249572550700,10.184550537109375,-0.09231429547071457,-0.15744587779045105,-0.17630578577518463
1761316249591473200,10.20347314453125,-0.3000023663043976,0.1247655525803566,-0.24288813769817352
1761316249610395600,10.222395751953124,-0.7471425533294678,0.8792382478713989,-0.5049416422843933
1761316249629318100,10.241318115234375,-1.076389193534851,2.162628412246704,-0.8225821852684021
1761316249648240400,10.260240478515625,-1.2791905403137207,2.7691996097564697,-1.0027821063995361
1761316249667163000,10.279162841796875,-0.9248991012573242,2.3019015789031982,-0.70224529504776
1761316249686085400,10.29808544921875,-0.19799086451530457,1.092423915863037,0.0130568603053689
1761316249705007900,10.3170078125,0.22227205336093903,1.1302964687347412,0.21585814654827118
1761316249723930400,10.335930419921874,0.15446799993515015,1.2903385162353516,0.4119401276111603
1761316249742852600,10.3548525390625,-0.26212984323501587,1.5811017751693726,0.08941277116537094
1761316249761775000,10.373775146484375,-0.48692160844802856,1.0588274002075195,-0.31680065393447876
1761316249780697600,10.392697509765625,-0.45027077198028564,0.22433365881443024,-0.4921138286590576
1761316249799620000,10.4116201171875,-0.4563792645931244,-0.060932014137506485,-0.5745782256126404
1761316249818542600,10.43054248046875,-0.47348299622535706,-0.009009997360408306,-0.6026771664619446
1761316249837464800,10.44946484375,-0.4429406225681305,0.05512896552681923,-0.6411605477333069
1761316249856387300,10.46838720703125,-0.3788016438484192,0.13392825424671173,-0.6772005558013916
1761316249875309800,10.487309814453125,-0.29022881388664246,0.27747735381126404,-0.6692595481872559
1761316249894232300,10.506232421875,-0.2987806797027588,0.37704548239707947,-0.5990120768547058
1761316249913154800,10.52515478515625,-0.3653630316257477,0.42957833409309387,-0.47317755222320557
1761316249932077300,10.544077392578124,-0.41117656230926514,0.5016583204269409,-0.35955995321273804
1761316249950999600,10.56299951171875,-0.4270585775375366,0.5377746820449829,-0.3546731770038605
1761316249969922000,10.581922119140625,-0.4557684063911438,0.4637857675552368,-0.39498910307884216
1761316249988844500,10.600844482421875,-0.4979168772697449,0.3764346241950989,-0.440802663564682
1761316250007767000,10.61976708984375,-0.539454460144043,0.43446511030197144,-0.4933355152606964
1761316250026689500,10.638689453125,-0.5736619234085083,0.5004366040229797,-0.5513660311698914
1761316250045611800,10.65761181640625,-0.5925981998443604,0.4265241026878357,-0.6008446216583252
1761316250064534300,10.6765341796875,-0.5846571922302246,0.22616620361804962,-0.59595787525177
1761316250083456800,10.695456787109375,-0.5455629825592041,0.15347537398338318,-0.5623612403869629
1761316250102379300,10.714379150390625,-0.47775891423225403,0.2011214643716812,-0.45912808179855347
1761316250121301800,10.7333017578125,-0.3897969126701355,0.2811424434185028,-0.28014981746673584
1761316250140224300,10.752224365234374,-0.3140518367290497,0.3495573401451111,-0.07918107509613037
1761316250159146500,10.771146484375,-0.25113457441329956,0.45950984954833984,0.02160872146487236
1761316250178069000,10.790069091796875,-0.2572430372238159,0.6807129383087158,0.09002361446619034
1761316250196991500,10.808991455078125,-0.2596864402294159,0.7986064553260803,0.24334627389907837
1761316250215914000,10.8279140625,-0.1808871477842331,0.7778376340866089,0.4791333079338074
1761316250234836500,10.84683642578125,0.13919681310653687,0.7973847389221191,0.5725929737091064
1761316250253758700,10.8657587890625,0.5081485509872437,0.2414373755455017,0.6061895489692688
1761316250272681200,10.88468115234375,0.8422819972038269,-0.7010999321937561,0.6110763549804688
1761316250291603700,10.903603759765625,1.0365314483642578,-1.3363810777664185,0.6232932806015015
1761316250310526200,10.922526123046875,1.1392301321029663,-1.4011309146881104,0.7937196493148804
1761316250329448700,10.94144873046875,1.0133192539215088,-1.052947998046875,1.1621369123458862
1761316250348371200,10.96037109375,0.8154047131538391,-0.533727765083313,1.5567442178726196
1761316250367293400,10.97929345703125,0.8661050796508789,0.16752485930919647,1.9464647769927979
1761316250386216000,10.9982158203125,1.0322555303573608,0.4784461259841919,2.1883602142333984
1761316250405138400,11.017138427734375,1.0169843435287476,0.3452814221382141,2.248223304748535
1761316250424061000,11.03606103515625,0.8832087516784668,-0.2032594233751297,2.036870241165161
1761316250442983400,11.0549833984375,0.7469898462295532,-0.3339807391166687,1.4089192152023315
1761316250461905700,11.07390576171875,0.754930853843689,-0.8501466512680054,0.81509929895401
1761316250480828200,11.092828125,0.7836406826972961,-1.3748644590377808,0.44187164306640625
1761316250499750700,11.111750732421875,0.7524874806404114,-1.6253118515014648,0.23235101997852325
1761316250518673200,11.130673095703125,0.6938461065292358,-1.6552433967590332,0.11690089106559753
1761316250537595600,11.149595703125,0.7103390097618103,-1.4982556104660034,0.15721681714057922
1761316250556518100,11.16851806640625,0.7390488386154175,-1.3919682502746582,0.20913882553577423
1761316250575440400,11.1874404296875,0.6663579940795898,-1.4127370119094849,0.12239851802587509
1761316250594363000,11.20636279296875,0.4348468780517578,-1.2911783456802368,-0.03092414326965809
1761316250613285400,11.225285400390625,0.19722731411457062,-1.1855018138885498,-0.2618243992328644
1761316250632208000,11.244207763671875,0.04146125912666321,-1.1219737529754639,-0.40964943170547485
1761316250651130400,11.26313037109375,-0.00862821750342846,-0.8141067028045654,-0.3901023268699646
1761316250670052600,11.282052490234374,-0.025731941685080528,-0.4524851143360138,-0.28137150406837463
1761316250688975000,11.30097509765625,-0.05322006717324257,-0.20753535628318787,-0.1146102175116539
1761316250707897600,11.319897705078125,-0.14912308752536774,0.06673506647348404,-0.008322793990373611
1761316250726820000,11.338820068359375,-0.25235626101493835,0.30068957805633545,-0.051082100719213486
1761316250745742600,11.35774267578125,-0.29145050048828125,0.4240806996822357,-0.14942851662635803
1761316250764664800,11.376664794921876,-0.2682383060455322,0.4228590130805969,-0.27953898906707764
1761316250783587300,11.39558740234375,-0.23586340248584747,0.3446705639362335,-0.4285857081413269
1761316250802509800,11.414509765625,-0.21387289464473724,0.1113269105553627,-0.5916818976402283
1761316250821432300,11.433432373046875,-0.1259108930826187,-0.2148655205965042,-0.7523347735404968
1761316250840354800,11.452354736328125,0.04512634128332138,-0.533727765083313,-0.817084550857544
1761316250859277300,11.47127734375,0.2778591513633728,-0.8373188972473145,-0.7669950723648071
1761316250878199600,11.490199462890626,0.4354577362537384,-0.9796462655067444,-0.6881957650184631
1761316250897122000,11.5091220703125,0.46661093831062317,-0.6803311109542847,-0.521434485912323
1761316250916044500,11.52804443359375,0.4586699306964874,-0.20020519196987152,-0.3106921911239624
1761316250934967000,11.546967041015625,0.3994177579879761,-0.011453386396169662,-0.26426780223846436
1761316250953889500,11.5658896484375,0.27175068855285645,-0.12812520563602448,-0.4255314767360687
1761316250972811800,11.584811767578126,0.12331479042768478,-0.0029015245381742716,-0.734620213508606
1761316250991734300,11.603734375,0.1330883502960205,0.16080553829669952,-0.5660263299942017
1761316251010656800,11.62265673828125,0.3029038906097412,-0.043828289955854416,-0.21478916704654694
1761316251029579300,11.641579345703125,0.32489439845085144,-0.0981936976313591,0.06742226332426071
1761316251048501800,11.660501708984375,0.2754157483577728,0.5921400785446167,-0.031534988433122635
1761316251067424000,11.679424072265626,0.0555107444524765,1.407621145248413,-0.3094705045223236
1761316251086346500,11.698346435546876,-0.4325562119483948,1.2341405153274536,-0.4524087607860565
1761316251105269000,11.71726904296875,-0.5504497289657593,-0.1501157134771347,-0.7327876687049866
1761316251124191500,11.73619140625,-0.06665870547294617,-0.4115583300590515,-0.6350520849227905
1761316251143114000,11.755114013671875,0.3426089584827423,0.23655059933662415,-0.47256672382354736
1761316251162036500,11.774036376953125,0.41896486282348633,0.44362783432006836,-0.22273017466068268
1761316251180958700,11.792958740234376,0.26075541973114014,0.5994702577590942,-0.39437827467918396
1761316251199881200,11.811881103515624,0.021303297951817513,0.2982461750507355,-0.90993332862854
1761316251218803700,11.8308037109375,-0.08070819079875946,-0.23196925222873688,-0.9496384263038635
1761316251237726200,11.849726318359375,-0.2059318870306015,0.2683146595954895,-0.5757998824119568
1761316251256648700,11.868648681640625,-0.22242476046085358,0.4906630516052246,-0.2697654068470001
1761316251275571000,11.887571044921875,-0.2688491642475128,0.70881187915802,-0.13843326270580292
1761316251294493400,11.906493408203126,-0.2328091561794281,0.5994702577590942,-0.2996969223022461
1761316251313416000,11.925416015625,-0.22670069336891174,0.2970244884490967,-0.6228351593017578
1761316251332338400,11.94433837890625,-0.2743467688560486,-0.008399149402976036,-0.9215394258499146
1761316251351261000,11.963260986328125,-0.3342097997665405,-0.021837789565324783,-1.0058363676071167
1761316251370183200,11.98218310546875,-0.39529454708099365,0.06368082761764526,-0.8653414845466614
1761316251389105700,12.001105712890626,-0.4417189359664917,0.23288552463054657,-0.6423822641372681
1761316251408028200,12.020028076171876,-0.5223507881164551,0.40636613965034485,-0.470734179019928
1761316251426950700,12.03895068359375,-0.5547256469726562,0.5615977048873901,-0.30519455671310425
1761316251445873200,12.057873046875,-0.5089121460914612,0.515707790851593,-0.19035527110099792
1761316251464795600,12.076795654296875,-0.47165045142173767,0.5701495409011841,-0.13598987460136414
1761316251483718000,12.0957177734375,-0.3806341886520386,0.5854207277297974,-0.09384141117334366
1761316251502640400,12.114640380859376,-0.2877854108810425,0.5340332388877869,-0.040697697550058365
1761316251521563000,12.13356298828125,-0.21204034984111786,0.4546230733394623,-0.004046862944960594
1761316251540485400,12.1524853515625,-0.09597937762737274,0.40331190824508667,0.047264307737350464
1761316251559407900,12.171407958984375,0.028633465990424156,0.4527905285358429,0.12972868978977203
1761316251578330000,12.190330078125,0.1220930963754654,0.5071559548377991,0.31359371542930603
1761316251597252600,12.209252685546875,0.17829103767871857,0.4906630516052246,0.5854207277297974
1761316251616175000,12.228175048828126,0.20944425463676453,0.41980478167533875,0.7564579844474792
1761316251635097600,12.24709765625,0.19356222450733185,0.3843756318092346,0.838311493396759
1761316251654020000,12.26602001953125,0.15446799993515015,0.29091599583625793,0.9012287855148315
1761316251672942300,12.2849423828125,0.1349208950996399,0.18707197904586792,0.9867473840713501
1761316251691864800,12.30386474609375,0.19417306780815125,0.08750387281179428,1.1493091583251953
1761316251710787300,12.322787353515626,0.39330926537513733,0.015423892997205257,1.4498459100723267
1761316251729709800,12.341709716796874,0.6278746128082275,-0.5074613690376282,1.628824234008789
1761316251748632300,12.36063232421875,0.8355627059936523,-1.074938416481018,1.6984608173370361
1761316251767554800,12.379554931640625,0.8221240639686584,-0.8324320912361145,1.7558804750442505
1761316251786477000,12.39847705078125,0.5783960223197937,-0.21120044589042664,1.8279603719711304
1761316251805399600,12.417399658203125,0.4495072364807129,0.08139539510011673,1.8487292528152466
1761316251824322000,12.436322021484376,0.5069268941879272,0.0850604772567749,1.807802438735962
1761316251843244500,12.45524462890625,0.4751628041267395,-0.2020377367734909,1.6135530471801758
1761316251862167000,12.4741669921875,0.28335678577423096,-0.4500417113304138,1.203674554824829
1761316251881089300,12.49308935546875,0.18256697058677673,-0.7120952010154724,0.7179746031761169
1761316251900011800,12.51201171875,0.1459161341190338,-0.9491039514541626,0.4204919934272766
1761316251918934300,12.530934326171876,-0.008017370477318764,-1.0498937368392944,0.24945475161075592
1761316251937856800,12.549856689453126,-0.19615831971168518,-0.9338327646255493,0.1468324065208435
1761316251956779300,12.568779296875,-0.37024980783462524,-0.7970029711723328,0.06192464008927345
1761316251975701500,12.587701416015625,-0.48692160844802856,-0.6540647149085999,0.0295497365295887
1761316251994624000,12.6066240234375,-0.5608341693878174,-0.5868715047836304,-0.10728005319833755
1761316252013546500,12.62554638671875,-0.6640673279762268,-0.4775298535823822,-0.22150848805904388
1761316252032469000,12.644468994140626,-0.5950415730476379,-0.3712424337863922,-0.37116608023643494
1761316252051391500,12.6633916015625,-0.5473955273628235,-0.17454960942268372,-0.6051205396652222
1761316252070314000,12.68231396484375,-0.5064687132835388,-0.10063708573579788,-0.7004127502441406
1761316252089236200,12.701236328125,-0.42217180132865906,-0.08047912269830704,-0.6539883613586426
1761316252108158700,12.72015869140625,-0.30488914251327515,-0.07559234648942947,-0.6112290620803833
1761316252127081200,12.739081298828125,-0.13690614700317383,0.021532366052269936,-0.5147151947021484
1761316252146003700,12.758003662109376,-0.007406522985547781,0.2548760175704956,-0.31313556432724
1761316252164926200,12.77692626953125,0.015194825828075409,0.37704548239707947,-0.13598987460136414
1761316252183848400,12.795848388671875,-0.027564482763409615,0.3220692276954651,-0.12499462068080902
1761316252202771000,12.81477099609375,-0.05810684710741043,0.15714046359062195,-0.19890713691711426
1761316252221693400,12.833693359375,-0.03855973482131958,0.08261708915233612,-0.30214032530784607
1761316252240616000,12.852615966796876,0.03596363216638565,0.03130592033267021,-0.3858264088630676
1761316252259538200,12.8715380859375,0.10376767814159393,0.19867807626724243,-0.2331145852804184
1761316252278460700,12.890460693359374,0.16546325385570526,0.256708562374115,-0.20257222652435303
1761316252297383200,12.909383056640625,0.14041851460933685,0.1901262104511261,-0.31680065393447876
1761316252316305700,12.9283056640625,0.08055548369884491,0.1907370537519455,-0.38460469245910645
1761316252335228200,12.947228271484375,0.054899897426366806,0.12965233623981476,-0.42369893193244934
1761316252354150400,12.966150390625,-0.004963133949786425,0.008093725889921188,-0.4023192822933197
1761316252373073000,12.985072998046874,-0.052609220147132874,-0.08231166750192642,-0.30336201190948486
1761316252391995400,13.003995361328125,-0.05444176122546196,-0.029778804630041122,-0.3100813329219818
