time,seconds_elapsed,z,y,x
1761316310672010800,0.2190107421875,0.13878893852233887,0.02295398712158203,-0.2638826370239258
1761316310690933200,0.237933349609375,0.1492069959640503,0.015532493591308594,-0.15304040908813477
1761316310709855700,0.256855712890625,0.10082435607910156,0.016613006591796875,-0.13538694381713867
1761316310728778200,0.2757783203125,0.11108803749084473,0.01992511749267578,-0.1061253547668457
1761316310747700700,0.29470068359375,0.15611815452575684,0.026922225952148438,-0.06874561309814453
1761316310766623000,0.313623046875,0.13438546657562256,0.05394172668457031,-0.07159900665283203
1761316310785545500,0.33254541015625,0.11065483093261719,0.04330158233642578,-0.09830570220947266
1761316310804468000,0.351468017578125,0.15741777420043945,0.02959728240966797,-0.1304035186767578
1761316310823390200,0.37039013671875,0.05334603786468506,0.3077535629272461,-0.15981769561767578
1761316310842312700,0.389312744140625,0.14873957633972168,0.08176136016845703,-0.7023324966430664
1761316310861235200,0.408235107421875,0.10522711277008057,0.3962593078613281,-0.637420654296875
1761316310880157700,0.42715771484375,-0.05921638011932373,-0.3379983901977539,0.3879995346069336
1761316310899080000,0.446079833984375,0.3767489194869995,-0.23308753967285156,0.15003204345703125
1761316310918002400,0.46500244140625,0.34878504276275635,-0.5521659851074219,0.13833189010620117
1761316310936925000,0.483925048828125,0.16087055206298828,-1.113144874572754,0.3429594039916992
1761316310955847400,0.502847412109375,0.08914220333099365,-0.9100103378295898,0.21034669876098633
1761316310974769700,0.521769775390625,0.09089577198028564,-1.2316312789916992,-0.14296865463256836
1761316310993692200,0.540692138671875,-0.020955801010131836,-1.0266733169555664,-0.6705451011657715
1761316311012614700,0.55961474609375,-0.41830360889434814,0.4655418395996094,-0.5165543556213379
1761316311031537200,0.578537109375,-0.3751556873321533,-0.1980724334716797,-0.4277644157409668
1761316311050459400,0.59745947265625,-0.27401483058929443,-0.3865804672241211,-0.2587876319885254
1761316311069382000,0.6163818359375,0.3643815517425537,0.7247314453125,-0.07626533508300781
1761316311088304400,0.635304443359375,0.24213051795959473,0.9144248962402344,0.10969161987304688
1761316311107227000,0.654226806640625,0.23903381824493408,1.3678407669067383,0.6930608749389648
1761316311126149000,0.673149169921875,0.22718751430511475,1.8023700714111328,0.3380866050720215
1761316311145071600,0.692071533203125,0.12425756454467773,1.812087059020996,0.2262287139892578
1761316311163994000,0.710994140625,-0.06553769111633301,1.4787135124206543,0.38155078887939453
1761316311182916600,0.72991650390625,-0.08720862865447998,0.1883687973022461,0.05590629577636719
1761316311201838800,0.7488388671875,-0.1339777708053589,0.02691173553466797,-0.09385490417480469
1761316311220761300,0.76776123046875,-0.009250760078430176,0.019771575927734375,0.09923028945922852
1761316311239683800,0.786683837890625,0.024190306663513184,0.060092926025390625,-0.19533205032348633
1761316311258606300,0.8056064453125,0.1966928243637085,-0.14059162139892578,-0.23117399215698242
1761316311277528600,0.824528564453125,0.13821923732757568,-0.1969442367553711,-0.1355304718017578
1761316311296451000,0.843451171875,0.20642220973968506,-0.13395023345947266,0.08473587036132812
1761316311315373600,0.86237353515625,0.1519697904586792,-0.011835098266601562,0.11108016967773438
1761316311334296000,0.881296142578125,0.19982576370239258,0.03200054168701172,0.09390544891357422
1761316311353218300,0.90021826171875,0.09547817707061768,-0.002407073974609375,0.000736236572265625
1761316311372140800,0.919140869140625,0.057047128677368164,-0.0003337860107421875,0.023374557495117188
1761316311391063300,0.938063232421875,-0.20970261096954346,0.1951923370361328,0.05526399612426758
1761316311409985500,0.956985595703125,0.06913447380065918,0.02373790740966797,0.042818546295166016
1761316311428908000,0.975907958984375,0.3365204334259033,-0.03275775909423828,-0.0841817855834961
1761316311447830500,0.99483056640625,0.2510650157928467,0.15410995483398438,-0.13025522232055664
1761316311466753000,1.0137529296875,0.2632066011428833,0.18758392333984375,0.015892982482910156
1761316311485675500,1.032675537109375,-0.061255455017089844,-0.2898235321044922,-0.17266321182250977
1761316311504597800,1.05159765625,0.13914692401885986,0.03997039794921875,0.0511631965637207
1761316311523520300,1.070520263671875,0.2958914041519165,0.052285194396972656,0.10629749298095703
1761316311542442800,1.08944287109375,0.4846336841583252,0.09981822967529297,-0.06224393844604492
1761316311561365000,1.108364990234375,0.5964540243148804,0.2541637420654297,-0.16691923141479492
1761316311580287500,1.12728759765625,0.4884183406829834,0.1769237518310547,-0.1690196990966797
1761316311599210000,1.1462099609375,0.4515284299850464,0.6345424652099609,0.19759845733642578
1761316311618132500,1.165132568359375,0.2527475357055664,0.575101375579834,0.15949535369873047
1761316311637054700,1.1840546875,0.35585176944732666,0.5542383193969727,0.014402389526367188
1761316311655977200,1.202977294921875,0.3156775236129761,0.6523151397705078,-0.138641357421875
1761316311674899700,1.221899658203125,0.326610803604126,0.08511638641357422,0.07130908966064453
1761316311693822000,1.240822021484375,0.49422192573547363,-0.3269214630126953,0.2738199234008789
1761316311712744400,1.259744384765625,0.4725813865661621,-0.5087690353393555,0.2223215103149414
1761316311731667000,1.2786669921875,0.4124569892883301,0.09928512573242188,0.1672372817993164
1761316311750589400,1.29758935546875,0.24259650707244873,0.435030460357666,0.2873959541320801
1761316311769511700,1.31651171875,0.1537933349609375,0.9924607276916504,0.42017173767089844
1761316311788434200,1.33543408203125,0.8715070486068726,0.27884721755981445,-0.1593308448791504
1761316311807356700,1.354356689453125,0.6144692897796631,-0.10425949096679688,-0.3495802879333496
1761316311826279200,1.373279052734375,-0.6358599662780762,-0.5129280090332031,-0.9150552749633789
1761316311845201400,1.392201416015625,-0.9090633392333984,-0.4347982406616211,-0.9474625587463379
1761316311864124000,1.4111240234375,-0.8064428567886353,0.3628363609313965,-0.5164341926574707
1761316311883046400,1.43004638671875,-0.7799453735351562,0.0495758056640625,-0.23562192916870117
1761316311901969000,1.448968994140625,-0.10442078113555908,-0.13268566131591797,-0.30045175552368164
1761316311920891100,1.46789111328125,0.5213764905929565,0.1838669776916504,-0.10303831100463867
1761316311939813600,1.486813720703125,0.30366432666778564,0.7621722221374512,0.14828252792358398
1761316311958736100,1.505736083984375,0.2450580596923828,1.326338768005371,0.21123123168945312
1761316311977658400,1.524658447265625,0.29752349853515625,0.8054723739624023,0.07057619094848633
1761316311996580900,1.543580810546875,0.25359392166137695,-0.42236804962158203,0.1313619613647461
1761316312015503400,1.56250341796875,0.21096301078796387,-0.12622737884521484,-0.625190258026123
1761316312034425900,1.58142578125,-0.021150827407836914,-0.33263683319091797,-1.2511582374572754
1761316312053348000,1.60034814453125,-0.18627208471298218,0.21996355056762695,-1.147700309753418
1761316312072270600,1.6192705078125,-0.26155054569244385,0.40739870071411133,-0.7548613548278809
1761316312091193000,1.638193115234375,-0.13555997610092163,0.6217904090881348,-0.4133014678955078
1761316312110115300,1.657115234375,0.04587334394454956,0.6578478813171387,-0.10359430313110352
1761316312129037800,1.676037841796875,0.09293615818023682,0.4452533721923828,0.04576539993286133
1761316312147960300,1.694960205078125,0.3188418745994568,0.2735443115234375,0.24811077117919922
1761316312166882800,1.7138828125,0.49401697516441345,0.3490419387817383,0.5359630584716797
1761316312185805300,1.732805419921875,0.7408340573310852,0.4173736572265625,0.09500646591186523
1761316312204727600,1.7517275390625,0.43346962332725525,0.5346875190734863,-0.48627567291259766
1761316312223650000,1.770650146484375,0.3239471912384033,0.5745282173156738,-1.1337785720825195
1761316312242572500,1.789572509765625,0.5596403479576111,0.5467724800109863,-1.105687141418457
1761316312261494800,1.808494873046875,0.5517351627349854,0.6108999252319336,-0.8778119087219238
1761316312280417300,1.827417236328125,0.4502159357070923,0.573725700378418,-0.7570853233337402
1761316312299339800,1.84633984375,0.572740912437439,0.6509203910827637,-0.8728537559509277
1761316312318262300,1.86526220703125,0.6156187057495117,0.8394699096679688,-1.2196869850158691
1761316312337184500,1.8841845703125,0.5248316526412964,0.9527912139892578,-1.704519271850586
1761316312356107000,1.90310693359375,0.5866644978523254,0.5737600326538086,-2.0840048789978027
1761316312375029500,1.922029541015625,0.7384588122367859,0.6803889274597168,-1.6474294662475586
1761316312393951700,1.94095166015625,0.6945013999938965,0.8121967315673828,-1.7733216285705566
1761316312412874200,1.959874267578125,-0.11315643787384033,0.6351041793823242,-2.6293487548828125
1761316312431796700,1.978796630859375,-0.3899798095226288,0.8209176063537598,-3.4762659072875977
1761316312450719200,1.99771923828125,0.21105259656906128,0.5860061645507812,-3.5072240829467773
1761316312469641500,2.016641357421875,-0.1255115568637848,-0.27756690979003906,-3.542562484741211
1761316312488564000,2.03556396484375,0.46627694368362427,-1.264657974243164,-2.90643310546875
1761316312507486500,2.054486572265625,1.6438891887664795,-2.6653528213500977,-2.1108832359313965
1761316312526409000,2.073408935546875,2.0560431480407715,-3.4023618698120117,-0.03188610076904297
1761316312545331200,2.092331298828125,2.863201379776001,-3.377182960510254,1.5095410346984863
1761316312564253700,2.111253662109375,1.739027738571167,-2.8919477462768555,2.2580173015594482
1761316312583176200,2.13017626953125,-0.028322339057922363,-2.0758962631225586,1.985537052154541
1761316312602098400,2.149098388671875,-1.6749297380447388,-1.606245517730713,-0.5746922492980957
1761316312621021000,2.16802099609375,-2.545975923538208,-0.44691944122314453,-0.7557263374328613
1761316312639943400,2.186943359375,-1.8913077116012573,0.7652006149291992,-0.8603830337524414
1761316312658866000,2.205865966796875,-1.1208535432815552,0.08717775344848633,-1.3190398216247559
1761316312677788200,2.2247880859375,-1.4869691133499146,-0.8483891487121582,-0.3684120178222656
1761316312696710700,2.243710693359375,-2.543713092803955,-0.8337349891662598,1.0384550094604492
1761316312715633200,2.262633056640625,-2.9209961891174316,-0.6398024559020996,1.8299012184143066
1761316312734555400,2.281555419921875,-2.4125773906707764,-0.7642498016357422,2.13427734375
1761316312753478000,2.300477783203125,-1.8336955308914185,-1.2415876388549805,2.3765082359313965
1761316312772400400,2.319400390625,-1.128718614578247,-1.7135672569274902,2.4835519790649414
1761316312791323000,2.338322998046875,-1.2660541534423828,-1.6789298057556152,2.49350643157959
1761316312810245000,2.3572451171875,-1.723637580871582,-1.2321019172668457,2.1962852478027344
1761316312829167600,2.376167724609375,-2.006786346435547,-0.7892007827758789,2.0312838554382324
1761316312848090000,2.395090087890625,-2.007756233215332,0.11304283142089844,1.9965229034423828
1761316312867012600,2.4140126953125,-2.0302634239196777,0.6692562103271484,2.190309524536133
1761316312885934800,2.432934814453125,-1.629288673400879,1.0546598434448242,2.5159709453582764
1761316312904857300,2.451857421875,-1.1819570064544678,1.1679654121398926,2.5948357582092285
1761316312923779800,2.47077978515625,-0.9345991611480713,1.367873191833496,2.4755094051361084
1761316312942702300,2.489702392578125,-0.8147740364074707,1.6500849723815918,2.1371498107910156
1761316312961624600,2.50862451171875,-0.5475008487701416,1.9066014289855957,1.7535820007324219
1761316312980547000,2.527547119140625,0.21056079864501953,2.0275111198425293,1.150700569152832
1761316312999469600,2.546469482421875,1.1659841537475586,1.912130355834961,-0.13646316528320312
1761316313018391800,2.565391845703125,2.0138580799102783,1.4506287574768066,-1.9525866508483887
1761316313037314300,2.584314208984375,3.127650737762451,0.9956393241882324,-4.013195991516113
1761316313056236800,2.60323681640625,4.104059219360352,0.22075986862182617,-4.952512264251709
1761316313075159300,2.6221591796875,4.379277229309082,-0.43927907943725586,-4.050769329071045
1761316313094081500,2.64108154296875,3.4758849143981934,0.19825124740600586,-2.047913074493408
1761316313113004000,2.660004150390625,2.1117148399353027,1.9265003204345703,-0.0283660888671875
1761316313131926500,2.678926513671875,1.4207627773284912,3.858266592025757,0.8300399780273438
1761316313150848800,2.697848876953125,0.9188764095306396,4.349392890930176,1.3881568908691406
1761316313169771300,2.716771240234375,-0.01958775520324707,0.9642300605773926,0.11607742309570312
1761316313188693800,2.73569384765625,1.1089484691619873,-3.5608839988708496,-0.8514461517333984
1761316313207616300,2.7546162109375,4.316339492797852,-8.818929672241211,-3.3079833984375
1761316313226538500,2.77353857421875,1.8123035430908203,-11.368547439575195,-2.8836679458618164
1761316313245461000,2.7924609375,-4.160170555114746,-3.1174354553222656,0.9279589653015137
1761316313264383500,2.811383544921875,-3.5689263343811035,2.062774658203125,5.546098232269287
1761316313283306000,2.830305908203125,-4.184157371520996,3.1481475830078125,7.095273971557617
1761316313302228200,2.849228271484375,-6.103390216827393,0.6840472221374512,3.702810287475586
1761316313321150700,2.868150634765625,-6.942309379577637,-3.0018763542175293,0.5076022148132324
1761316313340073200,2.8870732421875,-6.980346202850342,-4.336977481842041,-0.5420651435852051
1761316313358995500,2.905995361328125,-4.585080146789551,-2.490713119506836,-1.59321928024292
1761316313377918000,2.92491796875,-1.5213488340377808,-1.6686244010925293,-0.6017608642578125
1761316313396840400,2.94384033203125,0.12317419052124023,-1.9714546203613281,0.752314567565918
1761316313415763000,2.962762939453125,0.35708749294281006,-2.858471393585205,1.6950454711914062
1761316313434685200,2.981685302734375,0.46218836307525635,-2.325697422027588,2.057194232940674
1761316313453607700,3.000607666015625,0.09268510341644287,-0.838231086730957,1.1456217765808105
1761316313472530200,3.0195302734375,-1.192373275756836,0.49333810806274414,0.6260828971862793
1761316313491452400,3.038452392578125,-1.4828660488128662,0.9899263381958008,-0.038561344146728516
1761316313510375000,3.057375,-1.5878100395202637,0.716097354888916,-0.2844271659851074
1761316313529297400,3.07629736328125,-1.0658690929412842,0.5596213340759277,-0.4941740036010742
1761316313548220000,3.095219970703125,-0.3688790202140808,0.694796085357666,0.038197994232177734
1761316313567142100,3.11414208984375,0.19882556796073914,0.7866611480712891,0.27860403060913086
1761316313586064600,3.133064697265625,0.3778466284275055,0.9790043830871582,0.3429684638977051
1761316313604987100,3.151987060546875,0.21567855775356293,1.150780200958252,0.42360353469848633
1761316313623909600,3.17090966796875,0.18804830312728882,1.2749390602111816,0.23677396774291992
1761316313642832000,3.189831787109375,0.3818959593772888,1.56077241897583,-0.05159807205200195
1761316313661754400,3.20875439453125,0.6681817770004272,1.6105518341064453,-0.21215534210205078
1761316313680676900,3.2276767578125,1.1912508010864258,1.3198132514953613,-0.11219215393066406
1761316313699599000,3.24659912109375,1.095031499862671,1.0393705368041992,0.05714702606201172
1761316313718521600,3.265521484375,1.1825647354125977,0.6957526206970215,-0.06382608413696289
1761316313737444000,3.284444091796875,1.4404817819595337,0.4832034111022949,-0.641181468963623
1761316313756366600,3.30336669921875,0.2794143855571747,0.5313544273376465,-1.2953290939331055
1761316313775288800,3.322288818359375,0.06271010637283325,0.9036865234375,-2.3889598846435547
1761316313794211300,3.34121142578125,0.31517139077186584,1.3915767669677734,-3.1459522247314453
1761316313813133800,3.3601337890625,0.7825010418891907,1.1595592498779297,-3.014376163482666
1761316313832056000,3.37905615234375,1.029872179031372,0.02159404754638672,-2.5562071800231934
1761316313850978600,3.397978515625,1.9577864408493042,-0.5274076461791992,-2.70064115524292
1761316313869901000,3.416901123046875,2.197181224822998,-0.7381410598754883,-2.370389461517334
1761316313888823600,3.435823486328125,2.057746410369873,-1.468308448791504,-3.4115638732910156
1761316313907745800,3.454745849609375,1.2271981239318848,-2.8356380462646484,-4.455308437347412
1761316313926668300,3.473668212890625,-0.1841737926006317,-3.339662551879883,-3.690095901489258
1761316313945590800,3.4925908203125,-0.2188282012939453,-4.370490550994873,-0.0488896369934082
1761316313964513300,3.51151318359375,0.2283099889755249,-5.225610733032227,2.002373218536377
1761316313983435500,3.530435546875,0.2006906270980835,-4.632198810577393,2.144528388977051
1761316314002358000,3.54935791015625,0.40566229820251465,-2.708071708679199,1.9054007530212402
1761316314021280500,3.568280517578125,0.8573836088180542,-2.222628116607666,0.9422383308410645
1761316314040202800,3.58720263671875,0.03926849365234375,-2.136878490447998,-0.3287849426269531
1761316314059125200,3.606125244140625,-1.4513428211212158,-1.4033699035644531,-0.8779664039611816
1761316314078047700,3.6250478515625,-1.430809736251831,-0.9090213775634766,-0.25058841705322266
1761316314096970200,3.64397021484375,-1.5806564092636108,-0.6058850288391113,0.7726430892944336
1761316314115892500,3.662892578125,-1.9052189588546753,-0.518002986907959,1.0224571228027344
1761316314134815000,3.68181494140625,-2.3541998863220215,-0.6297597885131836,1.0205116271972656
1761316314153737500,3.700737548828125,-1.9654111862182617,-0.6590580940246582,1.5359230041503906
1761316314172659700,3.71965966796875,-2.248821973800659,-0.44645261764526367,2.0475730895996094
1761316314191582200,3.738582275390625,-2.710336685180664,-0.5226268768310547,3.1108851432800293
1761316314210504700,3.757504638671875,-2.720789909362793,-0.14778566360473633,4.549162864685059
1761316314229427200,3.77642724609375,-2.6944611072540283,0.32872819900512695,4.963873386383057
1761316314248349400,3.795349365234375,-2.5255324840545654,0.47643327713012695,4.799571514129639
1761316314267272000,3.81427197265625,-1.8172860145568848,0.2871994972229004,3.934093952178955
1761316314286194400,3.8331943359375,-1.1148090362548828,0.424405574798584,3.04608416557312
1761316314305117000,3.852116943359375,-0.8413052558898926,1.2715153694152832,2.646427631378174
1761316314324039200,3.8710390625,-0.6672203540802002,2.299976348876953,2.107175827026367
1761316314342961700,3.889961669921875,0.16740751266479492,2.865419387817383,1.0347490310668945
1761316314361884200,3.90888427734375,1.5559418201446533,2.71895432472229,-0.2188739776611328
1761316314380806400,3.927806396484375,2.665576696395874,2.008845329284668,-1.8744964599609375
1761316314399729000,3.94672900390625,3.650259494781494,0.8187341690063477,-4.26031494140625
1761316314418651400,3.9656513671875,3.7756824493408203,-0.48801755905151367,-5.22956657409668
1761316314437574000,3.984573974609375,3.5397818088531494,-0.8155360221862793,-3.6908016204833984
1761316314456496000,4.00349609375,3.363473892211914,0.22326898574829102,-1.4239468574523926
1761316314475418600,4.022418701171875,2.5946075916290283,1.4969496726989746,0.9203286170959473
1761316314494341000,4.041341064453125,1.594709873199463,2.5476455688476562,2.1677517890930176
1761316314513263400,4.060263427734375,1.4444642066955566,1.013425350189209,0.6696810722351074
1761316314532185900,4.079185791015625,1.5312089920043945,-2.5179390907287598,-1.608792781829834
1761316314551108400,4.0981083984375,1.8294546604156494,-4.142828464508057,-1.1946592330932617
1761316314570030800,4.11703076171875,2.607409715652466,-5.34895133972168,-0.9296584129333496
1761316314588953000,4.135953125,-0.23749876022338867,-4.298423767089844,-0.29516029357910156
1761316314607875600,4.15487548828125,-2.079455852508545,-2.840212821960449,1.75850248336792
1761316314626798000,4.173798095703125,-3.171804666519165,0.010483741760253906,3.868452787399292
1761316314645720600,4.192720458984375,-5.686603546142578,1.0817632675170898,4.38419246673584
1761316314664642800,4.211642822265625,-5.567026138305664,-1.1653108596801758,2.404323101043701
1761316314683565300,4.2305654296875,-5.594747543334961,-1.8930120468139648,0.8579072952270508
1761316314702487800,4.24948779296875,-5.829263687133789,-1.009450912475586,-0.05524444580078125
1761316314721410000,4.26841015625,-3.2189459800720215,-0.21985960006713867,-0.8425726890563965
1761316314740332500,4.28733251953125,-1.8556662797927856,0.02135467529296875,-0.7917470932006836
1761316314759255000,4.306255126953125,-0.023120880126953125,-0.3698267936706543,-0.24399185180664062
1761316314778177500,4.325177490234375,1.484013319015503,-1.3441715240478516,0.9740662574768066
1761316314797099800,4.344099853515625,0.39429616928100586,-1.7252297401428223,2.405596971511841
1761316314816022300,4.363022216796875,-0.6251424551010132,-1.155517578125,2.176413059234619
1761316314834944800,4.38194482421875,-1.39650559425354,-0.08997011184692383,1.7800588607788086
1761316314853867000,4.400866943359375,-1.584714412689209,0.3747129440307617,0.889033317565918
1761316314872789500,4.41978955078125,-1.5163795948028564,0.13988828659057617,-0.04529380798339844
1761316314891712000,4.4387119140625,-0.8415579795837402,-0.04211282730102539,-0.686556339263916
1761316314910634500,4.457634521484375,-0.4740101993083954,0.159637451171875,-0.6053295135498047
1761316314929556700,4.476556640625,-0.14579904079437256,0.5062808990478516,-0.5061554908752441
1761316314948479200,4.495479248046875,0.02927297353744507,0.8001623153686523,-0.32602739334106445
1761316314967401700,4.514401611328125,0.36961618065834045,0.9299354553222656,-0.32567262649536133
1761316314986324200,4.53332421875,0.6195183396339417,0.8833103179931641,-0.6118001937866211
1761316315005246500,4.55224658203125,0.7809808254241943,0.9235501289367676,-0.6562108993530273
1761316315024169000,4.5711689453125,1.0209174156188965,1.303368091583252,-0.4345712661743164
1761316315043091500,4.590091552734375,1.071972131729126,1.81028413772583,-0.1800236701965332
1761316315062013700,4.609013671875,0.6740198135375977,1.9846158027648926,0.15042543411254883
1761316315080936200,4.627936279296875,0.8200993537902832,1.8557825088500977,0.29108428955078125
1761316315099858700,4.646858642578125,0.9640969038009644,1.5329585075378418,-0.24782991409301758
1761316315118781200,4.66578125,0.5887095332145691,1.0741949081420898,-1.4596052169799805
1761316315137703400,4.684703369140625,0.35559606552124023,0.9480447769165039,-2.651365280151367
1761316315156626000,4.7036259765625,0.42445361614227295,1.247572898864746,-2.8999905586242676
1761316315175548400,4.72254833984375,0.60016268491745,0.9126067161560059,-2.2786245346069336
1761316315194470700,4.741470703125,0.5483311414718628,0.6053948402404785,-1.7529044151306152
1761316315213393200,4.76039306640625,0.5318323373794556,0.21175670623779297,-2.247493267059326
1761316315232315600,4.779315673828125,1.6389468908309937,0.03816032409667969,-2.89682674407959
1761316315251238100,4.798238037109375,1.91743803024292,-0.5265827178955078,-3.1157751083374023
1761316315270160400,4.817160400390625,1.5620838403701782,-1.048025131225586,-3.785494804382324
1761316315289083000,4.836082763671875,1.7700345516204834,-1.9491462707519531,-4.121516227722168
1761316315308005400,4.85500537109375,0.5331275463104248,-3.0415968894958496,-2.2572035789489746
1761316315326927600,4.873927734375,-0.12493747472763062,-3.843020439147949,0.12926101684570312
1761316315345850000,4.89285009765625,-0.658076822757721,-4.867746829986572,2.0356082916259766
1761316315364772600,4.911772705078125,-0.7055678367614746,-4.737465858459473,1.687143325805664
1761316315383695000,4.930695068359375,-0.09702146053314209,-3.619814872741699,0.43221616744995117
1761316315402617300,4.949617431640625,0.23053455352783203,-1.651869297027588,0.31629419326782227
1761316315421539800,4.968539794921875,0.4764735698699951,-0.9027857780456543,-0.6949672698974609
1761316315440462300,4.98746240234375,0.7494673728942871,-1.0481820106506348,-1.567155361175537
1761316315459384600,5.006384521484375,-0.501253604888916,-0.9306654930114746,-1.5072250366210938
1761316315478307000,5.02530712890625,-1.7934353351593018,-0.3236427307128906,-0.7551465034484863
1761316315497229600,5.0442294921875,-2.360363006591797,0.14850950241088867,0.4687037467956543
1761316315516152000,5.063152099609375,-2.8824806213378906,-0.15634965896606445,1.620558738708496
1761316315535074300,5.08207421875,-2.1146388053894043,-0.6180944442749023,2.549199104309082
1761316315553996800,5.100996826171875,-1.7553484439849854,-0.926358699798584,2.7331395149230957
1761316315572919300,5.119919189453125,-1.9158360958099365,-0.6162824630737305,2.947087287902832
1761316315591841500,5.138841552734375,-2.402503252029419,-0.15924835205078125,3.6646997928619385
1761316315610764000,5.157763916015625,-2.5484871864318848,0.08382558822631836,4.407009124755859
1761316315629686500,5.1766865234375,-2.466838836669922,0.5661425590515137,4.594555377960205
1761316315648609000,5.195609130859375,-2.4331343173980713,0.6392521858215332,4.2961106300354
1761316315667531300,5.21453125,-2.1110713481903076,0.7107810974121094,3.5415635108947754
1761316315686453800,5.233453857421875,-1.4796905517578125,0.9743404388427734,2.76100754737854
1761316315705376300,5.252376220703125,-0.8762984275817871,1.6681904792785645,2.1450204849243164
1761316315724298800,5.271298828125,-0.10393333435058594,2.6150224208831787,1.1745657920837402
1761316315743221000,5.290220947265625,1.374528408050537,3.1616532802581787,-0.08432674407958984
1761316315762143500,5.3091435546875,2.5443577766418457,2.7367687225341797,-1.9040017127990723
1761316315781066000,5.32806591796875,3.647176504135132,1.6075940132141113,-3.719437599182129
1761316315799988200,5.34698828125,3.875535726547241,0.44805097579956055,-4.627031326293945
1761316315818910700,5.36591064453125,3.5549614429473877,-0.48583316802978516,-3.5860557556152344
1761316315837833200,5.384833251953125,3.434889793395996,-0.6517453193664551,-2.1181087493896484
1761316315856755700,5.403755615234375,3.449582576751709,0.13996219635009766,0.018506526947021484
1761316315875678000,5.422677978515625,2.350217342376709,2.1702017784118652,1.7389297485351562
1761316315894600400,5.441600341796875,0.8319334983825684,5.071690559387207,2.9762353897094727
1761316315913523000,5.46052294921875,0.17006421089172363,5.769728183746338,2.914496660232544
1761316315932445200,5.479445068359375,-2.588817596435547,1.19573974609375,2.6255435943603516
1761316315951367700,5.49836767578125,1.9927911758422852,-4.066630840301514,1.2223377227783203
1761316315970290200,5.517290283203125,7.361824989318848,-10.05634880065918,-1.6289687156677246
1761316315989212700,5.536212646484375,3.455004930496216,-11.913627624511719,-6.401051998138428
1761316316008135000,5.555135009765625,-2.8048436641693115,-3.8680567741394043,-3.871830463409424
1761316316027057400,5.574057373046875,-4.292410850524902,0.15828561782836914,0.4641542434692383
1761316316045980000,5.59297998046875,-4.8129353523254395,3.3292253017425537,5.107827663421631
1761316316064902400,5.61190234375,-6.416999816894531,2.0182504653930664,4.068133354187012
1761316316083824600,5.63082470703125,-7.6513824462890625,-0.7356514930725098,1.8708033561706543
1761316316102747100,5.6497470703125,-7.382294654846191,-2.343235969543457,0.6439518928527832
1761316316121669600,5.668669677734375,-5.548602104187012,-2.9845213890075684,0.5792326927185059
1761316316140591900,5.687591796875,-1.3370025157928467,-2.1416525840759277,0.22317790985107422
1761316316159514400,5.706514404296875,1.2045912742614746,-2.299088478088379,1.2821283340454102
1761316316178436900,5.725436767578125,-0.12914204597473145,-2.8809189796447754,1.9518542289733887
1761316316197359000,5.744359130859375,0.7577577829360962,-2.452566623687744,1.1922616958618164
1761316316216281600,5.763281494140625,0.3761775493621826,-1.0298924446105957,0.600395679473877
1761316316235204000,5.7822041015625,-0.5184269547462463,0.27167177200317383,0.05618095397949219
1761316316254126600,5.801126708984375,-1.3407553434371948,1.282090663909912,-0.6307587623596191
1761316316273048800,5.820048828125,-1.530898094177246,1.7696495056152344,-0.9088172912597656
1761316316291971300,5.838971435546875,-1.3008298873901367,1.6506891250610352,-0.9546041488647461
1761316316310893800,5.857893798828125,-0.5910518169403076,1.3196749687194824,-0.6209473609924316
1761316316329816000,5.876816162109375,0.07808065414428711,1.1910381317138672,-0.27452993392944336
1761316316348738600,5.895738525390625,0.741565465927124,1.3190040588378906,0.12586164474487305
1761316316367661000,5.9146611328125,0.8798009753227234,1.425459861755371,0.42514896392822266
1761316316386583600,5.93358349609375,0.9399966597557068,1.4659037590026855,0.38272523880004883
1761316316405505800,5.952505859375,1.136187195777893,1.2960281372070312,0.012270450592041016
1761316316424428300,5.97142822265625,0.9798091053962708,1.1771478652954102,-0.5738325119018555
1761316316443350800,5.990350830078125,0.4649696946144104,1.192267894744873,-0.9772086143493652
1761316316462273300,6.009273193359375,0.5517034530639648,1.178541660308838,-1.1235380172729492
1761316316481195500,6.028195556640625,1.1225149631500244,0.8206329345703125,-1.2938694953918457
1761316316500118000,6.047117919921875,1.6085008382797241,0.41748046875,-1.574601173400879
1761316316519040500,6.06604052734375,1.0443416833877563,0.5112533569335938,-2.0687713623046875
1761316316537962800,6.084962646484375,0.5938447117805481,0.42511558532714844,-2.424919605255127
1761316316556885200,6.10388525390625,0.7187563180923462,0.2391948699951172,-2.731247901916504
1761316316575807700,6.122807861328125,1.4118633270263672,0.37388038635253906,-2.6326956748962402
1761316316594730200,6.141730224609375,1.8862056732177734,0.08814239501953125,-3.7374625205993652
1761316316613652500,6.160652587890625,1.5230886936187744,0.7246537208557129,-4.521007537841797
1761316316632575000,6.179574951171875,1.6522247791290283,1.6993827819824219,-4.913399696350098
1761316316651497500,6.19849755859375,1.1023811101913452,0.5887742042541504,-5.124936103820801
1761316316670419700,6.217419677734375,0.6193056702613831,-1.0542068481445312,-4.898662090301514
1761316316689342200,6.23634228515625,0.19873195886611938,-3.41164493560791,-2.6937599182128906
1761316316708264700,6.2552646484375,-0.3867359757423401,-5.500885963439941,0.6682825088500977
1761316316727187200,6.274187255859375,-0.47049224376678467,-5.872859954833984,2.070115804672241
1761316316746109400,6.293109375,-0.300445556640625,-5.097682952880859,2.520829677581787
1761316316765032000,6.312031982421875,0.7336891889572144,-2.865163803100586,1.624161720275879
1761316316783954400,6.330954345703125,0.8308426141738892,-1.9592785835266113,0.43289804458618164
1761316316802877000,6.349876953125,0.42299342155456543,-1.3617262840270996,-1.8133063316345215
1761316316821799200,6.368799072265625,-0.9244526624679565,-0.6784706115722656,-1.7497477531433105
1761316316840721700,6.3877216796875,-2.1077656745910645,0.1162104606628418,-0.5476856231689453
1761316316859644200,6.40664404296875,-2.7969844341278076,0.0694432258605957,0.8029375076293945
1761316316878566400,6.42556640625,-3.1275265216827393,0.10907268524169922,1.518296241760254
1761316316897489000,6.444489013671875,-2.9830307960510254,-0.41021251678466797,2.614208221435547
1761316316916411400,6.463411376953125,-2.245109796524048,-1.068582534790039,2.9380526542663574
1761316316935334000,6.482333984375,-2.260880470275879,-1.08833646774292,2.8166298866271973
1761316316954256100,6.501256103515625,-2.6241025924682617,-0.5218009948730469,3.8267011642456055
1761316316973178600,6.5201787109375,-2.6816346645355225,-0.15845060348510742,4.570171356201172
1761316316992101000,6.53910107421875,-2.5993804931640625,0.14260053634643555,4.687618255615234
1761316317011023600,6.558023681640625,-2.377978801727295,0.5140619277954102,4.3216023445129395
1761316317029945900,6.57694580078125,-1.7387423515319824,0.2600893974304199,3.445378541946411
1761316317048868400,6.595868408203125,-1.0164594650268555,0.4627804756164551,2.6765434741973877
1761316317067790800,6.614790771484375,-0.524033784866333,0.9926438331604004,2.441185712814331
1761316317086713000,6.633713134765625,-0.23698663711547852,1.8668570518493652,1.7934775352478027
1761316317105635600,6.652635498046875,0.6715431213378906,2.498319625854492,1.1749486923217773
1761316317124558000,6.67155810546875,1.723876953125,2.5379066467285156,0.2116398811340332
1761316317143480600,6.69048046875,2.508293628692627,1.8647212982177734,-1.536755084991455
1761316317162402800,6.70940283203125,3.464792013168335,0.4873638153076172,-4.119704246520996
1761316317181325300,6.7283251953125,3.9583301544189453,-1.2918906211853027,-5.177063465118408
1761316317200247800,6.747247802734375,4.046811103820801,-1.44124174118042,-3.490110397338867
1761316317219170300,6.76617041015625,3.3410964012145996,0.41273069381713867,-0.9604997634887695
1761316317238092500,6.785092529296875,2.4555187225341797,3.0795745849609375,1.403005599975586
1761316317257015000,6.80401513671875,1.2800030708312988,4.907656192779541,2.5611064434051514
1761316317275937500,6.8229375,-0.27036094665527344,2.56276798248291,1.8240394592285156
1761316317294860000,6.841860107421875,0.9177157878875732,-1.301133632659912,-0.33756065368652344
1761316317313782300,6.8607822265625,4.2936787605285645,-5.980193138122559,-1.871157169342041
1761316317332704800,6.879704833984375,3.800285816192627,-9.70553207397461,-2.9105281829833984
1761316317351627300,6.898627197265625,-1.2657520771026611,-4.916640758514404,-2.115558624267578
1761316317370549500,6.917549560546875,-5.183556079864502,-0.521085262298584,1.0354385375976562
1761316317389472000,6.936471923828125,-3.083627700805664,1.1585016250610352,4.245260238647461
1761316317408394500,6.95539453125,-4.497832775115967,1.8081269264221191,5.677463531494141
1761316317427317000,6.97431689453125,-6.0532121658325195,-0.2515120506286621,3.3129608631134033
1761316317446239200,6.9932392578125,-6.683712482452393,-1.841181755065918,0.46938657760620117
1761316317465161700,7.01216162109375,-5.675590515136719,-1.3024554252624512,-0.35583019256591797
1761316317484084200,7.031084228515625,-3.9582109451293945,-0.7631025314331055,-0.9799132347106934
1761316317503006700,7.0500068359375,-1.1609349250793457,-0.9435296058654785,-0.6714348793029785
1761316317521929000,7.068928955078125,1.085243582725525,-2.057978630065918,0.632300853729248
1761316317540851500,7.0878515625,0.9301999807357788,-2.5817017555236816,1.572023868560791
1761316317559774000,7.10677392578125,0.41259872913360596,-1.8043947219848633,1.408860206604004
1761316317578696400,7.125696533203125,-0.36653876304626465,-0.569023609161377,1.2898316383361816
1761316317597618700,7.14461865234375,-0.8946508169174194,0.31267881393432617,0.6645798683166504
1761316317616541200,7.163541259765625,-1.3672633171081543,0.8570246696472168,-0.05542564392089844
1761316317635463700,7.182463623046875,-1.3465471267700195,0.5655016899108887,-0.5130653381347656
1761316317654386200,7.20138623046875,-0.9958500266075134,0.025867938995361328,-0.652130126953125
1761316317673308400,7.220308349609375,-0.01646476984024048,0.41603660583496094,-0.8191356658935547
1761316317692231000,7.23923095703125,0.3209681510925293,0.8716917037963867,-0.5740399360656738
1761316317711153400,7.2581533203125,0.5939584970474243,0.9040431976318359,-0.31213903427124023
1761316317730076000,7.277075927734375,0.503546953201294,0.8054986000061035,-0.1173396110534668
1761316317748998100,7.295998046875,0.4104340970516205,0.7926254272460938,0.16823530197143555
1761316317767920600,7.314920654296875,0.5975252985954285,0.9695258140563965,0.467987060546875
1761316317786843100,7.333843017578125,1.1241079568862915,1.323592185974121,0.5074028968811035
1761316317805765600,7.352765625,1.1199041604995728,1.459399700164795,-0.3025074005126953
1761316317824687900,7.37168798828125,0.8064995408058167,1.4702730178833008,-1.550924301147461
1761316317843610400,7.3906103515625,0.6194720268249512,1.492908000946045,-2.58992338180542
1761316317862532900,7.409532958984375,1.031650424003601,1.378915786743164,-2.558149814605713
1761316317881455400,7.428455322265625,1.0071824789047241,1.0815730094909668,-2.4940028190612793
1761316317900377600,7.447377685546875,0.5919033885002136,0.611119270324707,-2.6078224182128906
1761316317919300000,7.466300048828125,0.580143928527832,0.08101558685302734,-2.4753975868225098
1761316317938222600,7.48522265625,0.9552021026611328,-0.35534000396728516,-1.840653896331787
1761316317957145000,7.50414501953125,1.867938756942749,-0.3745441436767578,-1.28529691696167
1761316317976067300,7.5230673828125,2.926114320755005,-0.38095855712890625,-1.9168787002563477
1761316317994989800,7.54198974609375,3.013036012649536,-0.053791046142578125,-3.731508731842041
1761316318013912300,7.560912353515625,2.9239766597747803,2.245213031768799,-5.1829657554626465
1761316318032834800,7.579834716796875,0.6333641409873962,2.502939224243164,-5.551527976989746
1761316318051757000,7.598757080078125,-1.062755823135376,0.7454547882080078,-5.897994518280029
1761316318070679600,7.617679443359375,-0.19704341888427734,-2.0862350463867188,-2.623373031616211
1761316318089602000,7.63660205078125,0.10573160648345947,-4.56797981262207,0.34346437454223633
1761316318108524500,7.655524658203125,-1.3730379343032837,-5.9608154296875,1.4453401565551758
1761316318127446800,7.67444677734375,-1.7461622953414917,-5.1589226722717285,2.15264892578125
1761316318146369300,7.693369384765625,-0.975203812122345,-3.9801855087280273,2.999628782272339
1761316318165291800,7.712291748046875,0.39712393283843994,-3.651167869567871,1.8063898086547852
1761316318184214300,7.73121435546875,0.9145395755767822,-3.6320314407348633,-0.1890430450439453
1761316318203136800,7.75013671875,0.9417886734008789,-1.61478853225708,-1.14210844039917
1761316318222059000,7.76905908203125,-1.2241469621658325,-0.3460378646850586,-1.2511157989501953
1761316318240981500,7.7879814453125,-2.5643413066864014,0.7008485794067383,-0.6292080879211426
1761316318259904000,7.806904052734375,-3.2224390506744385,1.227889060974121,0.6688098907470703
1761316318278826500,7.825826416015625,-3.21237850189209,1.1699600219726562,1.8408045768737793
1761316318297748700,7.844748779296875,-3.1171178817749023,0.6442031860351562,2.063159942626953
1761316318316671200,7.863671142578125,-2.768606424331665,-0.2504706382751465,2.5981245040893555
1761316318335593700,7.88259375,-2.7669172286987305,-0.8123335838317871,3.3466577529907227
1761316318354516200,7.90151611328125,-2.4415483474731445,-0.6845717430114746,4.322299957275391
1761316318373438500,7.9204384765625,-2.194112777709961,-0.3577709197998047,5.024404525756836
1761316318392361000,7.93936083984375,-2.0720417499542236,-0.1592698097229004,4.52160120010376
1761316318411283500,7.958283447265625,-1.8539307117462158,-0.29653501510620117,3.629760980606079
1761316318430206000,7.9772060546875,-1.351428747177124,0.07349395751953125,2.725656032562256
1761316318449128200,7.996128173828125,-0.7734992504119873,0.6323857307434082,2.1869850158691406
1761316318468050700,8.01505078125,-0.6101746559143066,1.6696290969848633,1.7063798904418945
1761316318486973200,8.03397314453125,-0.14490365982055664,2.4436755180358887,1.037768840789795
1761316318505895700,8.052895751953125,0.9408040046691895,2.5717921257019043,-0.06752777099609375
1761316318524818200,8.071818115234375,2.061326265335083,2.3283004760742188,-1.3001494407653809
1761316318543740400,8.090740478515626,2.6783266067504883,1.511950969696045,-2.9783554077148438
1761316318562663000,8.109662841796874,3.305049419403076,0.08698606491088867,-4.722307205200195
1761316318581585400,8.12858544921875,2.9605324268341064,-0.7749428749084473,-4.712879180908203
1761316318600508000,8.1475078125,3.183657646179199,-0.3301663398742676,-2.765359401702881
1761316318619430100,8.16643017578125,3.059011936187744,1.1903939247131348,-0.12659215927124023
1761316318638352600,8.1853525390625,2.8509883880615234,2.2615175247192383,1.8438796997070312
1761316318657275100,8.204275146484376,2.5280089378356934,1.0494489669799805,1.99090576171875
1761316318676197600,8.22319775390625,2.843480110168457,-1.5284252166748047,-0.46163225173950195
1761316318695120000,8.242119873046875,3.463287353515625,-4.6075286865234375,-3.7578577995300293
1761316318714042400,8.26104248046875,1.6617658138275146,-8.944231986999512,-5.406047344207764
1761316318732964900,8.27996484375,-2.7999532222747803,-5.221595764160156,-2.7849864959716797
1761316318751887400,8.298887451171876,-6.159452438354492,1.4896659851074219,3.3159496784210205
1761316318770809900,8.317809814453126,-1.1862821578979492,3.214226007461548,8.479058265686035
1761316318789732000,8.336732177734374,-2.6703402996063232,2.1134023666381836,9.014171600341797
1761316318808654600,8.355654541015625,-5.643094539642334,-1.3669090270996094,5.673986911773682
1761316318827577000,8.3745771484375,-6.576425552368164,-3.2857298851013184,1.9340720176696777
1761316318846499600,8.39349951171875,-5.583182334899902,-3.749241352081299,-2.137704849243164
1761316318865422000,8.412422119140626,-3.3249928951263428,-1.3350262641906738,-2.7478742599487305
1761316318884344300,8.43134423828125,0.015858769416809082,0.45828962326049805,-1.012359619140625
1761316318903266800,8.450266845703124,0.622252345085144,0.14722204208374023,-0.7517428398132324
1761316318922189300,8.469189208984375,0.21889853477478027,-0.2931537628173828,-0.23363304138183594
1761316318941111800,8.48811181640625,-0.6900724768638611,-0.12597942352294922,0.19985055923461914
1761316318960034000,8.507033935546875,-1.0959285497665405,-0.12753820419311523,0.20972394943237305
1761316318978956500,8.52595654296875,-1.2646524906158447,0.08942413330078125,0.5396394729614258
1761316318997879000,8.544879150390624,-1.2147306203842163,0.09434032440185547,0.6417021751403809
1761316319016801500,8.563801513671875,-1.05377995967865,-0.09376144409179688,0.8729562759399414
1761316319035724000,8.58272412109375,-0.4481263756752014,-0.33673763275146484,0.7392683029174805
1761316319054646300,8.601646240234375,-0.1709606647491455,-0.4668612480163574,0.35452795028686523
1761316319073568800,8.62056884765625,0.22134393453598022,-0.08191585540771484,0.17149829864501953
1761316319092491300,8.6394912109375,0.2900950312614441,0.48288822174072266,0.19130754470825195
1761316319111413800,8.658413818359374,-0.09804904460906982,0.6697583198547363,0.010198593139648438
1761316319130336300,8.677336181640625,0.039196550846099854,0.5763339996337891,0.28217554092407227
1761316319149258500,8.696258544921875,0.1820434033870697,0.99005126953125,0.3165140151977539
1761316319168181000,8.715180908203125,0.46775975823402405,1.391554355621338,0.029164791107177734
1761316319187103500,8.734103515625,0.7122546434402466,1.301626205444336,-0.9757242202758789
1761316319206026000,8.75302587890625,1.4633675813674927,1.406926155090332,-2.096984386444092
1761316319224948500,8.771948486328125,1.8897091150283813,1.6168551445007324,-2.8292407989501953
1761316319243870700,8.79087060546875,1.4149329662322998,1.3254828453063965,-2.8451619148254395
1761316319262793200,8.809793212890625,0.8590177893638611,0.6844692230224609,-2.281198024749756
1761316319281715700,8.8287158203125,0.30072957277297974,0.4315338134765625,-2.108614444732666
1761316319300638200,8.84763818359375,0.16539695858955383,0.29920005798339844,-2.341756820678711
1761316319319560700,8.866560791015624,0.2831975221633911,-0.35328197479248047,-2.910003662109375
1761316319338483000,8.88548291015625,0.03117617964744568,-1.1704730987548828,-3.939629077911377
1761316319357405400,8.904405517578125,-0.7910829782485962,-1.1759214401245117,-5.105347633361816
1761316319376328000,8.923327880859375,-0.8638241291046143,-0.5794792175292969,-5.716241836547852
1761316319395250400,8.94225048828125,-0.05341431498527527,-0.8241214752197266,-4.865415096282959
1761316319414172700,8.961172607421876,1.9898548126220703,-2.0850114822387695,-2.1893577575683594
1761316319433095200,8.98009521484375,4.145895957946777,-2.444143295288086,0.875788688659668
1761316319452017700,8.999017578125,4.503352165222168,-2.4141550064086914,1.5395312309265137
1761316319470940200,9.017940185546875,2.5497100353240967,-1.4710025787353516,1.1189026832580566
1761316319489862700,9.036862548828125,0.041665613651275635,-0.7584829330444336,-0.4797859191894531
1761316319508785200,9.05578515625,-1.3505867719650269,-1.5190801620483398,-0.049368858337402344
1761316319527707400,9.074707275390624,-2.077545404434204,-2.824608325958252,0.25781679153442383
1761316319546630000,9.0936298828125,-2.220475196838379,-2.2651572227478027,1.284874439239502
1761316319565552400,9.112552490234375,-0.5554971694946289,-0.7507534027099609,1.5727157592773438
1761316319584475000,9.131474853515625,0.587104082107544,-1.3507485389709473,0.5710148811340332
1761316319603397400,9.1503974609375,0.3572392463684082,-1.7471070289611816,-0.22072696685791016
1761316319622319600,9.169319580078126,-0.356600284576416,-1.288036823272705,0.10216188430786133
1761316319641242000,9.1882421875,-1.6919894218444824,-0.46628713607788086,0.9618043899536133
1761316319660164600,9.20716455078125,-2.0225987434387207,-0.15337467193603516,1.8034420013427734
1761316319679087000,9.226087158203125,-1.7191004753112793,0.02557849884033203,1.5995392799377441
1761316319698009600,9.245009521484375,-2.553069829940796,0.06331872940063477,1.7622675895690918
1761316319716931800,9.263931884765626,-1.7096987962722778,-0.08972978591918945,2.300380229949951
1761316319735854300,9.282854248046876,-0.7141225337982178,0.07017040252685547,2.703373908996582
1761316319754776800,9.30177685546875,-0.7897050380706787,0.27807140350341797,2.4190163612365723
1761316319773699300,9.32069921875,-1.2266619205474854,0.4956173896789551,2.4243416786193848
1761316319792621800,9.339621826171875,-1.5683846473693848,0.8620119094848633,2.7677390575408936
1761316319811544300,9.35854443359375,-1.8323795795440674,0.8744926452636719,3.0050511360168457
1761316319830466600,9.377466552734376,-1.706554889678955,0.6912345886230469,3.0391876697540283
1761316319849389000,9.39638916015625,-1.2074832916259766,0.6901431083679199,2.559953451156616
1761316319868311600,9.4153115234375,-0.7357416152954102,0.9583754539489746,2.0480551719665527
1761316319887234000,9.434234130859375,-0.24903011322021484,1.3903403282165527,1.2503581047058105
1761316319906156500,9.453156494140625,0.33342742919921875,1.8454670906066895,0.4012928009033203
1761316319925078800,9.472078857421875,0.6748638153076172,2.087301731109619,-0.3875918388366699
1761316319944001300,9.491001220703126,1.4012746810913086,1.9580707550048828,-1.0102195739746094
1761316319962923800,9.509923828125,1.9641132354736328,1.4271178245544434,-1.4990520477294922
1761316319981846300,9.52884619140625,2.3145625591278076,0.6926841735839844,-1.895777702331543
1761316320000768800,9.547768798828125,2.2685494422912598,0.1124119758605957,-2.3830456733703613
1761316320019691000,9.56669091796875,2.5339560508728027,-0.2267765998840332,-1.9494824409484863
1761316320038613500,9.585613525390626,2.6603879928588867,0.20138311386108398,-0.9760408401489258
1761316320057536000,9.604535888671874,2.6317081451416016,1.578500747680664,0.21273088455200195
1761316320076458500,9.62345849609375,2.4557762145996094,2.1211705207824707,0.8674616813659668
1761316320095381000,9.642381103515625,2.3955583572387695,-0.058034420013427734,0.35606861114501953
1761316320114303500,9.661303466796875,3.528099536895752,-2.879702568054199,-1.3157987594604492
1761316320133225700,9.680225830078125,3.373164415359497,-4.298920154571533,-1.752026081085205
1761316320152148200,9.699148193359376,1.5442237854003906,-4.687552452087402,-1.5148744583129883
1761316320171070700,9.71807080078125,-1.9388861656188965,-3.537559986114502,-1.0246763229370117
1761316320189993200,9.7369931640625,-2.420879364013672,-1.458662509918213,2.8381803035736084
1761316320208915700,9.755915771484375,-3.078787326812744,0.0021343231201171875,5.135027885437012
1761316320227838000,9.774837890625,-4.9618048667907715,0.608344554901123,5.594424247741699
1761316320246760400,9.793760498046876,-5.896871566772461,-0.03148651123046875,4.269516944885254
1761316320265683000,9.812682861328126,-4.307061195373535,-0.9916324615478516,1.9223113059997559
1761316320284605400,9.83160546875,-3.482700824737549,-2.1697144508361816,0.6235322952270508
1761316320303528000,9.85052783203125,-2.887803792953491,-2.3346433639526367,-0.0024595260620117188
1761316320322450200,9.8694501953125,0.5165516138076782,-1.5456547737121582,-0.03938484191894531
1761316320341372700,9.88837255859375,0.28754568099975586,-0.5349922180175781,0.15028047561645508
1761316320360295200,9.907295166015626,0.17116272449493408,0.31408071517944336,0.2745628356933594
1761316320379217700,9.9262177734375,-0.6549810767173767,0.8216443061828613,0.10375833511352539
1761316320398140200,9.94514013671875,-1.1704622507095337,0.8700003623962402,-0.22030353546142578
1761316320417062700,9.964062744140625,-1.3788683414459229,0.9108142852783203,-0.5843429565429688
1761316320435985000,9.98298486328125,-1.0642952919006348,0.8010439872741699,-0.8535237312316895
1761316320454907400,10.001907470703125,-0.6825480461120605,0.47887706756591797,-0.9816699028015137
1761316320473830000,10.020829833984376,-0.47516417503356934,0.5569014549255371,-0.7719054222106934
1761316320492752400,10.03975244140625,0.12990963459014893,0.4880075454711914,-0.7678632736206055
1761316320511675000,10.0586748046875,0.36500662565231323,0.10680198669433594,-0.13701915740966797
1761316320530597400,10.077597412109375,0.268341600894928,0.10094547271728516,0.18767642974853516
1761316320549519600,10.09651953125,0.0068253278732299805,0.2571377754211426,0.31299304962158203
1761316320568442000,10.115442138671876,-0.27225804328918457,0.4884181022644043,0.30707502365112305
1761316320587364600,10.134364501953126,0.13384848833084106,0.9095339775085449,-0.10651016235351562
1761316320606287000,10.153287109375,0.6396722793579102,0.6171646118164062,-0.7806854248046875
1761316320625209600,10.172209716796875,1.200063705444336,0.6374478340148926,-1.0008411407470703
1761316320644131800,10.1911318359375,1.6092023849487305,0.9111642837524414,-0.8287496566772461
1761316320663054300,10.210054443359375,1.8217697143554688,1.251145362854004,-0.6935954093933105
1761316320681976800,10.228976806640626,1.47996985912323,1.308988094329834,-1.2696785926818848
1761316320700899300,10.2478994140625,0.8834117650985718,0.8838624954223633,-2.0121421813964844
1761316320719821800,10.26682177734375,0.7021054029464722,0.7971687316894531,-2.3052096366882324
1761316320738744300,10.285744384765625,0.8871942758560181,0.8584833145141602,-2.0088939666748047
1761316320757666800,10.304666748046875,0.8758059144020081,0.6313810348510742,-1.6185998916625977
1761316320776589000,10.323589111328126,0.5839735865592957,0.17322731018066406,-1.3706164360046387
1761316320795511600,10.342511474609376,0.6380423307418823,-0.1111297607421875,-1.0288996696472168
1761316320814434000,10.36143408203125,1.2230496406555176,0.08697986602783203,-0.934877872467041
1761316320833356500,10.3803564453125,1.7839468717575073,0.6512632369995117,-1.2568888664245605
1761316320852279000,10.399279052734375,1.765832543373108,0.6543588638305664,-3.1802496910095215
1761316320871201300,10.418201171875,1.259186029434204,0.8833103179931641,-4.869246482849121
1761316320890123800,10.437123779296876,-0.9142780900001526,1.2848048210144043,-5.123162746429443
1761316320909046300,10.45604638671875,-0.7610039710998535,-0.42310428619384766,-5.776844501495361
1761316320927968800,10.47496875,0.3592567443847656,-3.1386404037475586,-4.051318645477295
1761316320946891300,10.493891357421875,0.900547444820404,-4.563817024230957,0.25158214569091797
1761316320965813800,10.512813720703125,1.441046953201294,-5.250335693359375,2.533762216567993
1761316320984736300,10.531736328125,0.5157092213630676,-5.075956344604492,3.4864933490753174
1761316321003658500,10.550658447265626,-0.8292471170425415,-3.411099433898926,3.5518903732299805
1761316321022581000,10.5695810546875,-1.21096670627594,-1.3683090209960938,2.59749174118042
1761316321041503500,10.58850341796875,-0.8402809500694275,-0.6088838577270508,0.46242332458496094
1761316321060426000,10.607426025390625,-0.4213142395019531,-0.27614641189575195,-1.1786513328552246
1761316321079348500,10.626348388671875,-1.3012628555297852,-0.40416383743286133,-1.8248276710510254
1761316321098270700,10.645270751953126,-1.7554166316986084,-0.5979743003845215,-0.6416845321655273
1761316321117193200,10.664193115234376,-2.1865360736846924,-0.8442630767822266,1.1207733154296875
1761316321136115700,10.68311572265625,-2.2692105770111084,-0.667335033416748,2.239471435546875
1761316321155038200,10.7020380859375,-2.1732561588287354,-0.7370486259460449,2.751558542251587
1761316321173960700,10.720960693359375,-2.3891735076904297,-0.7815456390380859,2.9025375843048096
1761316321192883200,10.73988330078125,-2.1743316650390625,-0.5360474586486816,2.767759323120117
1761316321211805400,10.758805419921876,-2.0096919536590576,-0.3890676498413086,2.9235455989837646
1761316321230728000,10.77772802734375,-1.8973170518875122,-0.17766475677490234,3.5302317142486572
1761316321249650400,10.796650390625,-1.6790437698364258,0.14550304412841797,3.7889115810394287
1761316321268573000,10.815572998046875,-1.4012572765350342,0.4680647850036621,3.2077438831329346
1761316321287495400,10.834495361328125,-1.3580374717712402,0.527534008026123,2.1493663787841797
1761316321306418000,10.85341796875,-0.9973242282867432,0.8601078987121582,1.4695038795471191
1761316321325340400,10.87234033203125,-0.6675760746002197,1.5300393104553223,1.1111230850219727
1761316321344262700,10.8912626953125,-0.45844149589538574,2.1989479064941406,0.972012996673584
1761316321363185200,10.91018505859375,-0.14363813400268555,2.552806854248047,0.8021664619445801
1761316321382107600,10.929107666015625,0.3909444808959961,2.3711204528808594,0.34390974044799805
1761316321401030100,10.948030029296875,0.9580414295196533,2.1572909355163574,-0.35796260833740234
1761316321419952600,10.96695263671875,1.7670483589172363,1.954674243927002,-1.5564699172973633
1761316321438875000,10.985875,2.6321303844451904,1.630143642425537,-2.8627686500549316
1761316321457797400,11.00479736328125,3.769343137741089,1.1951651573181152,-3.804965019226074
1761316321476719900,11.023719970703125,3.6869874000549316,0.27074718475341797,-3.938373565673828
1761316321495642400,11.042642333984375,2.8091626167297363,-0.07941961288452148,-3.166738986968994
1761316321514564900,11.06156494140625,2.5533204078674316,0.6410131454467773,-1.2920217514038086
1761316321533487400,11.0804873046875,2.1638405323028564,2.456112861633301,0.02335357666015625
1761316321552409600,11.09940966796875,1.196178913116455,4.369405746459961,0.616370677947998
1761316321571332000,11.11833203125,0.09403491020202637,3.7318053245544434,0.1271982192993164
1761316321590254600,11.137254638671875,-0.5783226490020752,-1.008683681488037,-0.8377180099487305
1761316321609177000,11.156177001953125,-0.6091208457946777,-5.143576622009277,-2.330965995788574
1761316321628099600,11.175099609375,2.5514626502990723,-8.42487907409668,-2.815342903137207
1761316321647022000,11.19402197265625,-1.0204885005950928,-5.9790568351745605,0.7927708625793457
1761316321665944600,11.212944580078124,-0.6933073997497559,-4.301214694976807,4.485677242279053
1761316321684866800,11.23186669921875,-1.551153302192688,-2.8935837745666504,5.57614803314209
1761316321703789300,11.250789306640625,-5.2542243003845215,0.07724571228027344,4.503103256225586
1761316321722711800,11.2697119140625,-7.839303493499756,0.08019542694091797,1.4166250228881836
1761316321741634300,11.28863427734375,-5.893990516662598,-1.7756657600402832,-1.4004664421081543
1761316321760556800,11.307556884765624,-3.555724620819092,-1.6549267768859863,-0.7056498527526855
1761316321779479300,11.326479248046875,-1.5776872634887695,-1.4746084213256836,0.4018707275390625
1761316321798401500,11.345401611328125,1.1950087547302246,-1.602076530456543,1.119157314300537
1761316321817324000,11.364323974609375,0.41092801094055176,-1.5522937774658203,0.6820898056030273
1761316321836246500,11.38324658203125,-0.019956231117248535,-0.9451279640197754,0.22738027572631836
1761316321855169000,11.4021689453125,-0.09276306629180908,-0.2743206024169922,0.0671086311340332
1761316321874091500,11.421091552734374,-0.18209218978881836,0.4448666572570801,-0.086517333984375
1761316321893014000,11.440013916015625,-0.9970777630805969,1.0172734260559082,-0.30445384979248047
1761316321911936500,11.4589365234375,-1.5491904020309448,0.9776473045349121,-0.0622706413269043
1761316321930858800,11.477858642578125,-1.4901819229125977,0.6645493507385254,0.3856649398803711
1761316321949781200,11.49678125,-1.1347553730010986,0.33569765090942383,0.7327823638916016
1761316321968703700,11.515703857421874,-0.5438233017921448,0.22246074676513672,0.9167923927307129
1761316321987626200,11.534626220703124,-0.0770953893661499,0.3871173858642578,1.015763282775879
1761316322006548700,11.553548828125,-0.18753284215927124,0.542633056640625,0.7445240020751953
1761316322025471200,11.57247119140625,-0.37717878818511963,0.5239090919494629,0.09660148620605469
1761316322044393500,11.5913935546875,-0.1185685396194458,0.21999597549438477,-0.49981164932250977
1761316322063316000,11.61031591796875,0.4551824927330017,-0.11483097076416016,-0.6653351783752441
1761316322082238500,11.629238525390624,0.8450673818588257,0.08786201477050781,-0.47731828689575195
1761316322101161000,11.648160888671875,1.2029438018798828,0.8312749862670898,-0.41029977798461914
1761316322120083500,11.66708349609375,1.159677505493164,1.2866287231445312,-0.6294269561767578
1761316322139006000,11.686005859375,0.7407168745994568,1.1410527229309082,-1.1514849662780762
1761316322157928200,11.70492822265625,0.7262684106826782,0.8829951286315918,-1.4054279327392578
1761316322176850700,11.7238505859375,1.1547155380249023,0.6864352226257324,-1.3918142318725586
1761316322195773200,11.742773193359374,1.352776050567627,0.618985652923584,-1.3261170387268066
1761316322214695700,11.76169580078125,0.7900642156600952,0.42493581771850586,-1.2844452857971191
1761316322233618200,11.7806181640625,0.39545175433158875,0.24077606201171875,-1.054652214050293
1761316322252540700,11.799540771484375,0.6188657879829407,0.019245147705078125,-0.7383403778076172
1761316322271463200,11.818463134765626,0.9815186858177185,-0.1455249786376953,-0.6279768943786621
1761316322290385400,11.837385498046874,1.2894901037216187,-0.26582908630371094,-1.24078369140625
1761316322309308000,11.856307861328125,1.5076712369918823,-0.23938941955566406,-2.2909646034240723
1761316322328230400,11.87523046875,1.1755282878875732,-0.26987266540527344,-2.5870437622070312
1761316322347153000,11.89415283203125,0.555644154548645,-0.5208263397216797,-2.7113852500915527
1761316322366075400,11.913075439453126,0.19519758224487305,-0.7716922760009766,-2.7979583740234375
1761316322384998000,11.931997802734376,0.659656286239624,-1.9842495918273926,-2.044144630432129
1761316322403920100,11.950920166015624,0.005919098854064941,-2.998558521270752,0.40553712844848633
1761316322422842600,11.969842529296875,0.1609286069869995,-3.7237768173217773,2.5243709087371826
1761316322441765000,11.98876513671875,-0.17589521408081055,-3.7327070236206055,2.466822624206543
1761316322460687600,12.0076875,-0.16618800163269043,-2.7257866859436035,1.2652969360351562
1761316322479610000,12.026610107421876,-0.271836519241333,-1.4370651245117188,0.17008447647094727
1761316322498532600,12.04553271484375,-0.3536849021911621,-0.05541086196899414,0.08741426467895508
1761316322517455000,12.064455078125,-0.517824649810791,0.4035959243774414,0.0747671127319336
1761316322536377300,12.08337744140625,-0.29622912406921387,-0.48617124557495117,0.12219619750976562
1761316322555299800,12.1022998046875,-0.9404692649841309,-0.9229979515075684,0.5616931915283203
1761316322574222300,12.121222412109375,-1.508193016052246,-0.5906982421875,0.9551610946655273
1761316322593144800,12.140144775390626,-1.7998228073120117,-0.12069272994995117,1.4100723266601562
1761316322612067300,12.1590673828125,-1.3731584548950195,0.037091732025146484,1.8106927871704102
1761316322630989800,12.17798974609375,-0.6945037841796875,-0.23360300064086914,1.9320740699768066
1761316322649912000,12.196912109375,-0.8815672397613525,-0.28965091705322266,2.1380696296691895
1761316322668834600,12.21583447265625,-1.0659782886505127,-0.1282196044921875,2.295325756072998
1761316322687757000,12.234757080078126,-1.1538200378417969,-0.09988069534301758,2.1922450065612793
1761316322706679600,12.253679443359376,-1.3706820011138916,0.1395130157470703,1.8907132148742676
1761316322725602000,12.27260205078125,-1.590468406677246,0.32129526138305664,1.3821239471435547
1761316322744524500,12.291524658203125,-1.5815448760986328,0.30013418197631836,1.0402793884277344
1761316322763446800,12.31044677734375,-0.9535493850708008,0.3943295478820801,1.0171499252319336
1761316322782369300,12.329369384765625,-0.14768433570861816,0.6883902549743652,0.8873825073242188
1761316322801291800,12.348291748046876,0.31683993339538574,1.1660633087158203,0.48761796951293945
1761316322820214300,12.36721435546875,1.166297197341919,1.7286882400512695,-0.21320009231567383
1761316322839136800,12.38613671875,1.7488293647766113,1.7846121788024902,-0.9155912399291992
1761316322858059300,12.405059326171875,2.1031012535095215,1.466881275177002,-1.4576811790466309
1761316322876981800,12.423981689453125,1.9854116439819336,1.4312448501586914,-1.1668872833251953
1761316322895904000,12.442904052734375,1.6878607273101807,1.4282565116882324,-0.5864262580871582
1761316322914826500,12.461826416015626,1.287865161895752,1.1887822151184082,0.1555795669555664
1761316322933749000,12.4807490234375,1.194453477859497,0.9842653274536133,2.002479314804077
1761316322952671500,12.49967138671875,1.1764812469482422,0.7148065567016602,2.863765001296997
1761316322971594000,12.518593994140625,1.3387086391448975,0.4352121353149414,3.0713329315185547
1761316322990516500,12.5375166015625,0.9767451286315918,-0.445889949798584,2.4183192253112793
1761316323009439000,12.55643896484375,1.8104348182678223,-3.3994550704956055,-0.37069177627563477
1761316323028361200,12.575361328125,4.12721061706543,-5.572388648986816,-3.579455852508545
1761316323047283700,12.59428369140625,1.9718396663665771,-4.551194667816162,-6.494144916534424
1761316323066206200,12.613206298828125,-4.5489044189453125,-1.1560444831848145,-2.144761085510254
1761316323085128700,12.632128662109375,-5.4857635498046875,-1.0263524055480957,5.449721813201904
1761316323104051200,12.65105126953125,-3.732332468032837,0.8963451385498047,5.758572578430176
1761316323122973700,12.6699736328125,-3.1419596672058105,0.1491866111755371,-0.40313291549682617
1761316323141896200,12.688896240234374,-2.348257541656494,-0.9259700775146484,-2.4486513137817383
1761316323160818400,12.707818359375,-0.5172867774963379,-1.379373550415039,-1.8850526809692383
1761316323179741000,12.726740966796875,-0.8352577686309814,-1.347097396850586,-0.12886524200439453
1761316323198663400,12.745663330078125,-1.9796085357666016,-1.0056853294372559,0.3052787780761719
1761316323217586000,12.7645859375,-1.9527931213378906,-0.6746406555175781,0.07845878601074219
1761316323236508400,12.78350830078125,-1.419460415840149,-0.43015384674072266,-0.07559537887573242
1761316323255431000,12.802430908203124,-0.5704669952392578,-0.27948570251464844,-0.23006486892700195
1761316323274353200,12.821353271484375,-0.401965856552124,0.017044544219970703,-0.5502734184265137
1761316323293275600,12.840275634765625,-0.712120771408081,0.2800006866455078,-0.4929990768432617
1761316323312198100,12.8591982421875,-0.8154895305633545,0.30680418014526367,-0.16927289962768555
1761316323331120600,12.87812060546875,-0.8590227365493774,0.16333961486816406,0.08725118637084961
1761316323350043100,12.897043212890624,-0.4700028896331787,-0.060645103454589844,0.09411239624023438
1761316323368965600,12.915965576171875,-0.23616957664489746,-0.1962294578552246,-0.2781710624694824
1761316323387888000,12.93488818359375,-0.03948378562927246,-0.2301793098449707,-0.5265402793884277
1761316323406810600,12.953810546875,0.01075887680053711,-0.061528682708740234,-0.185821533203125
1761316323425732900,12.97273291015625,-0.4463527202606201,0.042369842529296875,0.13100719451904297
1761316323444655400,12.9916552734375,-0.6434988975524902,0.015351295471191406,0.2362232208251953
1761316323463577900,13.010577880859374,-0.37171483039855957,-0.1637430191040039,0.2576179504394531
1761316323482500400,13.029500244140625,-0.39466941356658936,-0.2031412124633789,0.040569305419921875
1761316323501422800,13.0484228515625,-0.38725972175598145,-0.2705521583557129,0.013224124908447266
1761316323520345300,13.067345458984375,-0.40017521381378174,-0.3727998733520508,0.03606557846069336
1761316323539267600,13.086267578125,-0.3075721263885498,-0.36292314529418945,-0.06698226928710938
1761316323558190000,13.105190185546874,-0.43507933616638184,-0.11010885238647461,-0.0805821418762207
1761316323577112600,13.124112548828125,-0.5441093444824219,-0.06177711486816406,0.057656288146972656
1761316323596035000,13.14303515625,-0.6160908937454224,-0.1047201156616211,-0.020920753479003906
1761316323614957600,13.16195751953125,-1.1180050373077393,-0.06554889678955078,-0.3760523796081543
1761316323633880000,13.180880126953125,-0.4517979621887207,-0.1353626251220703,-0.1485438346862793
1761316323652802600,13.199802490234376,0.008664369583129883,-0.24457788467407227,-0.15484142303466797
1761316323671725000,13.21872509765625,0.010170698165893555,-0.17246103286743164,-0.18321895599365234
1761316323690647300,13.237647216796875,-0.1920701265335083,-0.13541412353515625,-0.15193986892700195
1761316323709569800,13.25656982421875,-0.35441768169403076,-0.1127619743347168,0.0045299530029296875
1761316323728492300,13.2754921875,-0.22878575325012207,-0.13483715057373047,0.0821375846862793
