time,seconds_elapsed,z,y,x
1761316310672010800,0.2190107421875,-0.01046075951308012,0.09422318637371063,0.04115583375096321
1761316310690933200,0.237933349609375,-0.015958385542035103,0.09972081333398819,0.044820915907621384
1761316310709855700,0.256855712890625,-0.020845163613557816,0.10338589549064636,0.05031854286789894
1761316310728778200,0.2757783203125,-0.019623467698693275,0.10338589549064636,0.05337277799844742
1761316310747700700,0.29470068359375,-0.02023431472480297,0.11315945535898209,0.060092099010944366
1761316310766623000,0.313623046875,-0.020845163613557816,0.125987246632576,0.0692548081278801
1761316310785545500,0.33254541015625,-0.022677704691886902,0.13209572434425354,0.07475243508815765
1761316310804468000,0.351468017578125,-0.027564482763409615,0.1241547018289566,0.07780666649341583
1761316310823390200,0.37039013671875,-0.06421531736850739,0.05207473039627075,0.1474432498216629
1761316310842312700,0.389312744140625,-0.1265217363834381,0.08933641016483307,0.1340046226978302
1761316310861235200,0.408235107421875,-0.19066070020198822,-0.017561858519911766,0.16699036955833435
1761316310880157700,0.42715771484375,0.018249060958623886,0.1522536724805832,0.11812258511781693
1761316310899080000,0.446079833984375,0.030466007068753242,0.11377029865980148,0.02038702741265297
1761316310918002400,0.46500244140625,0.13797512650489807,0.10766182839870453,0.0955212414264679
1761316310936925000,0.483925048828125,0.17584764957427979,0.046577103435993195,0.1993652731180191
1761316310955847400,0.502847412109375,0.06772769242525101,0.04107947647571564,0.2262425571680069
1761316310974769700,0.521769775390625,-0.09292513877153397,0.14370182156562805,0.15049749612808228
1761316310993692200,0.540692138671875,-0.21020781993865967,0.1638597846031189,0.07719582319259644
1761316311012614700,0.55961474609375,-0.18577392399311066,0.12048961967229843,-0.015042114071547985
1761316311031537200,0.578537109375,-0.194325789809227,0.23227466642856598,-0.11705360561609268
1761316311050459400,0.59745947265625,-0.14423631131649017,0.441795289516449,-0.15920206904411316
1761316311069382000,0.6163818359375,-0.09231429547071457,0.6489488482475281,-0.07307260483503342
1761316311088304400,0.635304443359375,-0.012904148548841476,0.7185854315757751,0.08513683825731277
1761316311107227000,0.654226806640625,0.04023956134915352,0.8083800077438354,0.12423106282949448
1761316311126149000,0.673149169921875,0.0817771777510643,0.520594596862793,0.1340046226978302
1761316311145071600,0.692071533203125,0.19234053790569305,0.047798797488212585,0.12972868978977203
1761316311163994000,0.710994140625,0.1721825748682022,-0.18126893043518066,0.10040801763534546
1761316311182916600,0.72991650390625,0.052456509321928024,0.054518118500709534,0.08574768155813217
1761316311201838800,0.7488388671875,0.021914144977927208,0.23593975603580475,0.11262496560811996
1761316311220761300,0.76776123046875,-0.019623467698693275,0.22005772590637207,0.1474432498216629
1761316311239683800,0.786683837890625,-0.020845163613557816,0.1253764033317566,0.07902836054563522
1761316311258606300,0.8056064453125,-0.03184041380882263,0.06001574173569679,-0.0034360159188508987
1761316311277528600,0.824528564453125,-0.03489464893937111,0.01847812905907631,-0.0492495596408844
1761316311296451000,0.843451171875,-0.036727190017700195,-0.004734066314995289,-0.07124006003141403
1761316311315373600,0.86237353515625,-0.04100312292575836,-0.0022906772792339325,-0.06696412712335587
1761316311334296000,0.881296142578125,-0.045889899134635925,0.02214321307837963,-0.04741701856255531
1761316311353218300,0.90021826171875,-0.030007870867848396,0.04291202127933502,-0.028480753302574158
1761316311372140800,0.919140869140625,-0.014125842601060867,0.07040014863014221,-0.012598725035786629
1761316311391063300,0.938063232421875,0.00908635277301073,0.22311195731163025,0.006337540224194527
1761316311409985500,0.956985595703125,0.0005344913806766272,0.13087402284145355,-0.04680617153644562
1761316311428908000,0.975907958984375,-0.017180079594254494,0.04963133856654167,-0.08101361989974976
1761316311447830500,0.99483056640625,-0.018401773646473885,-0.06642963737249374,-0.11888615041971207
1761316311466753000,1.0137529296875,-0.02817532978951931,-0.12812520563602448,-0.1280488520860672
1761316311485675500,1.032675537109375,-0.028786176815629005,-0.04199574887752533,-0.03336753323674202
1761316311504597800,1.05159765625,-0.022066857665777206,0.07895200699567795,0.011835165321826935
1761316311523520300,1.070520263671875,-0.047111593186855316,0.11926792562007904,-0.019928891211748123
1761316311542442800,1.08944287109375,-0.055052608251571655,0.04474456235766411,-0.09200886636972427
1761316311561365000,1.108364990234375,-0.05016583204269409,-0.018783552572131157,-0.1689756214618683
1761316311580287500,1.12728759765625,-0.006184828467667103,-0.024281177669763565,-0.154926136136055
1761316311599210000,1.1462099609375,-0.00007635590736754239,-0.0456608310341835,-0.1005607321858406
1761316311618132500,1.165132568359375,0.004199574701488018,0.012369656935334206,-0.09017632901668549
1761316311637054700,1.1840546875,0.005421269219368696,0.0331384651362896,-0.09200886636972427
1761316311655977200,1.202977294921875,0.06589514762163162,0.09177979826927185,-0.08101361989974976
1761316311674899700,1.221899658203125,0.03962871432304382,0.13392825424671173,-0.06390989571809769
1761316311693822000,1.240822021484375,-0.015958385542035103,0.256708562374115,-0.02542651630938053
1761316311712744400,1.259744384765625,0.01885990984737873,0.2017323076725006,-0.04253023862838745
1761316311731667000,1.2786669921875,0.07566870748996735,-0.029778804630041122,-0.12132953852415085
1761316311750589400,1.29758935546875,0.18317782878875732,-0.30221667885780334,-0.2331145852804184
1761316311769511700,1.31651171875,0.173404261469841,-0.4934118688106537,-0.33085015416145325
1761316311788434200,1.33543408203125,0.2143310308456421,-0.5318952798843384,-0.30702710151672363
1761316311807356700,1.354356689453125,0.21677441895008087,-0.5172349214553833,-0.09261971712112427
1761316311826279200,1.373279052734375,0.20822255313396454,-0.32787227630615234,0.03199312463402748
1761316311845201400,1.392201416015625,0.19111883640289307,-0.13179029524326324,-0.008933641016483307
1761316311864124000,1.4111240234375,0.13125580549240112,-0.007788302376866341,-0.07673768699169159
1761316311883046400,1.43004638671875,0.061619218438863754,0.09666658192873001,-0.21540001034736633
1761316311901969000,1.448968994140625,0.0817771777510643,0.12171131372451782,-0.2618243992328644
1761316311920891100,1.46789111328125,0.07566870748996735,0.17241163551807404,-0.17752748727798462
1761316311939813600,1.486813720703125,0.04879142343997955,0.1895153671503067,-0.1280488520860672
1761316311958736100,1.505736083984375,-0.06665870547294617,0.07711946964263916,-0.15920206904411316
1761316311977658400,1.524658447265625,-0.15950748324394226,-0.0029015245381742716,-0.1152210608124733
1761316311996580900,1.543580810546875,-0.24319356679916382,-0.14828316867351532,-0.13232478499412537
1761316312015503400,1.56250341796875,-0.26457321643829346,0.045355409383773804,-0.14515258371829987
1761316312034425900,1.58142578125,-0.21387289464473724,0.16935740411281586,-0.16286714375019073
1761316312053348000,1.60034814453125,-0.11613733321428299,0.18768282234668732,-0.19951798021793365
1761316312072270600,1.6192705078125,-0.06482616811990738,0.1779092699289322,-0.31863319873809814
1761316312091193000,1.638193115234375,-0.04772244393825531,0.2029540091753006,-0.391934871673584
1761316312110115300,1.657115234375,-0.04100312292575836,0.1626380831003189,-0.4676799178123474
1761316312129037800,1.676037841796875,-0.05444176122546196,0.13576079905033112,-0.5226562023162842
1761316312147960300,1.694960205078125,-0.05138752609491348,0.1779092699289322,-0.4908921420574188
1761316312166882800,1.7138828125,0.010308047756552696,0.34100547432899475,-0.5305972099304199
1761316312185805300,1.732805419921875,-0.07948649674654007,0.31290650367736816,-0.47501009702682495
1761316312204727600,1.7517275390625,-0.31649523973464966,0.3483356535434723,-0.3516189455986023
1761316312223650000,1.770650146484375,-0.540065348148346,0.4637857675552368,-0.30336201190948486
1761316312242572500,1.789572509765625,-0.590765655040741,0.4558447599411011,-0.3491755723953247
1761316312261494800,1.808494873046875,-0.5938199162483215,0.3049654960632324,-0.37177690863609314
1761316312280417300,1.827417236328125,-0.5681642889976501,0.3232909142971039,-0.3400128483772278
1761316312299339800,1.84633984375,-0.5229616165161133,0.5016583204269409,-0.22761696577072144
1761316312318262300,1.86526220703125,-0.48997586965560913,0.6446729302406311,-0.048638712614774704
1761316312337184500,1.8841845703125,-0.503414511680603,0.7680640816688538,0.13156123459339142
1761316312356107000,1.90310693359375,-0.4985277056694031,0.7894437313079834,0.17981816828250885
1761316312375029500,1.922029541015625,-0.4539358615875244,0.736299991607666,0.18959172070026398
1761316312393951700,1.94095166015625,-0.3665847182273865,0.7167528867721558,0.34963369369506836
1761316312412874200,1.959874267578125,-0.10330954194068909,0.6739935874938965,0.4992912709712982
1761316312431796700,1.978796630859375,0.253425270318985,0.5322006940841675,0.4125509560108185
1761316312450719200,1.99771923828125,0.5771743059158325,0.20845162868499756,0.41621604561805725
1761316312469641500,2.016641357421875,0.8740460872650146,-0.06337540596723557,0.4901285767555237
1761316312488564000,2.03556396484375,1.0891406536102295,-0.5245651006698608,0.6471163034439087
1761316312507486500,2.054486572265625,1.1917630434036255,-0.6558972597122192,1.02278733253479
1761316312526409000,2.073408935546875,1.0047674179077148,-0.47019967436790466,1.5194826126098633
1761316312545331200,2.092331298828125,0.6840725541114807,-0.2148655205965042,2.137660026550293
1761316312564253700,2.111253662109375,0.6706339120864868,0.1626380831003189,2.5292131900787354
1761316312583176200,2.13017626953125,0.7329403758049011,0.4088095426559448,2.403378486633301
1761316312602098400,2.149098388671875,0.7976901531219482,0.125987246632576,2.0460329055786133
1761316312621021000,2.16802099609375,0.9522345066070557,-0.3755183517932892,1.6300458908081055
1761316312639943400,2.186943359375,0.9143620133399963,-0.48547086119651794,1.31790292263031
1761316312658866000,2.205865966796875,0.8392277956008911,-0.7756233215332031,0.8841250538825989
1761316312677788200,2.2247880859375,0.9595646858215332,-1.541625738143921,0.31359371542930603
1761316312696710700,2.243710693359375,1.0298120975494385,-2.133613109588623,-0.14454172551631927
1761316312715633200,2.262633056640625,1.0157626867294312,-2.0993292331695557,-0.31802234053611755
1761316312734555400,2.281555419921875,0.9302440285682678,-1.6418046951293945,-0.21051323413848877
1761316312753478000,2.300477783203125,0.8227348923683167,-1.1769499778747559,0.014278554357588291
1761316312772400400,2.319400390625,0.7078956365585327,-1.0841012001037598,0.1602710485458374
1761316312791323000,2.338322998046875,0.639480710029602,-0.867861270904541,0.17676392197608948
1761316312810245000,2.3572451171875,0.5863370299339294,-0.7707365155220032,0.03504735976457596
1761316312829167600,2.376167724609375,0.546631932258606,-1.0682191848754883,-0.28992336988449097
1761316312848090000,2.395090087890625,0.5301390886306763,-1.2581926584243774,-0.6307761669158936
1761316312867012600,2.4140126953125,0.4201865494251251,-1.190388560295105,-0.8525137305259705
1761316312885934800,2.432934814453125,0.2137201875448227,-0.8819107413291931,-0.8836669325828552
1761316312904857300,2.451857421875,-0.0745997205376625,-0.612527072429657,-0.7779903411865234
1761316312923779800,2.47077978515625,-0.3091650605201721,-0.4647020399570465,-0.7553889751434326
1761316312942702300,2.489702392578125,-0.39590537548065186,-0.2515163719654083,-0.8415184617042542
1761316312961624600,2.50862451171875,-0.4423297643661499,-0.0004581354442052543,-1.0198858976364136
1761316312980547000,2.527547119140625,-0.49058669805526733,0.17363333702087402,-1.168932557106018
1761316312999469600,2.546469482421875,-0.45088163018226624,0.2157817929983139,-1.182982087135315
1761316313018391800,2.565391845703125,-0.3109976053237915,0.0587940476834774,-1.0925766229629517
1761316313037314300,2.584314208984375,0.006032116711139679,-0.2307475507259369,-0.9325346946716309
1761316313056236800,2.60323681640625,0.4843255281448364,-0.710262656211853,-0.6863632798194885
1761316313075159300,2.6221591796875,0.888706386089325,-1.1384665966033936,-0.44813281297683716
1761316313094081500,2.64108154296875,1.1123528480529785,-1.2893458604812622,-0.35650572180747986
1761316313113004000,2.660004150390625,1.1184613704681396,-1.0175188779830933,-0.3992650508880615
1761316313131926500,2.678926513671875,0.981555163860321,-0.640626072883606,-0.3754419982433319
1761316313150848800,2.697848876953125,0.7543200254440308,-0.8244910836219788,-0.5055524706840515
1761316313169771300,2.716771240234375,0.593667209148407,-0.812274158000946,-0.8940513134002686
1761316313188693800,2.73569384765625,0.4495072364807129,-0.05360184609889984,-1.080359697341919
1761316313207616300,2.7546162109375,0.5289173722267151,0.21272756159305573,-0.5922927856445312
1761316313226538500,2.77353857421875,0.45378315448760986,0.3080197274684906,0.05703786388039589
1761316313245461000,2.7924609375,0.29557371139526367,0.6874322295188904,-0.057801421731710434
1761316313264383500,2.811383544921875,-0.1790546029806137,0.9525399208068848,-0.2703762650489807
1761316313283306000,2.830305908203125,-0.9163472652435303,1.6605119705200195,-0.1665322333574295
1761316313302228200,2.849228271484375,-1.3256149291992188,2.2017226219177246,-0.33146098256111145
1761316313321150700,2.868150634765625,-0.89680016040802,1.5139086246490479,-0.5012765526771545
1761316313340073200,2.8870732421875,-0.12102411687374115,0.23471805453300476,-0.7902072668075562
1761316313358995500,2.905995361328125,0.24731677770614624,0.014202198944985867,-0.8653414845466614
1761316313377918000,2.92491796875,0.11842801421880722,0.3837648034095764,-0.7786011695861816
1761316313396840400,2.94384033203125,-0.13263021409511566,0.6043570041656494,-0.6326087117195129
1761316313415763000,2.962762939453125,-0.20837527513504028,0.5933617353439331,-0.46462568640708923
1761316313434685200,2.981685302734375,-0.25357797741889954,0.8163210153579712,-0.16042375564575195
1761316313453607700,3.000607666015625,-0.33054471015930176,0.8822925090789795,0.1602710485458374
1761316313472530200,3.0195302734375,-0.35558944940567017,0.8456416726112366,0.2005869746208191
1761316313491452400,3.038452392578125,-0.3769691288471222,0.7857786417007446,0.05215108394622803
1761316313510375000,3.057375,-0.3794125020503998,0.6422295570373535,-0.2074590027332306
1761316313529297400,3.07629736328125,-0.36780640482902527,0.60252445936203,-0.36872267723083496
1761316313548220000,3.095219970703125,-0.4392755329608917,0.5695387125015259,-0.40842774510383606
1761316313567142100,3.11414208984375,-0.5681642889976501,0.6465054750442505,-0.3626142144203186
1761316313586064600,3.133064697265625,-0.6451310515403748,0.6092438101768494,-0.3076379597187042
1761316313604987100,3.151987060546875,-0.7227086424827576,0.5396072268486023,-0.32046574354171753
1761316313623909600,3.17090966796875,-0.7611920237541199,0.5224271416664124,-0.3485647141933441
1761316313642832000,3.189831787109375,-0.7556943893432617,0.49677154421806335,-0.38460469245910645
1761316313661754400,3.20875439453125,-0.7214869856834412,0.5065450668334961,-0.5031090974807739
1761316313680676900,3.2276767578125,-0.6585696935653687,0.3953709006309509,-0.6185591816902161
1761316313699599000,3.24659912109375,-0.6304707527160645,0.12048961967229843,-0.5428141355514526
1761316313718521600,3.265521484375,-0.5761052966117859,0.23105297982692719,-0.3528406620025635
1761316313737444000,3.284444091796875,-0.4838673770427704,0.5138752460479736,-0.021150587126612663
1761316313756366600,3.30336669921875,-0.38185590505599976,0.8480850458145142,0.2909923493862152
1761316313775288800,3.322288818359375,-0.2975589632987976,0.9164999723434448,0.40216657519340515
1761316313794211300,3.34121142578125,-0.21326205134391785,0.9073372483253479,0.39117130637168884
1761316313813133800,3.3601337890625,-0.13263021409511566,0.8725189566612244,0.445536732673645
1761316313832056000,3.37905615234375,0.0683385357260704,0.9843040108680725,0.5609868764877319
1761316313850978600,3.397978515625,0.4134672284126282,1.142513394355774,0.7069793343544006
1761316313869901000,3.416901123046875,0.6290963292121887,0.7338566184043884,1.1131927967071533
1761316313888823600,3.435823486328125,0.7805864214897156,0.09239064902067184,1.626991629600525
1761316313907745800,3.454745849609375,1.1038010120391846,-0.44271156191825867,2.100398302078247
1761316313926668300,3.473668212890625,1.4739744663238525,-0.7041541934013367,2.0924572944641113
1761316313945590800,3.4925908203125,1.666391372680664,-0.5441122055053711,1.9666227102279663
1761316313964513300,3.51151318359375,1.4849697351455688,0.11682453751564026,1.9916675090789795
1761316313983435500,3.530435546875,1.349361538887024,0.8816816806793213,2.1767542362213135
1761316314002358000,3.54935791015625,1.2510151863098145,0.8462525010108948,2.184084415435791
1761316314021280500,3.568280517578125,1.132510781288147,0.09116895496845245,1.9043163061141968
1761316314040202800,3.58720263671875,1.1795459985733032,-0.4146125912666321,1.6343218088150024
1761316314059125200,3.606125244140625,1.3310362100601196,-0.6888830065727234,1.3460019826889038
1761316314078047700,3.6250478515625,1.3096565008163452,-0.9955283403396606,1.0576056241989136
1761316314096970200,3.64397021484375,1.09219491481781,-1.2526949644088745,0.8315922021865845
1761316314115892500,3.662892578125,0.9449043273925781,-1.4182345867156982,0.6141305565834045
1761316314134815000,3.68181494140625,0.9662840366363525,-1.8116202354431152,0.3673482835292816
1761316314153737500,3.700737548828125,1.0078216791152954,-2.1519384384155273,0.1492757946252823
1761316314172659700,3.71965966796875,0.9870527982711792,-2.2044713497161865,-0.05535803362727165
1761316314191582200,3.738582275390625,0.7885274291038513,-2.126817464828491,-0.40842774510383606
1761316314210504700,3.757504638671875,0.3462740480899811,-1.9130208492279053,-0.7492805123329163
1761316314229427200,3.77642724609375,-0.07704310864210129,-1.5617836713790894,-0.8512920141220093
1761316314248349400,3.795349365234375,-0.3103867769241333,-0.9527690410614014,-0.7333984971046448
1761316314267272000,3.81427197265625,-0.4032355546951294,-0.3180987238883972,-0.5593070387840271
1761316314286194400,3.8331943359375,-0.4185067415237427,0.030695075169205666,-0.43591588735580444
1761316314305117000,3.852116943359375,-0.4166741967201233,0.24937839806079865,-0.4328616261482239
1761316314324039200,3.8710390625,-0.42339351773262024,0.4088095426559448,-0.5550310611724854
1761316314342961700,3.889961669921875,-0.4429406225681305,0.5554892420768738,-0.6955259442329407
1761316314361884200,3.90888427734375,-0.4667636752128601,0.5896966457366943,-0.8189170956611633
1761316314380806400,3.927806396484375,-0.42461520433425903,0.2298312783241272,-0.8604547381401062
1761316314399729000,3.94672900390625,-0.17661121487617493,-0.2820587158203125,-0.7834879755973816
1761316314418651400,3.9656513671875,0.2112767994403839,-0.6968240141868591,-0.7737144231796265
1761316314437574000,3.984573974609375,0.5313607454299927,-1.1152544021606445,-0.7798228859901428
1761316314456496000,4.00349609375,0.6407024264335632,-1.052947998046875,-0.6124507188796997
1761316314475418600,4.022418701171875,0.5881695747375488,-0.5630484819412231,-0.35833826661109924
1761316314494341000,4.041341064453125,0.5551838278770447,0.014202198944985867,-0.26487863063812256
1761316314513263400,4.060263427734375,0.4470638334751129,0.28969430923461914,-0.43469417095184326
1761316314532185900,4.079185791015625,0.21982865035533905,0.3574983477592468,-0.5935144424438477
1761316314551108400,4.0981083984375,-0.000687203137204051,0.2713688910007477,-0.4127036929130554
1761316314570030800,4.11703076171875,-0.04772244393825531,-0.1647760421037674,-0.06574243307113647
1761316314588953000,4.135953125,-0.24380441009998322,-0.07070557028055191,-0.019928891211748123
1761316314607875600,4.15487548828125,-0.6439093947410583,0.6758261322975159,-0.3656684458255768
1761316314626798000,4.173798095703125,-1.1588536500930786,1.6525708436965942,-0.5525876879692078
1761316314645720600,4.192720458984375,-1.6243956089019775,2.115593194961548,-0.8347991108894348
1761316314664642800,4.211642822265625,-1.3928080797195435,1.695330262184143,-0.8341882824897766
1761316314683565300,4.2305654296875,-0.4441623091697693,0.2585411071777344,-0.5593070387840271
1761316314702487800,4.24948779296875,0.14958122372627258,0.0844496339559555,-0.521434485912323
1761316314721410000,4.26841015625,0.21555273234844208,0.6868214011192322,-0.502498209476471
1761316314740332500,4.28733251953125,0.007253811229020357,1.1877161264419556,-0.5006656646728516
1761316314759255000,4.306255126953125,-0.0361163429915905,1.0484429597854614,-0.5819083452224731
1761316314778177500,4.325177490234375,-0.05322006717324257,0.6739935874938965,-0.5367056727409363
1761316314797099800,4.344099853515625,-0.2077644169330597,0.30985227227211,-0.4579063653945923
1761316314816022300,4.363022216796875,-0.378190815448761,0.2011214643716812,-0.37116608023643494
1761316314834944800,4.38194482421875,-0.4802022874355316,0.4375193417072296,-0.2752630412578583
1761316314853867000,4.400866943359375,-0.5131880640983582,0.7143095135688782,-0.1787491738796234
1761316314872789500,4.41978955078125,-0.43744298815727234,0.7729508280754089,-0.153704434633255
1761316314891712000,4.4387119140625,-0.405678927898407,0.7967739105224609,-0.1659213900566101
1761316314910634500,4.457634521484375,-0.46432027220726013,0.7668423652648926,-0.22517357766628265
1761316314929556700,4.476556640625,-0.5229616165161133,0.7381325364112854,-0.3100813329219818
1761316314948479200,4.495479248046875,-0.5376219153404236,0.6141305565834045,-0.34306707978248596
1761316314967401700,4.514401611328125,-0.5724402666091919,0.5933617353439331,-0.3339043855667114
1761316314986324200,4.53332421875,-0.5846571922302246,0.5848098993301392,-0.33146098256111145
1761316315005246500,4.55224658203125,-0.5486171841621399,0.5402180552482605,-0.3772745430469513
1761316315024169000,4.5711689453125,-0.4710395932197571,0.4503471553325653,-0.4041518270969391
1761316315043091500,4.590091552734375,-0.3354314863681793,0.32878854870796204,-0.308859646320343
1761316315062013700,4.609013671875,-0.1662268042564392,0.40453359484672546,-0.15003935992717743
1761316315080936200,4.627936279296875,-0.0165692325681448,0.6379535794258118,-0.007711946498602629
1761316315099858700,4.646858642578125,0.04756972938776016,0.8144884705543518,0.12728530168533325
1761316315118781200,4.66578125,0.029855160042643547,0.8468633890151978,0.2531198263168335
1761316315137703400,4.684703369140625,0.0005344913806766272,0.760123074054718,0.3056527078151703
1761316315156626000,4.7036259765625,-0.034283801913261414,0.5860316157341003,0.24945475161075592
1761316315175548400,4.72254833984375,-0.043446511030197144,0.3593308925628662,0.1730988472700119
1761316315194470700,4.741470703125,-0.03061871975660324,0.21944688260555267,0.1749313771724701
1761316315213393200,4.76039306640625,0.09032903611660004,0.31351736187934875,0.2384594976902008
1761316315232315600,4.779315673828125,0.24548424780368805,0.32634514570236206,0.371013343334198
1761316315251238100,4.798238037109375,0.40125030279159546,-0.03161134570837021,0.7124769687652588
1761316315270160400,4.817160400390625,0.6846834421157837,-0.5031854510307312,1.0209548473358154
1761316315289083000,4.836082763671875,1.0029348134994507,-0.7621846795082092,1.3484452962875366
1761316315308005400,4.85500537109375,1.188708782196045,-0.872137188911438,1.6135530471801758
1761316315326927600,4.873927734375,1.2522368431091309,-0.9949174523353577,1.6911306381225586
1761316315345850000,4.89285009765625,1.2039799690246582,-0.3706315755844116,1.8395664691925049
1761316315364772600,4.911772705078125,1.2015365362167358,0.32878854870796204,1.909203052520752
1761316315383695000,4.930695068359375,1.2168077230453491,0.870686411857605,2.036870241165161
1761316315402617300,4.949617431640625,1.0793671607971191,0.8725189566612244,2.0154905319213867
1761316315421539800,4.968539794921875,0.852666437625885,0.4155288338661194,1.6153855323791504
1761316315440462300,4.98746240234375,0.8355627059936523,-0.3571929335594177,1.0405019521713257
1761316315459384600,5.006384521484375,0.8868738412857056,-1.1018157005310059,0.7350783348083496
1761316315478307000,5.02530712890625,0.8960365653038025,-1.7395403385162354,0.46630552411079407
1761316315497229600,5.0442294921875,0.8532772660255432,-1.8898086547851562,0.23235101997852325
1761316315516152000,5.063152099609375,0.8270108103752136,-1.853157877922058,-0.028480753302574158
1761316315535074300,5.08207421875,0.7921925187110901,-1.9802141189575195,-0.10789089649915695
1761316315553996800,5.100996826171875,0.7384379506111145,-2.141554117202759,-0.05596888065338135
1761316315572919300,5.119919189453125,0.6547518968582153,-2.115211248397827,-0.1152210608124733
1761316315591841500,5.138841552734375,0.4769953489303589,-1.7664175033569336,-0.32962843775749207
1761316315610764000,5.157763916015625,0.15630054473876953,-1.4793193340301514,-0.5269321203231812
1761316315629686500,5.1766865234375,-0.17172443866729736,-1.1964970827102661,-0.5525876879692078
1761316315648609000,5.195609130859375,-0.3922402858734131,-0.7456917762756348,-0.5134934782981873
1761316315667531300,5.21453125,-0.47348299622535706,-0.3052709102630615,-0.48905959725379944
1761316315686453800,5.233453857421875,-0.4582118093967438,-0.03894151374697685,-0.4572955369949341
1761316315705376300,5.252376220703125,-0.4404972195625305,0.16691401600837708,-0.4585172235965729
1761316315724298800,5.271298828125,-0.43499961495399475,0.3721587061882019,-0.5580853223800659
1761316315743221000,5.290220947265625,-0.47470468282699585,0.5353312492370605,-0.6888066530227661
1761316315762143500,5.3091435546875,-0.48875415325164795,0.41858309507369995,-0.8201388120651245
1761316315781066000,5.32806591796875,-0.3641413152217865,-0.1898207813501358,-0.8696174025535583
1761316315799988200,5.34698828125,-0.014736690558493137,-0.7591304183006287,-0.840296745300293
1761316315818910700,5.36591064453125,0.39025503396987915,-1.1525160074234009,-0.9056574106216431
1761316315837833200,5.384833251953125,0.6089383363723755,-1.219098448753357,-0.8488486409187317
1761316315856755700,5.403755615234375,0.621155321598053,-0.8086090683937073,-0.549533486366272
1761316315875678000,5.422677978515625,0.5619031190872192,-0.09941539168357849,-0.2697654068470001
1761316315894600400,5.441600341796875,0.4605024755001068,0.4747810363769531,-0.2331145852804184
1761316315913523000,5.46052294921875,0.26075541973114014,0.4369085133075714,-0.5819083452224731
1761316315932445200,5.479445068359375,-0.14729054272174835,0.8993962407112122,-1.2086377143859863
1761316315951367700,5.49836767578125,-0.7642462849617004,1.2152042388916016,-1.1848145723342896
1761316315970290200,5.517290283203125,-0.854040801525116,0.47172680497169495,-0.1940203607082367
1761316315989212700,5.536212646484375,-0.3916294574737549,0.1247655525803566,0.5365529656410217
1761316316008135000,5.555135009765625,0.03718532621860504,0.7692857384681702,0.3991123139858246
1761316316027057400,5.574057373046875,-0.12102411687374115,1.8120020627975464,-0.1420983374118805
1761316316045980000,5.59297998046875,-0.8558733463287354,2.2389843463897705,-0.37177690863609314
1761316316064902400,5.61190234375,-1.3903647661209106,1.9659355878829956,-0.7224032282829285
1761316316083824600,5.63082470703125,-0.9224557280540466,0.8517501354217529,-0.9624662399291992
1761316316102747100,5.6497470703125,-0.08437328040599823,-0.32909396290779114,-1.0724186897277832
1761316316121669600,5.668669677734375,0.16973918676376343,-0.1250709742307663,-1.0382112264633179
1761316316140591900,5.687591796875,0.007253811229020357,0.8358681201934814,-0.6649835705757141
1761316316159514400,5.706514404296875,-0.2205922156572342,0.8609128594398499,-0.20806984603405
1761316316178436900,5.725436767578125,-0.4044572412967682,0.7405759692192078,-0.1555369794368744
1761316316197359000,5.744359130859375,-0.3806341886520386,0.8566369414329529,-0.13782241940498352
1761316316216281600,5.763281494140625,-0.4130091071128845,0.9067264199256897,0.12789614498615265
1761316316235204000,5.7822041015625,-0.4527141749858856,1.0722659826278687,0.30992862582206726
1761316316254126600,5.801126708984375,-0.4185067415237427,0.8456416726112366,0.20303036272525787
1761316316273048800,5.820048828125,-0.35436776280403137,0.5077667832374573,-0.09567394852638245
1761316316291971300,5.838971435546875,-0.3348206579685211,0.30313295125961304,-0.4127036929130554
1761316316310893800,5.857893798828125,-0.375747412443161,0.4253024160861969,-0.5324297547340393
1761316316329816000,5.876816162109375,-0.47348299622535706,0.6697176694869995,-0.4658474028110504
1761316316348738600,5.895738525390625,-0.5486171841621399,0.7301915287971497,-0.3149681091308594
1761316316367661000,5.9146611328125,-0.6158103942871094,0.6379535794258118,-0.28137150406837463
1761316316386583600,5.93358349609375,-0.6909446120262146,0.5297572612762451,-0.3992650508880615
1761316316405505800,5.952505859375,-0.7789065837860107,0.4002576768398285,-0.52571040391922
1761316316424428300,5.97142822265625,-0.8161683082580566,0.29885703325271606,-0.572134792804718
1761316316443350800,5.990350830078125,-0.7856259346008301,0.19623468816280365,-0.6258893609046936
1761316316462273300,6.009273193359375,-0.7007181644439697,0.1620272397994995,-0.6307761669158936
1761316316481195500,6.028195556640625,-0.5144097208976746,0.19867807626724243,-0.549533486366272
1761316316500118000,6.047117919921875,-0.3513135313987732,0.31229567527770996,-0.30580541491508484
1761316316519040500,6.06604052734375,-0.25296711921691895,0.5212054252624512,0.014278554357588291
1761316316537962800,6.084962646484375,-0.20348849892616272,0.7839460968971252,0.25983914732933044
1761316316556885200,6.10388525390625,-0.18455222249031067,1.083261251449585,0.4247679114341736
1761316316575807700,6.122807861328125,-0.1546207070350647,1.2145934104919434,0.6129088401794434
1761316316594730200,6.141730224609375,0.06772769242525101,1.0679900646209717,0.8499175906181335
1761316316613652500,6.160652587890625,0.5093702673912048,0.8639671206474304,0.9042829871177673
1761316316632575000,6.179574951171875,0.9216921329498291,0.16630317270755768,0.9977426528930664
1761316316651497500,6.19849755859375,1.2675080299377441,-0.7597413063049316,1.2116155624389648
1761316316670419700,6.217419677734375,1.5167337656021118,-1.4182345867156982,1.3954805135726929
1761316316689342200,6.23634228515625,1.5796509981155396,-1.2087140083312988,1.5335320234298706
1761316316708264700,6.2552646484375,1.355470061302185,-0.6699467301368713,1.6642533540725708
1761316316727187200,6.274187255859375,1.199093222618103,-0.08719844371080399,1.7625997066497803
1761316316746109400,6.293109375,1.2797249555587769,0.6416186690330505,1.8908777236938477
1761316316765032000,6.312031982421875,1.3194301128387451,0.8218186497688293,1.9733420610427856
1761316316783954400,6.330954345703125,1.1850436925888062,0.2011214643716812,1.7320574522018433
1761316316802877000,6.349876953125,1.1227372884750366,-0.4671454429626465,1.1413681507110596
1761316316821799200,6.368799072265625,1.2106993198394775,-1.1231954097747803,0.6947624087333679
1761316316840721700,6.3877216796875,1.2534586191177368,-1.7566440105438232,0.3972797989845276
1761316316859644200,6.40664404296875,1.1264023780822754,-2.117654800415039,0.16637952625751495
1761316316878566400,6.42556640625,1.0310338735580444,-1.8995822668075562,0.0014507622690871358
1761316316897489000,6.444489013671875,1.0108758211135864,-1.9417307376861572,-0.10728005319833755
1761316316916411400,6.463411376953125,0.990717887878418,-2.283881664276123,-0.11216682940721512
1761316316935334000,6.482333984375,0.9870527982711792,-2.5337181091308594,-0.10300412029027939
1761316316954256100,6.501256103515625,0.8312867879867554,-2.234402894973755,-0.3076379597187042
1761316316973178600,6.5201787109375,0.4910448491573334,-1.802457571029663,-0.6448256373405457
1761316316992101000,6.53910107421875,0.09704835712909698,-1.566670536994934,-0.8494594693183899
1761316317011023600,6.558023681640625,-0.19860170781612396,-1.2111574411392212,-0.8494594693183899
1761316317029945900,6.57694580078125,-0.3342097997665405,-0.6968240141868591,-0.7199598550796509
1761316317048868400,6.595868408203125,-0.3378748893737793,-0.3333698809146881,-0.5409815907478333
1761316317067790800,6.614790771484375,-0.3885752260684967,-0.06398624926805496,-0.4414134919643402
1761316317086713000,6.633713134765625,-0.46126604080200195,0.1772984117269516,-0.48539450764656067
1761316317105635600,6.652635498046875,-0.4979168772697449,0.4766135811805725,-0.5977904200553894
1761316317124558000,6.67155810546875,-0.4948626458644867,0.5585434436798096,-0.6881957650184631
1761316317143480600,6.69048046875,-0.39590537548065186,0.28602921962738037,-0.6613185405731201
1761316317162402800,6.70940283203125,-0.14301460981369019,-0.1916533261537552,-0.5452575087547302
1761316317181325300,6.7283251953125,0.26197710633277893,-0.6650599241256714,-0.5562527775764465
1761316317200247800,6.747247802734375,0.5411342978477478,-0.9949174523353577,-0.5507551431655884
1761316317219170300,6.76617041015625,0.6016082167625427,-0.5770979523658752,-0.3247416615486145
1761316317238092500,6.785092529296875,0.4776062071323395,0.1241547018289566,-0.07307260483503342
1761316317257015000,6.80401513671875,0.34993913769721985,0.5493807792663574,-0.0755159929394722
1761316317275937500,6.8229375,0.052456509321928024,0.6226824522018433,-0.5153260231018066
1761316317294860000,6.841860107421875,-0.2560213506221771,0.9629243612289429,-0.7547781467437744
1761316317313782300,6.8607822265625,-0.27923354506492615,0.639175295829773,-0.4847836494445801
1761316317332704800,6.879704833984375,-0.3635304868221283,0.1241547018289566,0.03382566571235657
1761316317351627300,6.898627197265625,-0.32993388175964355,0.32878854870796204,0.3679591119289398
1761316317370549500,6.917549560546875,-0.31893861293792725,1.2457466125488281,0.06558972597122192
1761316317389472000,6.936471923828125,-0.6359683275222778,1.9323389530181885,-0.040697697550058365
1761316317408394500,6.95539453125,-1.1246461868286133,1.986093521118164,-0.1653105467557907
1761316317427317000,6.97431689453125,-1.1692379713058472,1.8529287576675415,-0.3216874301433563
1761316317446239200,6.9932392578125,-0.4447731673717499,0.925662636756897,-0.5226562023162842
1761316317465161700,7.01216162109375,0.2558686435222626,0.35505497455596924,-0.5984012484550476
1761316317484084200,7.031084228515625,0.41041299700737,0.7900545597076416,-0.5996229648590088
1761316317503006700,7.0500068359375,0.21555273234844208,1.301944613456726,-0.3870480954647064
1761316317521929000,7.068928955078125,-0.017180079594254494,1.1779426336288452,-0.24960745871067047
1761316317540851500,7.0878515625,-0.25357797741889954,0.6776586771011353,-0.29297763109207153
1761316317559774000,7.10677392578125,-0.44782739877700806,0.3623851239681244,-0.4719558656215668
1761316317578696400,7.125696533203125,-0.5834354758262634,0.031916771084070206,-0.4847836494445801
1761316317597618700,7.14461865234375,-0.6158103942871094,0.149199441075325,-0.4291965663433075
1761316317616541200,7.163541259765625,-0.5437304377555847,0.055739812552928925,-0.43774840235710144
1761316317635463700,7.182463623046875,-0.47165045142173767,-0.01572931744158268,-0.5422033071517944
1761316317654386200,7.20138623046875,-0.4649311304092407,0.31168481707572937,-0.6356629133224487
1761316317673308400,7.220308349609375,-0.49058669805526733,0.6135197281837463,-0.6100073456764221
1761316317692231000,7.23923095703125,-0.563277542591095,0.6141305565834045,-0.5586961507797241
1761316317711153400,7.2581533203125,-0.6017609238624573,0.5536566972732544,-0.5611395835876465
1761316317730076000,7.277075927734375,-0.6597914099693298,0.43568679690361023,-0.5470900535583496
1761316317748998100,7.295998046875,-0.7495859265327454,0.33001023530960083,-0.5703022480010986
1761316317767920600,7.314920654296875,-0.8320503234863281,0.35444411635398865,-0.6118398904800415
1761316317786843100,7.333843017578125,-0.8741987943649292,0.3855973184108734,-0.5916818976402283
1761316317805765600,7.352765625,-0.8460997939109802,0.27625566720962524,-0.5226562023162842
1761316317824687900,7.37168798828125,-0.7618029117584229,0.2408265322446823,-0.46034976840019226
1761316317843610400,7.3906103515625,-0.6121453046798706,0.33856210112571716,-0.42308807373046875
1761316317862532900,7.409532958984375,-0.39590537548065186,0.4039227366447449,-0.33268269896507263
1761316317881455400,7.428455322265625,-0.18638476729393005,0.3067980408668518,-0.18485765159130096
1761316317900377600,7.447377685546875,-0.06604786217212677,0.22494450211524963,-0.07918107509613037
1761316317919300000,7.466300048828125,-0.05322006717324257,0.3965925872325897,0.024662958458065987
1761316317938222600,7.48522265625,-0.1008661538362503,0.7051467895507812,0.21707984805107117
1761316317957145000,7.50414501953125,-0.10575293004512787,1.0111812353134155,0.5108973979949951
1761316317976067300,7.5230673828125,-0.05566345527768135,1.0960890054702759,0.8945094347000122
1761316317994989800,7.54198974609375,0.23693238198757172,1.0576056241989136,1.2427687644958496
1761316318013912300,7.560912353515625,0.6840725541114807,0.5585434436798096,1.416249394416809
1761316318032834800,7.579834716796875,1.1392301321029663,-0.552664041519165,1.5414730310440063
1761316318051757000,7.598757080078125,1.5161229372024536,-1.4878711700439453,1.258039951324463
1761316318070679600,7.617679443359375,1.5631581544876099,-1.7151063680648804,0.9830822944641113
1761316318089602000,7.63660205078125,1.336533784866333,-1.4762650728225708,1.0686008930206299
1761316318108524500,7.655524658203125,1.051191806793213,-0.8318212628364563,1.3007992506027222
1761316318127446800,7.67444677734375,1.0212602615356445,0.0032069480512291193,1.511541485786438
1761316318146369300,7.693369384765625,1.1416735649108887,0.6410078406333923,1.832847237586975
1761316318165291800,7.712291748046875,1.199093222618103,0.5095993280410767,2.1211671829223633
1761316318184214300,7.73121435546875,1.1453386545181274,0.5438831448554993,1.8517835140228271
1761316318203136800,7.75013671875,0.9571213126182556,-0.0719272643327713,1.0808178186416626
1761316318222059000,7.76905908203125,0.9155836701393127,-0.9295567870140076,0.5799230933189392
1761316318240981500,7.7879814453125,0.9791117906570435,-1.413347840309143,0.3447469174861908
1761316318259904000,7.806904052734375,0.967505693435669,-1.654632568359375,0.1743205338716507
1761316318278826500,7.825826416015625,0.8997016549110413,-1.7322101593017578,0.0130568603053689
1761316318297748700,7.844748779296875,0.9082534909248352,-1.9240161180496216,-0.11705360561609268
1761316318316671200,7.863671142578125,0.907642662525177,-2.341301202774048,-0.20806984603405
1761316318335593700,7.88259375,0.7476006746292114,-2.4616382122039795,-0.3339043855667114
1761316318354516200,7.90151611328125,0.45744824409484863,-2.1139895915985107,-0.5275429487228394
1761316318373438500,7.9204384765625,0.13797512650489807,-1.7346534729003906,-0.7498913407325745
1761316318392361000,7.93936083984375,-0.08437328040599823,-1.3742536306381226,-0.8103652596473694
1761316318411283500,7.958283447265625,-0.20165595412254333,-0.8000571727752686,-0.6545991897583008
1761316318430206000,7.9772060546875,-0.2315874695777893,-0.2924431264400482,-0.417590469121933
1761316318449128200,7.996128173828125,-0.22486814856529236,0.09116895496845245,-0.2459423840045929
1761316318468050700,8.01505078125,-0.23036576807498932,0.27442312240600586,-0.2618243992328644
1761316318486973200,8.03397314453125,-0.2444152534008026,0.40453359484672546,-0.3907131850719452
1761316318505895700,8.052895751953125,-0.2963372766971588,0.44546034932136536,-0.5409815907478333
1761316318524818200,8.071818115234375,-0.35497862100601196,0.28725093603134155,-0.6607076525688171
1761316318543740400,8.090740478515626,-0.24930204451084137,-0.25212720036506653,-0.7999808192253113
1761316318562663000,8.109662841796874,0.12392564117908478,-0.8617527484893799,-0.827468991279602
1761316318581585400,8.12858544921875,0.6034407615661621,-1.4115153551101685,-0.8653414845466614
1761316318600508000,8.1475078125,0.7720345854759216,-1.4616048336029053,-0.7834879755973816
1761316318619430100,8.16643017578125,0.704230546951294,-0.7634063363075256,-0.4524087607860565
1761316318638352600,8.1853525390625,0.5545729398727417,-0.111632339656353,-0.17447324097156525
1761316318657275100,8.204275146484376,0.3994177579879761,0.1375933438539505,-0.18546849489212036
1761316318676197600,8.22319775390625,0.2503710091114044,0.23899398744106293,-0.4127036929130554
1761316318695120000,8.242119873046875,0.44339874386787415,0.30374380946159363,-0.5794649720191956
1761316318714042400,8.26104248046875,0.49715331196784973,0.35322242975234985,-0.39437827467918396
1761316318732964900,8.27996484375,0.1086544543504715,0.556100070476532,0.02405211143195629
1761316318751887400,8.298887451171876,-0.06360447406768799,1.1199121475219727,-0.17752748727798462
1761316318770809900,8.317809814453126,-0.6616239547729492,1.2616286277770996,-0.15920206904411316
1761316318789732000,8.336732177734374,-1.4404542446136475,1.0912022590637207,-0.018096350133419037
1761316318808654600,8.355654541015625,-1.8058172464370728,2.0331287384033203,-0.232503741979599
1761316318827577000,8.3745771484375,-1.4117443561553955,2.223102331161499,-0.4298073947429657
1761316318846499600,8.39349951171875,-0.19066070020198822,1.1577845811843872,-0.4798968732357025
1761316318865422000,8.412422119140626,0.5417451858520508,1.1748883724212646,-0.3076379597187042
1761316318884344300,8.43134423828125,0.20761170983314514,1.2231452465057373,0.09307785332202911
1761316318903266800,8.450266845703124,-0.34520506858825684,0.7747833728790283,0.032603971660137177
1761316318922189300,8.469189208984375,-0.3653630316257477,0.5408288836479187,-0.4169796109199524
1761316318941111800,8.48811181640625,-0.3140518367290497,0.07895200699567795,-0.7211815714836121
1761316318960034000,8.507033935546875,-0.3806341886520386,-0.4103366434574127,-0.8189170956611633
1761316318978956500,8.52595654296875,-0.42095011472702026,-0.50685054063797,-0.8830560445785522
1761316318997879000,8.544879150390624,-0.4117874205112457,-0.3364241421222687,-0.8781692981719971
1761316319016801500,8.563801513671875,-0.40812233090400696,-0.08108997344970703,-0.8146411776542664
1761316319035724000,8.58272412109375,-0.44965994358062744,0.11926792562007904,-0.7309551239013672
1761316319054646300,8.601646240234375,-0.5315134525299072,0.3220692276954651,-0.6484907269477844
1761316319073568800,8.62056884765625,-0.6066476702690125,0.42163732647895813,-0.5501443147659302
1761316319092491300,8.6394912109375,-0.7007181644439697,0.4124746024608612,-0.47806432843208313
1761316319111413800,8.658413818359374,-0.7697439193725586,0.39231663942337036,-0.5183802843093872
1761316319130336300,8.677336181640625,-0.7984537482261658,0.3080197274684906,-0.6265002489089966
1761316319149258500,8.696258544921875,-0.8363262414932251,0.3880407214164734,-0.7706601619720459
1761316319168181000,8.715180908203125,-0.8943567276000977,0.44301697611808777,-0.854957103729248
1761316319187103500,8.734103515625,-0.8607601523399353,0.5799230933189392,-0.863508939743042
1761316319206026000,8.75302587890625,-0.7306496500968933,0.5866424441337585,-0.7211815714836121
1761316319224948500,8.771948486328125,-0.5535039901733398,0.4558447599411011,-0.5086066722869873
1761316319243870700,8.79087060546875,-0.3476484417915344,0.43141087889671326,-0.364446759223938
1761316319262793200,8.809793212890625,-0.16195088624954224,0.4100312292575836,-0.20929154753684998
1761316319281715700,8.8287158203125,-0.04161396995186806,0.4662291705608368,-0.019928891211748123
1761316319300638200,8.84763818359375,0.012751436792314053,0.5958051681518555,0.18348324298858643
1761316319319560700,8.866560791015624,0.0029778804164379835,0.7027034163475037,0.3594072461128235
1761316319338483000,8.88548291015625,0.022524992004036903,0.6251258254051208,0.4485909640789032
1761316319357405400,8.904405517578125,0.23632153868675232,0.40636613965034485,0.33986014127731323
1761316319376328000,8.923327880859375,0.5777851343154907,0.10521844029426575,0.08635853230953217
1761316319395250400,8.94225048828125,0.8135721683502197,-0.10308047384023666,-0.09933903813362122
1761316319414172700,8.961172607421876,0.9956046938896179,-0.22341738641262054,0.04421006888151169
1761316319433095200,8.98009521484375,1.0218710899353027,-0.28816720843315125,0.5732038021087646
1761316319452017700,8.999017578125,0.9620080590248108,-0.5080721974372864,1.32767653465271
1761316319470940200,9.017940185546875,0.8099071383476257,-0.5514423847198486,2.0521414279937744
1761316319489862700,9.036862548828125,0.9241355657577515,-0.12629267573356628,2.51149845123291
1761316319508785200,9.05578515625,1.0346988439559937,0.1388150453567505,2.65871262550354
1761316319527707400,9.074707275390624,1.0670738220214844,-0.12690351903438568,2.507833480834961
1761316319546630000,9.0936298828125,1.0065999031066895,-0.23502348363399506,2.0674126148223877
1761316319565552400,9.112552490234375,0.9143620133399963,-0.1910424828529358,1.5310887098312378
1761316319584475000,9.131474853515625,0.9833877086639404,-0.48486000299453735,1.3288981914520264
1761316319603397400,9.1503974609375,1.0408073663711548,-0.6546755433082581,1.308740258216858
1761316319622319600,9.169319580078126,1.0420290231704712,-0.760962963104248,1.1908466815948486
1761316319641242000,9.1882421875,0.9620080590248108,-0.9662076234817505,0.8187643885612488
1761316319660164600,9.20716455078125,0.8386169075965881,-0.9429954290390015,0.5023455023765564
1761316319679087000,9.226087158203125,0.8404494524002075,-0.9466605186462402,0.46630552411079407
1761316319698009600,9.245009521484375,0.9290223121643066,-1.13968825340271,0.30870693922042847
1761316319716931800,9.263931884765626,0.9436826705932617,-1.181836724281311,0.09063446521759033
1761316319735854300,9.282854248046876,0.769591212272644,-1.1848909854888916,-0.022372281178832054
1761316319754776800,9.30177685546875,0.5197546482086182,-1.1812258958816528,-0.08956547826528549
1761316319773699300,9.32069921875,0.3175642192363739,-1.3589824438095093,-0.30336201190948486
1761316319792621800,9.339621826171875,0.10254598408937454,-1.2197092771530151,-0.5006656646728516
1761316319811544300,9.35854443359375,-0.08437328040599823,-0.9698727130889893,-0.6136724352836609
1761316319830466600,9.377466552734376,-0.21204034984111786,-0.7065975666046143,-0.6265002489089966
1761316319849389000,9.39638916015625,-0.27617931365966797,-0.4671454429626465,-0.5898494124412537
1761316319868311600,9.4153115234375,-0.2877854108810425,-0.3187095522880554,-0.5696914196014404
1761316319887234000,9.434234130859375,-0.2450261116027832,-0.18554484844207764,-0.5745782256126404
1761316319906156500,9.453156494140625,-0.17172443866729736,-0.014507622458040714,-0.5916818976402283
1761316319925078800,9.472078857421875,-0.13751699030399323,0.0007635590736754239,-0.674757182598114
1761316319944001300,9.491001220703126,-0.11247225105762482,-0.1385096162557602,-0.7443937659263611
1761316319962923800,9.509923828125,0.00786465872079134,-0.44759833812713623,-0.8073109984397888
1761316319981846300,9.52884619140625,0.23632153868675232,-0.7304205894470215,-0.812808632850647
1761316320000768800,9.547768798828125,0.5093702673912048,-0.9759812355041504,-0.7816554307937622
1761316320019691000,9.56669091796875,0.6565844416618347,-1.1140327453613281,-0.6625401973724365
1761316320038613500,9.585613525390626,0.6144359707832336,-0.9197832345962524,-0.4426352083683014
1761316320057536000,9.604535888671874,0.5319716334342957,-0.46897798776626587,-0.2887016832828522
1761316320076458500,9.62345849609375,0.46661093831062317,-0.12690351903438568,-0.38155046105384827
1761316320095381000,9.642381103515625,0.3413872718811035,-0.013896775431931019,-0.6423822641372681
1761316320114303500,9.661303466796875,0.14286190271377563,0.07406523078680038,-0.6936933994293213
1761316320133225700,9.680225830078125,0.03779617324471474,0.045355409383773804,-0.47439923882484436
1761316320152148200,9.699148193359376,-0.17233528196811676,0.08017370104789734,-0.231282040476799
1761316320171070700,9.71807080078125,-0.3134410083293915,0.3837648034095764,-0.1665322333574295
1761316320189993200,9.7369931640625,-0.5388436317443848,0.7949413657188416,-0.25510507822036743
1761316320208915700,9.755915771484375,-0.8534299731254578,1.5224604606628418,-0.33023929595947266
1761316320227838000,9.774837890625,-1.2058888673782349,2.370927333831787,-0.4933355152606964
1761316320246760400,9.793760498046876,-1.4172420501708984,3.1992361545562744,-0.7230141162872314
1761316320265683000,9.812682861328126,-1.0684481859207153,2.8547182083129883,-0.512882649898529
1761316320284605400,9.83160546875,-0.34276166558265686,1.268347978591919,0.03443651273846626
1761316320303528000,9.85052783203125,-0.057496000081300735,1.0588274002075195,0.26106083393096924
1761316320322450200,9.8694501953125,-0.22242476046085358,1.148621916770935,0.447369247674942
1761316320341372700,9.88837255859375,-0.5608341693878174,1.1095277070999146,0.188370019197464
1761316320360295200,9.907295166015626,-0.5516714453697205,0.9739195704460144,-0.23677967488765717
1761316320379217700,9.9262177734375,-0.4172850251197815,0.5860316157341003,-0.3528406620025635
1761316320398140200,9.94514013671875,-0.34642675518989563,0.3171824514865875,-0.3406237065792084
1761316320417062700,9.964062744140625,-0.3788016438484192,0.06184828653931618,-0.35406234860420227
1761316320435985000,9.98298486328125,-0.4282802939414978,-0.029167955741286278,-0.44752198457717896
1761316320454907400,10.001907470703125,-0.41972842812538147,0.1644706279039383,-0.5312080383300781
1761316320473830000,10.020829833984376,-0.4044572412967682,0.30740886926651,-0.6106181740760803
1761316320492752400,10.03975244140625,-0.4062897861003876,0.20356485247612,-0.6222242712974548
1761316320511675000,10.0586748046875,-0.4392755329608917,0.12293300777673721,-0.577021598815918
1761316320530597400,10.077597412109375,-0.5083012580871582,0.1889045089483261,-0.5825192332267761
1761316320549519600,10.09651953125,-0.4808131456375122,0.12354385852813721,-0.6326087117195129
1761316320568442000,10.115442138671876,-0.44904908537864685,0.23105297982692719,-0.6778113842010498
1761316320587364600,10.134364501953126,-0.46004435420036316,0.3752129375934601,-0.6521558165550232
1761316320606287000,10.153287109375,-0.5052470564842224,0.5267030596733093,-0.5605286955833435
1761316320625209600,10.172209716796875,-0.5443412661552429,0.6678851246833801,-0.5086066722869873
1761316320644131800,10.1911318359375,-0.5669426321983337,0.6629983186721802,-0.4542413055896759
1761316320663054300,10.210054443359375,-0.5657209157943726,0.465007483959198,-0.4554629921913147
1761316320681976800,10.228976806640626,-0.5107446908950806,0.1907370537519455,-0.5049416422843933
1761316320700899300,10.2478994140625,-0.43744298815727234,0.08200624585151672,-0.5202127695083618
1761316320719821800,10.26682177734375,-0.375747412443161,0.20661908388137817,-0.470734179019928
1761316320738744300,10.285744384765625,-0.28839626908302307,0.31473904848098755,-0.34306707978248596
1761316320757666800,10.304666748046875,-0.17538951337337494,0.3324536085128784,-0.2044047713279724
1761316320776589000,10.323589111328126,-0.11002886295318604,0.40514445304870605,-0.05169294774532318
1761316320795511600,10.342511474609376,-0.1259108930826187,0.6660525798797607,0.15416257083415985
1761316320814434000,10.36143408203125,-0.15767495334148407,0.9507073760032654,0.4088858962059021
1761316320833356500,10.3803564453125,-0.17661121487617493,1.013624668121338,0.6251258254051208
1761316320852279000,10.399279052734375,-0.03306210786104202,0.8920660614967346,0.8059365749359131
1761316320871201300,10.418201171875,0.3823140263557434,0.5732038021087646,0.81509929895401
1761316320890123800,10.437123779296876,0.8343409895896912,-0.3248180150985718,0.6746044158935547
1761316320909046300,10.45604638671875,1.1673290729522705,-1.213600754737854,0.5035672187805176
1761316320927968800,10.47496875,1.3591351509094238,-1.6363071203231812,0.523725152015686
1761316320946891300,10.493891357421875,1.156944751739502,-1.2673553228378296,0.7705074548721313
1761316320965813800,10.512813720703125,0.7964684963226318,-0.6436802744865417,1.3472236394882202
1761316320984736300,10.531736328125,0.6016082167625427,0.016034740954637527,1.9208091497421265
1761316321003658500,10.550658447265626,0.7921925187110901,0.5915291905403137,2.215237617492676
1761316321022581000,10.5695810546875,1.0261470079421997,0.6361210346221924,2.143768548965454
1761316321041503500,10.58850341796875,1.1630531549453735,0.21150586009025574,1.9544057846069336
1761316321060426000,10.607426025390625,1.1459494829177856,-0.48608171939849854,1.7332791090011597
1761316321079348500,10.626348388671875,0.9100860357284546,-0.9491039514541626,1.220778226852417
1761316321098270700,10.645270751953126,0.8251782655715942,-1.4005200862884521,0.7393542528152466
1761316321117193200,10.664193115234376,0.7616502046585083,-1.5324630737304688,0.5145624876022339
1761316321136115700,10.68311572265625,0.6321505308151245,-1.2667444944381714,0.5292227864265442
1761316321155038200,10.7020380859375,0.5704549551010132,-1.10364830493927,0.6880430579185486
1761316321173960700,10.720960693359375,0.5454102754592896,-1.0456178188323975,0.7283589839935303
1761316321192883200,10.73988330078125,0.5075377225875854,-0.8452599048614502,0.5829773545265198
1761316321211805400,10.758805419921876,0.42934927344322205,-0.7615737915039062,0.3704025149345398
1761316321230728000,10.77772802734375,0.2405974566936493,-0.6962131857872009,0.19631104171276093
1761316321249650400,10.796650390625,-0.0025197449140250683,-0.71942538022995,0.011835165321826935
1761316321268573000,10.815572998046875,-0.2077644169330597,-0.6241331696510315,-0.14576342701911926
1761316321287495400,10.834495361328125,-0.23708508908748627,-0.32909396290779114,-0.2447206825017929
1761316321306418000,10.85341796875,-0.1802763044834137,-0.007788302376866341,-0.2581593096256256
1761316321325340400,10.87234033203125,-0.19860170781612396,0.24632415175437927,-0.2459423840045929
1761316321344262700,10.8912626953125,-0.31527355313301086,0.39109495282173157,-0.2819823622703552
1761316321363185200,10.91018505859375,-0.4710395932197571,0.462564080953598,-0.3626142144203186
1761316321382107600,10.929107666015625,-0.5315134525299072,0.5047125220298767,-0.46462568640708923
1761316321401030100,10.948030029296875,-0.49058669805526733,0.46012070775032043,-0.5690805912017822
1761316321419952600,10.96695263671875,-0.352535218000412,0.24937839806079865,-0.7505022287368774
1761316321438875000,10.985875,-0.08498412370681763,-0.22280654311180115,-0.90993332862854
1761316321457797400,11.00479736328125,0.24670593440532684,-0.7408050298690796,-0.8372425436973572
1761316321476719900,11.023719970703125,0.621155321598053,-0.9900307059288025,-0.5788541436195374
1761316321495642400,11.042642333984375,0.9345199465751648,-0.9246700406074524,-0.43591588735580444
1761316321514564900,11.06156494140625,1.0475267171859741,-0.9045121073722839,-0.41942301392555237
1761316321533487400,11.0804873046875,1.0585219860076904,-0.8379297256469727,-0.4841728210449219
1761316321552409600,11.09940966796875,1.0145409107208252,-0.5380037426948547,-0.5073850154876709
1761316321571332000,11.11833203125,0.8306758999824524,-0.8098307251930237,-0.7963157296180725
1761316321590254600,11.137254638671875,0.41407808661460876,-0.3321481943130493,-1.2404017448425293
1761316321609177000,11.156177001953125,0.10560022294521332,0.072843536734581,-1.2281848192214966
1761316321628099600,11.175099609375,0.20822255313396454,-0.2044811248779297,-0.6258893609046936
1761316321647022000,11.19402197265625,0.26197710633277893,-0.5202891230583191,0.07230904698371887
1761316321665944600,11.212944580078124,-0.14545799791812897,-0.2686200737953186,0.20791713893413544
1761316321684866800,11.23186669921875,-0.6640673279762268,0.1907370537519455,0.27083441615104675
1761316321703789300,11.250789306640625,-1.0598963499069214,0.9904124736785889,-0.00038177953683771193
1761316321722711800,11.2697119140625,-1.0794434547424316,1.702660322189331,-0.6570425629615784
1761316321741634300,11.28863427734375,-0.4038463830947876,1.1290748119354248,-1.1212865114212036
1761316321760556800,11.307556884765624,0.06406260281801224,0.5768688917160034,-0.8213604688644409
1761316321779479300,11.326479248046875,-0.0031305921729654074,0.6978166103363037,-0.2825932204723358
1761316321798401500,11.345401611328125,-0.24380441009998322,0.6776586771011353,0.14133478701114655
1761316321817324000,11.364323974609375,-0.36047622561454773,0.6489488482475281,-0.04558447748422623
1761316321836246500,11.38324658203125,-0.34520506858825684,0.5175403356552124,-0.48722705245018005
1761316321855169000,11.4021689453125,-0.2737359404563904,0.2689255177974701,-0.6564317345619202
1761316321874091500,11.421091552734374,-0.30733251571655273,0.23899398744106293,-0.5397599339485168
1761316321893014000,11.440013916015625,-0.35497862100601196,0.02641914412379265,-0.40842774510383606
1761316321911936500,11.4589365234375,-0.3507026731967926,-0.04321744292974472,-0.4658474028110504
1761316321930858800,11.477858642578125,-0.3384857475757599,-0.032222192734479904,-0.5971795320510864
1761316321949781200,11.49678125,-0.3494809865951538,0.11621369421482086,-0.6668161153793335
1761316321968703700,11.515703857421874,-0.35925453901290894,0.2518217861652374,-0.6326087117195129
1761316321987626200,11.534626220703124,-0.3623087704181671,0.37948885560035706,-0.4970006048679352
1761316322006548700,11.553548828125,-0.39529454708099365,0.520594596862793,-0.37055522203445435
1761316322025471200,11.57247119140625,-0.4172850251197815,0.5811448097229004,-0.3375694751739502
1761316322044393500,11.5913935546875,-0.43561044335365295,0.5664844512939453,-0.3369586169719696
1761316322063316000,11.61031591796875,-0.48814332485198975,0.5457156896591187,-0.3119138777256012
1761316322082238500,11.629238525390624,-0.5339568853378296,0.5585434436798096,-0.29175591468811035
1761316322101161000,11.648160888671875,-0.5083012580871582,0.5622085332870483,-0.334515243768692
1761316322120083500,11.66708349609375,-0.43866467475891113,0.41675055027008057,-0.38155046105384827
1761316322139006000,11.686005859375,-0.3794125020503998,0.30435463786125183,-0.3479538559913635
1761316322157928200,11.70492822265625,-0.30244573950767517,0.3092414140701294,-0.2563267946243286
1761316322176850700,11.7238505859375,-0.19004985690116882,0.3471139669418335,-0.17202985286712646
1761316322195773200,11.742773193359374,-0.06360447406768799,0.282364159822464,-0.05047125369310379
1761316322214695700,11.76169580078125,0.052456509321928024,0.2536543309688568,0.09246700257062912
1761316322233618200,11.7806181640625,0.11537377536296844,0.39414918422698975,0.22990763187408447
1761316322252540700,11.799540771484375,0.13003410398960114,0.6141305565834045,0.40522080659866333
1761316322271463200,11.818463134765626,0.11659546941518784,0.6929298639297485,0.6507813930511475
1761316322290385400,11.837385498046874,0.14102935791015625,0.6275691986083984,0.8315922021865845
1761316322309308000,11.856307861328125,0.255257785320282,0.5083776116371155,0.9635351896286011
1761316322328230400,11.87523046875,0.41041299700737,0.2664821147918701,1.0655466318130493
1761316322347153000,11.89415283203125,0.5924454927444458,-0.22158484160900116,1.189014196395874
1761316322366075400,11.913075439453126,0.7335512042045593,-0.7371399402618408,1.369825005531311
1761316322384998000,11.931997802734376,0.8325084447860718,-1.20504891872406,1.637376070022583
1761316322403920100,11.950920166015624,0.8703809976577759,-0.978424608707428,1.8065807819366455
1761316322422842600,11.969842529296875,0.7702020406723022,-0.18554484844207764,1.9507406949996948
1761316322441765000,11.98876513671875,0.7787538766860962,0.4265241026878357,2.1877493858337402
1761316322460687600,12.0076875,0.8630508184432983,0.8822925090789795,2.2818198204040527
1761316322479610000,12.026610107421876,0.8850412964820862,0.8804599642753601,2.0814621448516846
1761316322498532600,12.04553271484375,0.8386169075965881,0.5677061676979065,1.6728051900863647
1761316322517455000,12.064455078125,0.666968822479248,0.1772984117269516,1.2067288160324097
1761316322536377300,12.08337744140625,0.5625139474868774,-0.33764582872390747,0.8517501354217529
1761316322555299800,12.1022998046875,0.5350258350372314,-0.7640172243118286,0.6031352877616882
1761316322574222300,12.121222412109375,0.48249298334121704,-1.0040801763534546,0.422324538230896
1761316322593144800,12.140144775390626,0.43973368406295776,-1.056002140045166,0.2922140657901764
1761316322612067300,12.1590673828125,0.3859791159629822,-0.9338327646255493,0.26045000553131104
1761316322630989800,12.17798974609375,0.28702184557914734,-0.7450809478759766,0.29832252860069275
1761316322649912000,12.196912109375,0.12392564117908478,-0.6375718116760254,0.24456797540187836
1761316322668834600,12.21583447265625,-0.06665870547294617,-0.6003101468086243,0.08574768155813217
1761316322687757000,12.234757080078126,-0.23647424578666687,-0.7218687534332275,-0.08528954535722733
1761316322706679600,12.253679443359376,-0.3616979420185089,-0.7963921427726746,-0.30397287011146545
1761316322725602000,12.27260205078125,-0.43316707015037537,-0.7670714259147644,-0.5232670307159424
1761316322744524500,12.291524658203125,-0.47592636942863464,-0.6644490957260132,-0.650934100151062
1761316322763446800,12.31044677734375,-0.4954734742641449,-0.510515570640564,-0.679033100605011
1761316322782369300,12.329369384765625,-0.5168531537055969,-0.3309265077114105,-0.6582642793655396
1761316322801291800,12.348291748046876,-0.49974942207336426,-0.12751436233520508,-0.6613185405731201
1761316322820214300,12.36721435546875,-0.4649311304092407,-0.025502873584628105,-0.7779903411865234
1761316322839136800,12.38613671875,-0.3616979420185089,-0.29977330565452576,-1.0143882036209106
1761316322858059300,12.405059326171875,-0.16989189386367798,-0.8568660020828247,-1.2330715656280518
1761316322876981800,12.423981689453125,0.0426829531788826,-1.209324836730957,-1.2862153053283691
1761316322895904000,12.442904052734375,0.24853847920894623,-1.2441431283950806,-1.1945881843566895
1761316322914826500,12.461826416015626,0.40552622079849243,-0.903901219367981,-0.9832350015640259
1761316322933749000,12.4807490234375,0.4073587656021118,-0.0719272643327713,-0.5464792251586914
1761316322952671500,12.49967138671875,0.3817031681537628,0.4259132444858551,-0.04375193640589714
1761316322971594000,12.518593994140625,0.357269287109375,0.45767730474472046,0.08025006204843521
1761316322990516500,12.5375166015625,0.34993913769721985,0.05512896552681923,-0.17202985286712646
1761316323009439000,12.55643896484375,0.37681639194488525,-0.3382566571235657,-0.38093963265419006
1761316323028361200,12.575361328125,0.3175642192363739,-0.691326379776001,0.03687990456819534
1761316323047283700,12.59428369140625,0.5185329914093018,-0.478751540184021,0.8737406730651855
1761316323066206200,12.613206298828125,0.7317186594009399,0.6037461757659912,1.1040300130844116
1761316323085128700,12.632128662109375,0.33894386887550354,0.5095993280410767,0.28671643137931824
1761316323104051200,12.65105126953125,0.10437852889299393,-0.5716003179550171,-0.5092175602912903
1761316323122973700,12.6699736328125,0.3713187873363495,-0.3859027624130249,-0.544646680355072
1761316323141896200,12.688896240234374,0.588780403137207,0.2536543309688568,-0.4823402762413025
1761316323160818400,12.707818359375,0.34016555547714233,0.07528692483901978,-0.6643727421760559
1761316323179741000,12.726740966796875,0.08299887180328369,-0.2429644912481308,-0.8256364464759827
1761316323198663400,12.745663330078125,-0.005573981441557407,-0.20081603527069092,-0.8329665660858154
1761316323217586000,12.7645859375,-0.02145601063966751,-0.0065666078589856625,-0.572134792804718
1761316323236508400,12.78350830078125,-0.030007870867848396,0.2151709496974945,-0.34306707978248596
1761316323255431000,12.802430908203124,-0.037948887795209885,0.29091599583625793,-0.30275118350982666
1761316323274353200,12.821353271484375,-0.04650074616074562,0.15408621728420258,-0.3766636848449707
1761316323293275600,12.840275634765625,-0.015958385542035103,0.03008422814309597,-0.5055524706840515
1761316323312198100,12.8591982421875,0.026190076023340225,0.049020491540431976,-0.5586961507797241
1761316323331120600,12.87812060546875,0.03962871432304382,0.17302247881889343,-0.48722705245018005
1761316323350043100,12.897043212890624,0.04023956134915352,0.2298312783241272,-0.3607816696166992
1761316323368965600,12.915965576171875,0.02435753494501114,0.19806721806526184,-0.3003077805042267
1761316323387888000,12.93488818359375,0.02008160389959812,0.13209572434425354,-0.31435728073120117
1761316323406810600,12.953810546875,0.028633465990424156,0.0325276181101799,-0.3381803035736084
1761316323425732900,12.97273291015625,0.012140588834881783,-0.03405473381280899,-0.3106921911239624
1761316323444655400,12.9916552734375,0.0164165198802948,-0.0035123717971146107,-0.2734304964542389
1761316323463577900,13.010577880859374,0.04818057641386986,0.022754060104489326,-0.2612135708332062
1761316323482500400,13.029500244140625,0.045737188309431076,0.10827267915010452,-0.23616881668567657
1761316323501422800,13.0484228515625,0.02680092304944992,0.08689302206039429,-0.20806984603405
1761316323520345300,13.067345458984375,0.013362283818423748,0.02886253222823143,-0.1787491738796234
1761316323539267600,13.086267578125,0.014583977870643139,-0.005955760832875967,-0.17019732296466827
1761316323558190000,13.105190185546874,0.009697199799120426,-0.03588727489113808,-0.15981291234493256
1761316323577112600,13.124112548828125,0.012751436792314053,-0.05238015204668045,-0.14820681512355804
1761316323596035000,13.14303515625,0.010918894782662392,-0.017561858519911766,-0.1402658075094223
1761316323614957600,13.16195751953125,-0.009849912486970425,0.12171131372451782,-0.004657710436731577
1761316323633880000,13.180880126953125,0.009697199799120426,0.08994726091623306,-0.05719057470560074
1761316323652802600,13.199802490234376,0.009697199799120426,0.02641914412379265,-0.17813833057880402
1761316323671725000,13.21872509765625,-0.011071606539189816,-0.04688252881169319,-0.20806984603405
1761316323690647300,13.237647216796875,-0.047111593186855316,-0.08047912269830704,-0.1665322333574295
1761316323709569800,13.25656982421875,-0.048333290964365005,-0.02367033064365387,-0.14393088221549988
1761316323728492300,13.2754921875,-0.049554985016584396,0.015423892997205257,-0.16103461384773254
