time,seconds_elapsed,z,y,x
1761316310665049600,0.212049560546875,1.4787644147872925,-8.34138011932373,-5.26181697845459
1761316310693433300,0.240433349609375,1.5385849475860596,-8.358129501342773,-5.247459888458252
1761316310712355800,0.25935595703125,1.5314065217971802,-8.331808090209961,-5.223531723022461
1761316310731278000,0.278278076171875,1.5649060010910034,-8.343772888183594,-5.221138954162598
1761316310750200600,0.29720068359375,1.6151553392410278,-8.310273170471191,-5.194818019866943
1761316310769123000,0.316123046875,1.6151553392410278,-8.291130065917969,-5.233103275299072
1761316310788045600,0.335045654296875,1.6223337650299072,-8.329415321350098,-5.278566837310791
1761316310806967800,0.3539677734375,1.7491533756256104,-8.142775535583496,-5.2737812995910645
1761316310825890300,0.372890380859375,1.4404792785644531,-8.085348129272461,-5.477170944213867
1761316310844812800,0.391812744140625,1.7180466651916504,-8.128418922424316,-5.642275810241699
1761316310863735300,0.4107353515625,1.4021940231323242,-8.427521705627441,-5.694917678833008
1761316310882657500,0.429657470703125,1.8711873292922974,-8.575876235961914,-4.8502516746521
1761316310901580000,0.448580078125,1.8831514120101929,-8.688339233398438,-5.06799840927124
1761316310920502500,0.46750244140625,1.9692929983139038,-9.34875774383545,-5.13021183013916
1761316310939425000,0.486425048828125,1.9525432586669922,-9.42772102355957,-5.254638671875
1761316310958347300,0.50534716796875,1.7012969255447388,-9.403793334960938,-5.312066078186035
1761316310977269800,0.524269775390625,1.911865234375,-10.009177207946777,-5.517848968505859
1761316310996192300,0.543192138671875,1.6175481081008911,-8.446663856506348,-5.946164131164551
1761316311015114500,0.562114501953125,1.2179467678070068,-8.338987350463867,-5.759523868560791
1761316311034037000,0.581037109375,1.2610175609588623,-9.107083320617676,-5.615954875946045
1761316311052959500,0.59995947265625,1.5744773149490356,-8.484949111938477,-5.374279499053955
1761316311071882000,0.618882080078125,1.8759729862213135,-7.616354465484619,-5.414957523345947
1761316311090804500,0.637804443359375,1.430907964706421,-7.365108013153076,-4.814359188079834
1761316311109726700,0.656726806640625,1.7228323221206665,-6.941578388214111,-4.711467742919922
1761316311128649200,0.675649169921875,1.5337992906570435,-6.463014125823975,-5.161318302154541
1761316311147571700,0.69457177734375,1.4883357286453247,-6.439085960388184,-4.979464054107666
1761316311166494200,0.713494140625,1.2658032178878784,-7.774280548095703,-4.95074987411499
1761316311185416400,0.73241650390625,1.160519003868103,-8.250452041625977,-5.60399055480957
1761316311204339000,0.7513388671875,1.454836130142212,-8.14516830444336,-5.134997367858887
1761316311223261400,0.770261474609375,1.4021940231323242,-8.166703224182129,-5.391029357910156
1761316311242183700,0.78918359375,1.5194423198699951,-8.281558990478516,-5.606383323669434
1761316311261106200,0.808106201171875,1.6295121908187866,-8.468199729919434,-5.536991596221924
1761316311280028700,0.827028564453125,1.5433706045150757,-8.48016357421875,-5.326423168182373
1761316311298951200,0.845951171875,1.581655740737915,-8.365307807922363,-5.2354960441589355
1761316311317873400,0.864873291015625,1.5792629718780518,-8.283951759338379,-5.185246467590332
1761316311336796000,0.8837958984375,1.526620864868164,-8.25523853302002,-5.309673309326172
1761316311355718400,0.902718505859375,1.4715858697891235,-8.279166221618652,-5.338387489318848
1761316311374641000,0.921640869140625,0.9332008361816406,-8.264809608459473,-5.391029357910156
1761316311393563100,0.940563232421875,1.8089739084243774,-8.35573673248291,-5.2115678787231445
1761316311412485600,0.959485595703125,1.6917256116867065,-8.264809608459473,-5.245067119598389
1761316311431408000,0.978408203125,1.5601203441619873,-8.279166221618652,-5.474778175354004
1761316311450330600,0.99733056640625,1.5672988891601562,-7.980063438415527,-5.3312087059021
1761316311469252900,1.0162529296875,1.648654818534851,-8.549555778503418,-5.388636589050293
1761316311488175400,1.03517529296875,1.2801600694656372,-8.331808090209961,-5.458028316497803
1761316311507097900,1.054097900390625,1.552941918373108,-8.281558990478516,-5.19960355758667
1761316311526020400,1.073020263671875,1.6654045581817627,-8.248059272766113,-5.302495002746582
1761316311544942600,1.091942626953125,1.7419748306274414,-8.090133666992188,-5.407779216766357
1761316311563865000,1.110864990234375,1.8903298377990723,-8.118846893310547,-5.491528034210205
1761316311582787600,1.12978759765625,1.6654045581817627,-8.128418922424316,-5.407779216766357
1761316311601709800,1.148709716796875,1.5649060010910034,-7.381857872009277,-5.142175674438477
1761316311620632300,1.16763232421875,1.648654818534851,-7.762316703796387,-5.158925533294678
1761316311639554800,1.186554931640625,1.6199408769607544,-7.671389579772949,-5.438885688781738
1761316311658477300,1.205477294921875,1.6175481081008911,-7.8077802658081055,-5.288137912750244
1761316311677399600,1.224399658203125,1.7276179790496826,-8.37966537475586,-5.101497650146484
1761316311696322000,1.243322021484375,1.674975872039795,-8.755337715148926,-5.300102233886719
1761316311715244500,1.26224462890625,1.6271194219589233,-8.434700012207031,-5.20678186416626
1761316311734167000,1.2811669921875,1.6055840253829956,-7.9728851318359375,-5.223531723022461
1761316311753089300,1.30008935546875,1.459621787071228,-7.338787078857422,-4.900500774383545
1761316311772011800,1.31901171875,1.6654045581817627,-7.286144733428955,-5.383851051330566
1761316311790934300,1.337934326171875,2.311466693878174,-8.13798999786377,-5.560919761657715
1761316311809856800,1.356856689453125,1.3208380937576294,-8.35573673248291,-5.9676995277404785
1761316311828779000,1.375779052734375,0.3445664644241333,-8.74337387084961,-6.544369697570801
1761316311847701500,1.394701416015625,0.5862415432929993,-8.075776100158691,-6.300302028656006
1761316311866624000,1.4136240234375,0.39481574296951294,-7.719245910644531,-5.843272686004639
1761316311885546200,1.432546142578125,0.8183453679084778,-8.161917686462402,-5.893522262573242
1761316311904468700,1.45146875,1.4691931009292603,-8.21695327758789,-5.831308841705322
1761316311923391200,1.47039111328125,1.7252250909805298,-7.585247993469238,-5.582455158233643
1761316311942313700,1.489313720703125,1.337587833404541,-6.989434719085693,-5.374279499053955
1761316311961236000,1.508236083984375,1.3710874319076538,-6.872186660766602,-5.32403039932251
1761316311980158500,1.527158447265625,1.3543375730514526,-7.759923934936523,-5.412564754486084
1761316311999081000,1.5460810546875,1.155733346939087,-8.34855842590332,-5.8719868659973145
1761316312018003500,1.56500341796875,1.1437692642211914,-8.288737297058105,-6.446264266967773
1761316312036925700,1.58392578125,0.9906286001205444,-8.518448829650879,-6.786045074462891
1761316312055848200,1.60284814453125,0.41156548261642456,-7.841279983520508,-6.453442573547363
1761316312074770700,1.621770751953125,0.7154539823532104,-7.664210796356201,-6.0466628074646
1761316312093693000,1.64069287109375,0.7393822073936462,-7.554141044616699,-5.769095420837402
1761316312112615400,1.659615478515625,0.7106683254241943,-7.585247993469238,-5.517848968505859
1761316312131538000,1.678537841796875,0.8949156403541565,-7.960920810699463,-5.388636589050293
1761316312150460400,1.69746044921875,0.7178468108177185,-7.9728851318359375,-5.300102233886719
1761316312169382700,1.716382568359375,1.1676974296569824,-7.83410120010376,-5.113461971282959
1761316312188305200,1.73530517578125,0.9379864931106567,-7.707281589508057,-5.594419479370117
1761316312207227600,1.7542275390625,0.48813581466674805,-7.671389579772949,-6.226124286651611
1761316312226150100,1.773150146484375,0.5048855543136597,-7.805387496948242,-6.58265495300293
1761316312245072400,1.792072265625,0.6771687865257263,-7.76470947265625,-6.209374904632568
1761316312263995000,1.810994873046875,0.397208571434021,-7.781459331512451,-6.032305717468262
1761316312282917400,1.82991748046875,0.38763725757598877,-7.850851058959961,-5.874379634857178
1761316312301839600,1.848839599609375,0.3613162338733673,-7.779066562652588,-6.0777692794799805
1761316312320762000,1.86776220703125,0.3278166949748993,-7.657032489776611,-6.4701924324035645
1761316312339684600,1.8866845703125,0.03349951654672623,-7.752745151519775,-6.908079147338867
1761316312358607000,1.905607177734375,0.363709032535553,-8.111668586730957,-6.7932233810424805
1761316312377529300,1.924529296875,0.3613162338733673,-7.824530124664307,-6.350551128387451
1761316312396451800,1.943451904296875,-0.031106693670153618,-7.88913631439209,-6.881757736206055
1761316312415374300,1.962374267578125,-0.7345965504646301,-7.9585280418396,-7.798209190368652
1761316312434296600,1.981296630859375,-0.36610186100006104,-7.829315662384033,-8.489734649658203
1761316312453219000,2.000218994140625,-0.17946170270442963,-8.556734085083008,-8.458627700805664
1761316312472141600,2.0191416015625,-0.1339980661869049,-9.32004451751709,-8.422736167907715
1761316312491064000,2.03806396484375,1.0456634759902954,-10.272387504577637,-7.917850017547607
1761316312509986600,2.056986572265625,2.0985054969787598,-11.365907669067383,-6.6831536293029785
1761316312528908800,2.07590869140625,3.105883836746216,-11.703295707702637,-4.984249591827393
1761316312547831300,2.094831298828125,3.6993038654327393,-11.203195571899414,-3.8333017826080322
1761316312566753800,2.11375390625,2.1655044555664062,-10.547562599182129,-3.3930225372314453
1761316312585676000,2.132676025390625,0.6915257573127747,-9.707681655883789,-5.132604598999023
1761316312604598500,2.1515986328125,-0.34695929288864136,-8.891729354858398,-7.231110095977783
1761316312623521000,2.17052099609375,-0.04546362906694412,-7.286144733428955,-7.094718933105469
1761316312642443500,2.189443603515625,1.0169496536254883,-6.721438884735107,-7.357929706573486
1761316312661365800,2.20836572265625,1.5194423198699951,-7.735995769500732,-7.546962738037109
1761316312680288300,2.227288330078125,0.8470591902732849,-8.056633949279785,-5.98444938659668
1761316312699210800,2.246210693359375,0.16749759018421173,-7.728816986083984,-4.981856822967529
1761316312718133000,2.265133056640625,0.4737788736820221,-7.5804619789123535,-4.474578380584717
1761316312737055500,2.284055419921875,1.2801600694656372,-7.817351341247559,-4.261617183685303
1761316312755978000,2.30297802734375,2.053041934967041,-8.396414756774902,-4.0558342933654785
1761316312774900200,2.321900146484375,2.5746772289276123,-8.482556343078613,-3.8883368968963623
1761316312793822700,2.34082275390625,2.321038007736206,-8.094919204711914,-4.034298896789551
1761316312812745200,2.3597451171875,2.038684844970703,-7.676175117492676,-4.2831525802612305
1761316312831667700,2.378667724609375,2.0650060176849365,-6.8554368019104,-4.491328239440918
1761316312850590200,2.397590087890625,1.9908283948898315,-6.072983741760254,-4.18983268737793
1761316312869512400,2.416512451171875,2.0961127281188965,-5.706881999969482,-4.039084434509277
1761316312888435000,2.43543505859375,2.6321048736572266,-5.474778175354004,-3.713660717010498
1761316312907357400,2.454357421875,2.854637384414673,-5.352744102478027,-3.6538400650024414
1761316312926279700,2.47327978515625,3.0077781677246094,-5.216353416442871,-3.7950167655944824
1761316312945202200,2.4922021484375,3.0101709365844727,-5.017749309539795,-4.084548473358154
1761316312964124700,2.511124755859375,3.376272678375244,-4.934000492095947,-4.4482574462890625
1761316312983047200,2.530047119140625,4.082155227661133,-5.056034088134766,-5.302495002746582
1761316313001969400,2.548969482421875,4.867001056671143,-5.446064472198486,-6.915257453918457
1761316313020892000,2.567891845703125,5.733202934265137,-5.9916276931762695,-8.896514892578125
1761316313039814400,2.586814453125,6.865008354187012,-6.625725746154785,-10.679167747497559
1761316313058736600,2.605736572265625,7.444071292877197,-7.448856830596924,-10.604990005493164
1761316313077659100,2.6246591796875,7.322037220001221,-7.41535758972168,-9.226723670959473
1761316313096581600,2.64358154296875,6.068198204040527,-6.10169792175293,-7.010970115661621
1761316313115504000,2.662504150390625,5.044070243835449,-3.9218363761901855,-5.793023586273193
1761316313134426400,2.68142626953125,4.53200626373291,-2.287538528442383,-5.144568920135498
1761316313153348900,2.700348876953125,4.242474555969238,-3.689732551574707,-5.398207664489746
1761316313172271400,2.719271240234375,3.3092737197875977,-8.123632431030273,-6.4941205978393555
1761316313191193900,2.73819384765625,6.2668023109436035,-12.65324592590332,-8.358129501342773
1761316313210116000,2.7571162109375,7.365108013153076,-18.34577178955078,-10.080962181091309
1761316313229038600,2.77603857421875,1.3926228284835815,-13.897514343261719,-8.157132148742676
1761316313247961000,2.794961181640625,-1.3399807214736938,-6.702296257019043,-2.7326035499572754
1761316313266883300,2.81388330078125,0.01196411345154047,-3.8189449310302734,-0.23210379481315613
1761316313285805800,2.832805908203125,-2.644068956375122,-4.512863636016846,-0.8255237936973572
1761316313304728300,2.851728271484375,-4.110869407653809,-8.657232284545898,-4.34536600112915
1761316313323650800,2.87065087890625,-5.72841739654541,-11.294122695922852,-6.735795974731445
1761316313342573000,2.889572998046875,-4.163511276245117,-10.6624174118042,-7.393822193145752
1761316313361495600,2.90849560546875,-1.545763373374939,-9.286544799804688,-8.059026718139648
1761316313380418000,2.92741796875,1.196411371231079,-9.044869422912598,-6.3529438972473145
1761316313399340300,2.94634033203125,1.4644074440002441,-9.844072341918945,-4.972285270690918
1761316313418262800,2.9652626953125,1.5337992906570435,-10.25324535369873,-4.309473514556885
1761316313437185300,2.984185302734375,1.6821542978286743,-9.181260108947754,-4.804787635803223
1761316313456107800,3.003107666015625,0.6771687865257263,-7.683353424072266,-5.515456199645996
1761316313475030000,3.022030029296875,-0.33499518036842346,-6.857829570770264,-6.015556335449219
1761316313493952500,3.040952392578125,-0.7992027401924133,-6.781259536743164,-6.489335060119629
1761316313512875000,3.059875,-0.5623133182525635,-7.061219692230225,-6.750152587890625
1761316313531797500,3.078797607421875,-0.11964113265275955,-7.137789726257324,-6.398407936096191
1761316313550719700,3.0977197265625,0.3756731450557709,-7.063612461090088,-5.898307800292969
1761316313569642200,3.116642333984375,0.7968099117279053,-6.999006271362305,-5.766702651977539
1761316313588564700,3.135564697265625,0.49292147159576416,-6.8865437507629395,-5.517848968505859
1761316313607487000,3.154487060546875,0.25363919138908386,-6.774080753326416,-5.498706340789795
1761316313626409500,3.173409423828125,0.3086741268634796,-6.664011001586914,-5.608776092529297
1761316313645332000,3.19233203125,0.3326023519039154,-6.486942291259766,-5.773880958557129
1761316313664254500,3.21125439453125,0.727418065071106,-6.647261142730713,-5.709274768829346
1761316313683176700,3.2301767578125,0.9379864931106567,-7.156932353973389,-5.343173027038574
1761316313702099200,3.24909912109375,0.6125625967979431,-7.432106971740723,-5.295316696166992
1761316313721021700,3.268021728515625,0.9212366938591003,-7.76470947265625,-5.5034918785095215
1761316313739944000,3.28694384765625,0.4091726839542389,-7.960920810699463,-6.051448345184326
1761316313758866400,3.305866455078125,-0.42831525206565857,-7.788637638092041,-6.9822564125061035
1761316313777789000,3.324788818359375,-0.5288137793540955,-7.262216567993164,-7.953742504119873
1761316313796711400,3.34371142578125,0.01196411345154047,-7.051648139953613,-8.209774017333984
1761316313815633700,3.362633544921875,0.28953152894973755,-7.836493968963623,-7.743174076080322
1761316313834556200,3.38155615234375,0.8087740540504456,-8.908478736877441,-7.594819068908691
1761316313853478700,3.400478759765625,1.8233308792114258,-8.963513374328613,-7.81974458694458
1761316313872401200,3.419401123046875,1.3710874319076538,-9.53061294555664,-7.843672752380371
1761316313891323400,3.438323486328125,2.029113531112671,-10.53081226348877,-9.597611427307129
1761316313910246000,3.457245849609375,0.4331009089946747,-11.368300437927246,-9.927821159362793
1761316313929168400,3.47616845703125,0.6197410821914673,-11.906685829162598,-8.042277336120605
1761316313948091000,3.4950908203125,0.9284151792526245,-12.751352310180664,-4.761716842651367
1761316313967013000,3.51401318359375,1.4979069232940674,-12.842279434204102,-3.9792640209198
1761316313985935600,3.532935546875,1.7587246894836426,-11.20798110961914,-4.486542224884033
1761316314004858000,3.551858154296875,2.3641088008880615,-9.53061294555664,-5.125426292419434
1761316314023780400,3.5707802734375,2.65842604637146,-9.343972206115723,-6.39601469039917
1761316314042702800,3.589702880859375,1.2203395366668701,-8.695517539978027,-7.683353424072266
1761316314061625300,3.608625244140625,0.8446664214134216,-7.767102241516113,-7.707281589508057
1761316314080547800,3.6275478515625,1.3543375730514526,-7.159325122833252,-6.967899322509766
1761316314099470000,3.646469970703125,1.1198409795761108,-6.865008354187012,-6.283552169799805
1761316314118392600,3.665392578125,1.093519926071167,-6.6831536293029785,-6.398407936096191
1761316314137315000,3.684315185546875,1.3160524368286133,-6.723831653594971,-5.982056617736816
1761316314156237300,3.7032373046875,1.9166508913040161,-6.295516490936279,-5.453242778778076
1761316314175159800,3.722159912109375,1.5960127115249634,-6.245266914367676,-4.73300313949585
1761316314194082300,3.741082275390625,1.4404792785644531,-6.020341873168945,-3.0340991020202637
1761316314213004800,3.7600048828125,1.8448662757873535,-5.563312530517578,-2.062613010406494
1761316314231927000,3.778927001953125,1.8448662757873535,-5.355136871337891,-1.8640087842941284
1761316314250849500,3.797849609375,2.342573404312134,-5.443671703338623,-2.218146562576294
1761316314269772000,3.81677197265625,3.0652058124542236,-5.718846321105957,-3.16331148147583
1761316314288694500,3.835694580078125,3.4791641235351562,-5.300102233886719,-3.579662561416626
1761316314307616800,3.85461669921875,3.596412420272827,-4.333401679992676,-4.024727821350098
1761316314326539300,3.873539306640625,3.8835511207580566,-3.5581271648406982,-4.761716842651367
1761316314345461800,3.892461669921875,4.9052863121032715,-3.4719855785369873,-5.98444938659668
1761316314364384000,3.911384033203125,6.111268997192383,-4.01037073135376,-7.312466144561768
1761316314383306500,3.930306396484375,6.943971157073975,-5.087141036987305,-9.42772102355957
1761316314402229000,3.94922900390625,7.63310432434082,-6.479763507843018,-11.521441459655762
1761316314421151500,3.9681513671875,7.475177764892578,-7.3986077308654785,-10.834700584411621
1761316314440073700,3.98707373046875,7.36032247543335,-7.03489875793457,-9.020941734313965
1761316314458996200,4.005996337890625,6.891329288482666,-5.7619171142578125,-6.465406894683838
1761316314477918700,4.024918701171875,6.003592014312744,-4.3788652420043945,-4.759324073791504
1761316314496841000,4.043841064453125,5.438885688781738,-4.225724697113037,-4.409972190856934
1761316314515763500,4.062763427734375,5.2977094650268555,-7.36032247543335,-7.369893550872803
1761316314534686000,4.08168603515625,4.9531426429748535,-9.987641334533691,-7.944170951843262
1761316314553608200,4.100608154296875,6.640082836151123,-11.34676456451416,-7.334001541137695
1761316314572530700,4.11953076171875,4.948357105255127,-11.686545372009277,-7.401000499725342
1761316314591453200,4.138453125,2.0003998279571533,-10.279565811157227,-6.010770320892334
1761316314610375700,4.157375732421875,1.196411371231079,-8.178668022155762,-3.3332018852233887
1761316314629298200,4.176298095703125,-1.3663017749786377,-5.8959150314331055,-1.832902193069458
1761316314648220400,4.195220458984375,-3.19441819190979,-7.355536937713623,-2.7278177738189697
1761316314667143000,4.214142822265625,-2.888136863708496,-9.09272575378418,-4.919643402099609
1761316314686065400,4.2330654296875,-3.4791641235351562,-8.884550094604492,-5.568098068237305
1761316314704987600,4.251987548828125,-2.4095723628997803,-8.13081169128418,-6.778866767883301
1761316314723910100,4.27091015625,-0.3684946894645691,-7.3914289474487305,-7.0995049476623535
1761316314742832600,4.28983251953125,0.7848458290100098,-7.551748275756836,-6.941578388214111
1761316314761755100,4.308755126953125,2.6536402702331543,-8.444271087646484,-5.9509501457214355
1761316314780677400,4.327677490234375,2.830709218978882,-9.035298347473145,-4.780859470367432
1761316314799599900,4.346599853515625,1.2323036193847656,-9.030512809753418,-3.9936211109161377
1761316314818522400,4.3655224609375,0.22013968229293823,-8.257631301879883,-4.271188259124756
1761316314837444600,4.384444580078125,-0.31824541091918945,-7.41535758972168,-4.692325115203857
1761316314856367000,4.4033671875,-0.4570291340351105,-7.467999458312988,-5.8719868659973145
1761316314875289600,4.42228955078125,-0.1459621787071228,-7.8317084312438965,-6.467799663543701
1761316314894211800,4.4412119140625,0.22013968229293823,-7.841279983520508,-6.6592254638671875
1761316314913134300,4.46013427734375,0.3613162338733673,-7.592426300048828,-6.484549522399902
1761316314932056800,4.479056884765625,0.5335994362831116,-7.295716285705566,-6.295516490936279
1761316314950979300,4.497979248046875,0.7010970115661621,-7.149754047393799,-6.0777692794799805
1761316314969901600,4.516901611328125,0.916451096534729,-7.18086051940918,-6.149554252624512
1761316314988824000,4.535823974609375,1.00259268283844,-7.269395351409912,-6.309873104095459
1761316315007746600,4.55474658203125,1.0336993932724,-7.171289443969727,-6.137589931488037
1761316315026669000,4.5736689453125,1.1653046607971191,-6.697510719299316,-5.836094379425049
1761316315045591300,4.59259130859375,0.8757730722427368,-6.283552169799805,-5.4556355476379395
1761316315064513800,4.611513671875,0.5790630578994751,-6.338587284088135,-5.149354457855225
1761316315083436300,4.630436279296875,0.8638089895248413,-6.573083877563477,-5.285745143890381
1761316315102358500,4.649358642578125,0.6939185857772827,-6.989434719085693,-6.254838466644287
1761316315121281000,4.668281005859375,0.20817556977272034,-7.302894592285156,-7.51585578918457
1761316315140203500,4.68720361328125,0.11246266216039658,-7.1473612785339355,-8.303094863891602
1761316315159126000,4.7061259765625,0.32542386651039124,-7.09711217880249,-8.188239097595215
1761316315178048300,4.72504833984375,0.27038896083831787,-7.479963779449463,-7.317251682281494
1761316315196970800,4.743970703125,0.31824541091918945,-7.853243827819824,-7.362715244293213
1761316315215893200,4.762893310546875,0.5958128571510315,-8.13081169128418,-8.116454124450684
1761316315234815500,4.7818154296875,1.8592232465744019,-8.394021987915039,-8.516056060791016
1761316315253738000,4.800738037109375,1.5433706045150757,-8.898907661437988,-9.236295700073242
1761316315272660500,4.819660400390625,1.730010747909546,-9.516255378723145,-9.868000984191895
1761316315291583000,4.8385830078125,2.0650060176849365,-10.497312545776367,-9.281759262084961
1761316315310505200,4.857505126953125,0.638883650302887,-11.26062297821045,-7.183253765106201
1761316315329427700,4.876427734375,1.2442678213119507,-12.134003639221191,-5.240281581878662
1761316315348350200,4.89535009765625,0.6125625967979431,-12.614960670471191,-4.180261135101318
1761316315367272700,4.914272705078125,1.2251251935958862,-11.942577362060547,-5.259424209594727
1761316315386195000,4.93319482421875,2.0865414142608643,-9.743574142456055,-6.589833736419678
1761316315405117400,4.952117431640625,2.407179594039917,-7.941778182983398,-6.86261510848999
1761316315424040000,4.9710400390625,2.581855535507202,-7.700103282928467,-8.327022552490234
1761316315442962200,4.989962158203125,2.6392834186553955,-7.618747234344482,-9.095118522644043
1761316315461884700,5.008884765625,1.4333007335662842,-7.159325122833252,-8.482556343078613
1761316315480807200,5.02780712890625,0.9284151792526245,-6.221338748931885,-7.36032247543335
1761316315499729700,5.046729736328125,0.44027936458587646,-6.185446739196777,-6.348158359527588
1761316315518652000,5.06565185546875,0.9403793215751648,-6.434299945831299,-5.108676433563232
1761316315537574400,5.084574462890625,1.8089739084243774,-6.819544315338135,-4.436293125152588
1761316315556497000,5.103496826171875,2.03629207611084,-6.809973239898682,-4.266402721405029
1761316315575419100,5.122419189453125,1.9310078620910645,-6.161518096923828,-3.84765887260437
1761316315594341600,5.141341552734375,1.7802600860595703,-5.86002254486084,-2.8833513259887695
1761316315613264100,5.16026416015625,1.9525432586669922,-5.565705299377441,-2.2755744457244873
1761316315632186400,5.179186279296875,2.1128623485565186,-5.276174068450928,-2.093719720840454
1761316315651108900,5.19810888671875,2.203789710998535,-5.292923450469971,-2.3808584213256836
1761316315670031400,5.21703125,2.7014968395233154,-5.335994720458984,-3.13220477104187
1761316315688953900,5.235953857421875,3.2781670093536377,-4.924428939819336,-3.8189449310302734
1761316315707876000,5.2548759765625,3.7782669067382812,-4.086941242218018,-4.551148891448975
1761316315726798600,5.273798583984375,4.680361270904541,-3.4121651649475098,-5.5968122482299805
1761316315745721000,5.29272119140625,6.106483459472656,-3.383451223373413,-7.2335028648376465
1761316315764643600,5.3116435546875,7.202396392822266,-4.3549370765686035,-9.047262191772461
1761316315783565800,5.33056591796875,7.88913631439209,-5.6207404136657715,-10.612168312072754
1761316315802488300,5.34948828125,7.630711555480957,-6.783652305603027,-10.370492935180664
1761316315821410800,5.368410888671875,7.396214962005615,-7.341179847717285,-9.042476654052734
1761316315840333000,5.3873330078125,7.6043901443481445,-7.109076023101807,-7.154539585113525
1761316315859255600,5.406255615234375,7.125825881958008,-5.704489231109619,-5.149354457855225
1761316315878178000,5.425177978515625,5.434100151062012,-2.933600664138794,-3.8189449310302734
1761316315897100500,5.4441005859375,4.618147850036621,-0.5407779216766357,-3.0867412090301514
1761316315916022800,5.463022705078125,2.3880369663238525,-2.407179594039917,-3.737588882446289
1761316315934945300,5.4819453125,2.313859462738037,-8.599804878234863,-4.256831645965576
1761316315953867800,5.50086767578125,8.702695846557617,-13.464412689208984,-6.015556335449219
1761316315972790000,5.5197900390625,9.513862609863281,-19.420148849487305,-10.454241752624512
1761316315991712500,5.53871240234375,3.541377544403076,-15.687345504760742,-12.579068183898926
1761316316010635000,5.557635009765625,-1.5050854682922363,-8.283951759338379,-8.956335067749023
1761316316029557500,5.5765576171875,-1.0839486122131348,-5.017749309539795,-3.4504501819610596
1761316316048479700,5.595479736328125,-2.9623143672943115,-3.665804386138916,-0.7824530005455017
1761316316067402200,5.61440234375,-4.878965377807617,-7.061219692230225,-3.469592809677124
1761316316086324700,5.63332470703125,-5.8719868659973145,-9.004191398620605,-5.13739013671875
1761316316105247200,5.652247314453125,-4.811966419219971,-10.403992652893066,-5.4795637130737305
1761316316124169500,5.67116943359375,-1.8903298377990723,-10.090533256530762,-6.166304111480713
1761316316143092000,5.690092041015625,1.9166508913040161,-9.712467193603516,-5.31685209274292
1761316316162014500,5.709014404296875,2.203789710998535,-10.372885704040527,-4.527220249176025
1761316316180936700,5.727936767578125,1.2083754539489746,-10.564311981201172,-4.6995038986206055
1761316316199859200,5.746859130859375,1.9692929983139038,-9.631111145019531,-5.347958564758301
1761316316218781700,5.76578173828125,1.0097711086273193,-8.214560508728027,-5.72123908996582
1761316316237704000,5.784703857421875,-0.02632104977965355,-7.0755767822265625,-6.235695838928223
1761316316256626400,5.80362646484375,-0.5838487148284912,-6.295516490936279,-6.745367050170898
1761316316275549000,5.822548828125,-0.550349235534668,-6.2500529289245605,-6.783652305603027
1761316316294471400,5.841471435546875,-0.14835500717163086,-6.546762943267822,-6.522834300994873
1761316316313393700,5.8603935546875,0.24646073579788208,-6.896114826202393,-6.135197162628174
1761316316332316200,5.879316162109375,0.914058268070221,-6.86261510848999,-5.7858452796936035
1761316316351238700,5.89823876953125,1.1653046607971191,-6.860222339630127,-5.302495002746582
1761316316370161200,5.9171611328125,1.1078768968582153,-6.8171515464782715,-5.072783946990967
1761316316389083400,5.93608349609375,1.153340458869934,-6.927221775054932,-5.123033046722412
1761316316408006000,5.955005859375,1.124626636505127,-7.168896675109863,-5.577669620513916
1761316316426928400,5.973928466796875,0.46899324655532837,-7.259823799133301,-5.9916276931762695
1761316316445850600,5.9928505859375,0.18903298676013947,-7.300501823425293,-6.089733600616455
1761316316464773000,6.011773193359375,0.3852444589138031,-7.527820110321045,-6.151947021484375
1761316316483695600,6.030695556640625,0.9978070259094238,-8.049455642700195,-6.216553211212158
1761316316502618000,6.0496181640625,0.9451649188995361,-8.212167739868164,-6.6352972984313965
1761316316521540400,6.068540283203125,0.275174617767334,-8.149953842163086,-7.077969551086426
1761316316540462800,6.087462890625,-0.06939185410737991,-8.343772888183594,-7.396214962005615
1761316316559385300,6.10638525390625,0.4570291340351105,-8.394021987915039,-7.3675007820129395
1761316316578307600,6.1253076171875,1.1629117727279663,-8.429914474487305,-7.671389579772949
1761316316597230000,6.14422998046875,1.1389836072921753,-8.554341316223145,-9.030512809753418
1761316316616152600,6.163152587890625,1.2586246728897095,-7.216753005981445,-9.619147300720215
1761316316635075000,6.182074951171875,1.0360921621322632,-7.223931789398193,-9.997213363647461
1761316316653997300,6.200997314453125,0.7417750358581543,-8.60459041595459,-10.518848419189453
1761316316672919800,6.219919921875,0.763310432434082,-10.435099601745605,-9.442078590393066
1761316316691842300,6.23884228515625,0.8662018179893494,-12.614960670471191,-6.618547439575195
1761316316710764500,6.2577646484375,0.5288137793540955,-13.51705551147461,-4.524827480316162
1761316316729687000,6.27668701171875,0.6891329288482666,-13.87358570098877,-3.9601213932037354
1761316316748609500,6.295609619140625,1.5601203441619873,-11.3778715133667,-3.9433717727661133
1761316316767532000,6.314531982421875,2.4885356426239014,-9.750752449035645,-5.627918720245361
1761316316786454500,6.33345458984375,2.7589244842529297,-8.872586250305176,-7.654639720916748
1761316316805376800,6.352376708984375,2.0267207622528076,-8.118846893310547,-8.492127418518066
1761316316824299300,6.37129931640625,0.7489534616470337,-7.0755767822265625,-8.204988479614258
1761316316843221800,6.3902216796875,0.15553347766399384,-6.580262184143066,-6.893722057342529
1761316316862144000,6.40914404296875,-0.02871387079358101,-6.379265308380127,-5.79063081741333
1761316316881066500,6.42806640625,0.10289137065410614,-6.4510498046875,-4.843072891235352
1761316316899989000,6.446989013671875,0.7082754969596863,-7.03489875793457,-4.039084434509277
1761316316918911500,6.465911376953125,1.643869161605835,-7.41535758972168,-4.0797624588012695
1761316316937833700,6.484833740234375,1.5792629718780518,-6.7692952156066895,-3.4504501819610596
1761316316956756200,6.503756103515625,1.7180466651916504,-6.259624004364014,-2.5459632873535156
1761316316975678700,6.5226787109375,1.7443677186965942,-5.994020938873291,-1.9381862878799438
1761316316994601000,6.54160107421875,1.8616160154342651,-5.697310924530029,-1.9884356260299683
1761316317013523500,6.5605234375,2.3617160320281982,-5.6925249099731445,-2.4502503871917725
1761316317032446000,6.579446044921875,3.13220477104187,-5.958128452301025,-3.2350962162017822
1761316317051368400,6.598368408203125,3.665804386138916,-5.675775527954102,-3.6370904445648193
1761316317070290700,6.617290771484375,3.9912281036376953,-5.032105922698975,-3.964907169342041
1761316317089213200,6.636213134765625,4.436293125152588,-4.223331928253174,-4.548755645751953
1761316317108135700,6.6551357421875,5.400600910186768,-3.9792640209198,-5.312066078186035
1761316317127058200,6.67405810546875,6.0849480628967285,-4.357329845428467,-6.585047721862793
1761316317145980400,6.69298046875,6.929614543914795,-5.54177713394165,-8.772088050842285
1761316317164903000,6.71190283203125,7.652246952056885,-7.312466144561768,-11.10030460357666
1761316317183825400,6.730825439453125,7.908278942108154,-8.470592498779297,-10.372885704040527
1761316317202748000,6.749747802734375,7.798209190368652,-7.451249599456787,-8.528019905090332
1761316317221670100,6.768670166015625,6.977470874786377,-5.048855781555176,-5.6590256690979
1761316317240592600,6.787592529296875,5.881557941436768,-2.383251428604126,-4.1659040451049805
1761316317259515100,6.80651513671875,4.467400074005127,-2.3856441974639893,-3.651447296142578
1761316317278437400,6.825437255859375,3.8189449310302734,-6.1710896492004395,-5.465207099914551
1761316317297360000,6.84435986328125,5.816951751708984,-10.236495018005371,-7.566105365753174
1761316317316282400,6.863282470703125,8.518448829650879,-15.294921875,-8.654839515686035
1761316317335204900,6.882204833984375,5.426921844482422,-15.416955947875977,-9.942177772521973
1761316317354127000,6.901127197265625,-0.4259224236011505,-8.439485549926758,-7.161718368530273
1761316317373049600,6.920049560546875,-0.380458801984787,-6.6352972984313965,-3.022135019302368
1761316317391972000,6.93897216796875,-0.7680960893630981,-5.173282623291016,-1.153340458869934
1761316317410894300,6.957894287109375,-2.586641311645508,-6.4701924324035645,-1.770688772201538
1761316317429816800,6.97681689453125,-4.046263217926025,-8.528019905090332,-4.168296813964844
1761316317448739300,6.9957392578125,-3.6634113788604736,-9.382257461547852,-6.259624004364014
1761316317467661800,7.014661865234375,-3.273381471633911,-8.489734649658203,-7.04925537109375
1761316317486584300,7.033584228515625,-0.5623133182525635,-8.082955360412598,-7.211967468261719
1761316317505506600,7.052506591796875,1.6031911373138428,-8.927620887756348,-6.484549522399902
1761316317524429000,7.071428955078125,2.967100143432617,-9.856036186218262,-5.4867424964904785
1761316317543351600,7.0903515625,1.8376877307891846,-9.93978500366211,-4.917250633239746
1761316317562274000,7.109274169921875,1.3639088869094849,-8.654839515686035,-5.091926574707031
1761316317581196300,7.1281962890625,0.4091726839542389,-7.712067604064941,-5.144568920135498
1761316317600118800,7.147118896484375,0.009571290574967861,-7.010970115661621,-5.802595138549805
1761316317619041300,7.166041259765625,-0.28235307335853577,-6.97986364364624,-6.479763507843018
1761316317637963500,7.184963623046875,-0.31106695532798767,-7.661818027496338,-6.5252275466918945
1761316317656886000,7.203885986328125,0.3206382393836975,-7.781459331512451,-6.740581512451172
1761316317675808500,7.22280859375,0.9116654396057129,-7.2574310302734375,-6.625725746154785
1761316317694731000,7.24173095703125,0.8662018179893494,-7.11146879196167,-6.372086524963379
1761316317713653200,7.2606533203125,0.9954141974449158,-7.250252723693848,-5.869594097137451
1761316317732575700,7.27957568359375,0.7058826684951782,-7.441678524017334,-5.551348686218262
1761316317751498200,7.298498291015625,0.5551348328590393,-7.460821151733398,-5.185246467590332
1761316317770420700,7.317420654296875,0.8709874153137207,-7.195217609405518,-4.716253280639648
1761316317789343200,7.33634326171875,1.1102696657180786,-7.044469833374023,-5.017749309539795
1761316317808265500,7.355265380859375,0.7034898400306702,-7.044469833374023,-5.998806476593018
1761316317827188000,7.37418798828125,0.3326023519039154,-7.080362319946289,-7.113861560821533
1761316317846110500,7.3931103515625,0.3684946894645691,-7.197610378265381,-7.51585578918457
1761316317865032700,7.41203271484375,0.6197410821914673,-7.420143127441406,-7.293323516845703
1761316317883955200,7.430955078125,0.2392822653055191,-7.779066562652588,-7.427321434020996
1761316317902877700,7.449877685546875,-0.05024927482008934,-8.305487632751465,-7.417750358581543
1761316317921800200,7.46880029296875,0.13639089465141296,-8.80798053741455,-6.991827964782715
1761316317940722400,7.487722412109375,0.794417142868042,-9.09990406036377,-6.329015731811523
1761316317959645000,7.50664501953125,1.8400806188583374,-9.049654960632324,-6.075376510620117
1761316317978567400,7.5255673828125,2.6273193359375,-9.169296264648438,-7.609176158905029
1761316317997490000,7.544489990234375,2.486142635345459,-7.477570533752441,-9.09990406036377
1761316318016412200,7.563412109375,2.342573404312134,-6.106483459472656,-10.549955368041992
1761316318035334700,7.582334716796875,-0.6843472719192505,-6.661618232727051,-11.157732009887695
1761316318054257200,7.601257080078125,-0.16510476171970367,-8.851051330566406,-9.870393753051758
1761316318073179600,7.6201796875,1.1030912399291992,-11.420942306518555,-6.503692150115967
1761316318092102000,7.639101806640625,0.6221339106559753,-13.505090713500977,-4.704289436340332
1761316318111024400,7.6580244140625,-0.349352091550827,-13.806586265563965,-4.1347975730896
1761316318129947000,7.67694677734375,0.14835500717163086,-12.667603492736816,-3.4887354373931885
1761316318148869400,7.695869384765625,1.4979069232940674,-11.298908233642578,-3.4097721576690674
1761316318167791900,7.7147919921875,2.720639228820801,-11.184053421020508,-5.855237007141113
1761316318186714000,7.733714111328125,3.610769271850586,-9.899106979370117,-7.475177764892578
1761316318205636600,7.75263671875,2.256431818008423,-8.003992080688477,-8.243273735046387
1761316318224559000,7.77155908203125,0.5742774605751038,-6.592226505279541,-7.970492362976074
1761316318243481600,7.790481689453125,0.02392822690308094,-5.800201892852783,-6.936792850494385
1761316318262403800,7.80940380859375,-0.1986042857170105,-5.233103275299072,-5.72841739654541
1761316318281326300,7.828326416015625,-0.05503492057323456,-5.525027275085449,-4.981856822967529
1761316318300248800,7.847248779296875,0.5814558863639832,-6.0849480628967285,-4.599005222320557
1761316318319171300,7.86617138671875,1.0336993932724,-6.896114826202393,-4.0319061279296875
1761316318338093600,7.885093505859375,1.4069796800613403,-7.061219692230225,-2.895315408706665
1761316318357016000,7.90401611328125,1.8807586431503296,-6.652047157287598,-1.9214365482330322
1761316318375938600,7.9229384765625,2.227717876434326,-6.510870456695557,-1.5385849475860596
1761316318394861000,7.941861083984375,2.3186452388763428,-6.553941249847412,-2.0650060176849365
1761316318413783300,7.960783203125,2.723032236099243,-6.604190349578857,-3.084348440170288
1761316318432705800,7.979705810546875,3.328416347503662,-6.156732559204102,-3.7806596755981445
1761316318451628300,7.998628173828125,3.617947816848755,-5.391029357910156,-4.1491546630859375
1761316318470550800,8.01755078125,3.680161237716675,-4.40757942199707,-4.675575256347656
1761316318489473300,8.036473388671874,4.242474555969238,-3.9768712520599365,-5.594419479370117
1761316318508395500,8.0553955078125,5.513063430786133,-4.158725738525391,-6.757331371307373
1761316318527318000,8.074318115234375,6.288337707519531,-4.764110088348389,-8.133204460144043
1761316318546240500,8.093240478515625,6.939185619354248,-6.003592014312744,-9.949356079101562
1761316318565163000,8.1121630859375,6.98704195022583,-7.338787078857422,-10.963912963867188
1761316318584085200,8.131085205078126,6.943971157073975,-7.618747234344482,-9.915857315063477
1761316318603007700,8.1500078125,7.17368221282959,-6.362515449523926,-7.463213920593262
1761316318621930200,8.16893017578125,6.984649181365967,-4.924428939819336,-5.020142078399658
1761316318640852700,8.187852783203125,6.776473522186279,-4.728217601776123,-3.9601213932037354
1761316318659775200,8.206775146484375,6.5419769287109375,-6.941578388214111,-5.029713153839111
1761316318678697500,8.225697509765626,6.984649181365967,-9.559326171875,-8.403593063354492
1761316318697620000,8.244619873046876,6.719046115875244,-13.674981117248535,-11.638689041137695
1761316318716542500,8.26354248046875,3.720839262008667,-15.620346069335938,-10.798809051513672
1761316318735465000,8.28246484375,-1.6175481081008911,-6.786045074462891,-6.412764549255371
1761316318754387200,8.30138720703125,-0.02871387079358101,-3.9936211109161377,-0.059820566326379776
1761316318773309700,8.320309814453125,2.2636101245880127,-3.783052682876587,2.612962245941162
1761316318792232200,8.339232177734376,-1.306481122970581,-6.556334018707275,0.672383189201355
1761316318811154700,8.35815478515625,-3.9840497970581055,-10.327422142028809,-2.0650060176849365
1761316318830077200,8.3770771484375,-4.039084434509277,-11.418549537658691,-6.647261142730713
1761316318848999400,8.39599951171875,-2.3090739250183105,-9.66939640045166,-8.492127418518066
1761316318867922000,8.414921875,0.7561319470405579,-7.731209754943848,-8.271987915039062
1761316318886844400,8.433844482421875,2.3569302558898926,-6.7932233810424805,-7.018148899078369
1761316318905767000,8.452766845703126,2.3306093215942383,-7.542177200317383,-6.702296257019043
1761316318924689400,8.471689453125,1.5146567821502686,-7.731209754943848,-6.245266914367676
1761316318943611600,8.490611572265625,0.5814558863639832,-7.671389579772949,-6.178267955780029
1761316318962534100,8.5095341796875,0.31824541091918945,-7.685746192932129,-5.802595138549805
1761316318981456600,8.52845654296875,0.31106695532798767,-7.566105365753174,-5.438885688781738
1761316319000379100,8.547379150390626,0.2871387302875519,-7.814958572387695,-5.302495002746582
1761316319019301400,8.56630126953125,0.3684946894645691,-8.09252643585205,-5.1565327644348145
1761316319038224000,8.585223876953124,0.7489534616470337,-8.346165657043457,-5.31685209274292
1761316319057146400,8.604146484375,0.9858429431915283,-8.353343963623047,-5.582455158233643
1761316319076068900,8.62306884765625,1.1748759746551514,-7.822137355804443,-5.563312530517578
1761316319094991400,8.641991455078125,0.8446664214134216,-7.518248558044434,-5.548955917358398
1761316319113913600,8.66091357421875,0.5910272002220154,-7.625925540924072,-5.44845724105835
1761316319132836000,8.679836181640624,0.38763725757598877,-7.5565338134765625,-5.134997367858887
1761316319151758600,8.698758544921875,0.7848458290100098,-7.178467750549316,-4.965106964111328
1761316319170681000,8.71768115234375,0.6843472719192505,-7.171289443969727,-5.544169902801514
1761316319189603600,8.736603515625,0.9547362327575684,-7.288537979125977,-6.530013084411621
1761316319208525800,8.75552587890625,1.5170495510101318,-7.027719974517822,-7.463213920593262
1761316319227448300,8.7744482421875,1.3399807214736938,-7.1234331130981445,-7.716853141784668
1761316319246370800,8.793370849609374,0.7561319470405579,-7.692924976348877,-7.29810905456543
1761316319265293300,8.812293212890625,0.07417750358581543,-8.193024635314941,-6.860222339630127
1761316319284215800,8.8312158203125,-0.32542386651039124,-8.279166221618652,-6.8410797119140625
1761316319303138000,8.850137939453125,-0.30149564146995544,-8.652446746826172,-7.343572616577148
1761316319322060500,8.869060546875,-0.275174617767334,-9.53061294555664,-8.173882484436035
1761316319340983000,8.887983154296874,-0.885344386100769,-9.997213363647461,-9.300901412963867
1761316319359905500,8.906905517578124,-1.4452649354934692,-9.592825889587402,-10.351350784301758
1761316319378827800,8.925827880859375,-1.1150553226470947,-9.140582084655762,-10.518848419189453
1761316319397750300,8.944750244140625,0.45224347710609436,-10.162318229675293,-9.09990406036377
1761316319416672800,8.9636728515625,2.6081767082214355,-10.643275260925293,-5.558526992797852
1761316319435595300,8.98259521484375,4.338187217712402,-10.956734657287598,-4.319045066833496
1761316319454517800,9.001517822265624,3.809373617172241,-10.37767219543457,-4.094119548797607
1761316319473440300,9.020440185546875,1.5002998113632202,-9.17886734008789,-5.740381717681885
1761316319492362500,9.039362548828125,0.02632104977965355,-8.922835350036621,-6.144768714904785
1761316319511285000,9.058284912109375,-0.4953143000602722,-10.202995300292969,-5.996413707733154
1761316319530207500,9.07720751953125,-0.8111668825149536,-10.569097518920898,-5.539384365081787
1761316319549130000,9.0961298828125,0.5407779216766357,-8.896514892578125,-4.620540618896484
1761316319568052500,9.115052490234374,2.3641088008880615,-8.243273735046387,-5.283352375030518
1761316319586974700,9.133974609375,2.912065267562866,-8.925228118896484,-6.393621921539307
1761316319605897200,9.152897216796875,2.7661030292510986,-8.590232849121094,-6.8482584953308105
1761316319624819700,9.17181982421875,1.8089739084243774,-7.7455668449401855,-6.3529438972473145
1761316319643742200,9.1907421875,1.1676974296569824,-6.965506553649902,-5.362315654754639
1761316319662664700,9.209664794921874,1.5864413976669312,-6.482156753540039,-5.058426856994629
1761316319681587000,9.2285869140625,1.1198409795761108,-6.412764549255371,-5.125426292419434
1761316319700509400,9.247509521484375,1.4069796800613403,-6.338587284088135,-4.8502516746521
1761316319719432000,9.266431884765625,2.6321048736572266,-6.247660160064697,-4.450650215148926
1761316319738354400,9.2853544921875,3.397808074951172,-5.881557941436768,-4.280759811401367
1761316319757277000,9.30427685546875,3.0628130435943604,-5.6590256690979,-4.508078098297119
1761316319776199400,9.323199462890624,2.8139593601226807,-5.3216376304626465,-4.208974838256836
1761316319795121700,9.34212158203125,2.4837498664855957,-5.115854740142822,-3.775874137878418
1761316319814044200,9.361044189453125,2.4430718421936035,-5.333601474761963,-3.4791641235351562
1761316319832966700,9.379966552734375,2.785245656967163,-5.441278457641602,-3.6155550479888916
1761316319851889200,9.39888916015625,3.2757742404937744,-5.467599868774414,-3.9529430866241455
1761316319870811600,9.417811767578126,3.7639100551605225,-5.194818019866943,-4.66361141204834
1761316319889734000,9.43673388671875,4.1419758796691895,-4.730610370635986,-5.4867424964904785
1761316319908656400,9.455656494140625,4.323830604553223,-4.445864677429199,-6.307480335235596
1761316319927579000,9.474578857421875,5.1182475090026855,-4.412364959716797,-6.991827964782715
1761316319946501400,9.49350146484375,5.675775527954102,-4.790431022644043,-7.496713161468506
1761316319965423900,9.512423828125,6.104090690612793,-5.5968122482299805,-7.8628153800964355
1761316319984346000,9.53134619140625,6.262016773223877,-6.235695838928223,-8.398807525634766
1761316320003268600,9.5502685546875,6.285944938659668,-6.723831653594971,-8.477770805358887
1761316320022191000,9.569191162109375,6.654439926147461,-6.776473522186279,-7.714460372924805
1761316320041113600,9.588113525390625,6.754938125610352,-5.7164530754089355,-6.606583118438721
1761316320060036000,9.6070361328125,6.64486837387085,-4.3549370765686035,-5.536991596221924
1761316320078958600,9.62595849609375,6.51326322555542,-5.185246467590332,-5.481956481933594
1761316320097880800,9.644880859375,6.965506553649902,-8.164310455322266,-6.8171515464782715
1761316320116803300,9.66380322265625,7.592426300048828,-10.229316711425781,-8.073383331298828
1761316320135725800,9.682725830078125,6.6352972984313965,-11.361122131347656,-7.939385414123535
1761316320154648300,9.7016484375,3.4719855785369873,-10.908878326416016,-7.946564197540283
1761316320173570800,9.72057080078125,1.2203395366668701,-9.31047248840332,-5.654240131378174
1761316320192493000,9.7394931640625,1.1318050622940063,-7.546962738037109,-2.021935224533081
1761316320211415600,9.75841552734375,-0.6221339106559753,-6.537191390991211,-0.47617170214653015
1761316320230338000,9.777338134765625,-3.06999135017395,-6.656832695007324,-1.2418749332427979
1761316320249260500,9.796260498046875,-2.9001009464263916,-7.987242221832275,-2.7182464599609375
1761316320268183000,9.81518310546875,-1.576870083808899,-9.09272575378418,-5.367101192474365
1761316320287105300,9.834105224609376,-2.0027925968170166,-9.779465675354004,-5.7164530754089355
1761316320306027800,9.85302783203125,0.8207381963729858,-9.611968994140625,-6.522834300994873
1761316320324950300,9.8719501953125,2.5220351219177246,-8.657232284545898,-6.015556335449219
1761316320343872800,9.890872802734375,1.9142581224441528,-7.69531774520874,-5.938985824584961
1761316320362795300,9.909795166015625,1.28255295753479,-7.044469833374023,-5.828916072845459
1761316320381717800,9.9287177734375,0.39481574296951294,-6.908079147338867,-6.147161483764648
1761316320400640000,9.947639892578126,0.07417750358581543,-6.857829570770264,-6.479763507843018
1761316320419562500,9.9665625,-0.040677983313798904,-6.922435760498047,-6.757331371307373
1761316320438485000,9.985485107421875,0.31106695532798767,-7.171289443969727,-6.8865437507629395
1761316320457407500,10.004407470703125,0.39960137009620667,-7.4225358963012695,-6.786045074462891
1761316320476330000,10.023330078125,0.7848458290100098,-7.45364236831665,-6.592226505279541
1761316320495252500,10.04225244140625,1.2275179624557495,-7.793423175811768,-6.398407936096191
1761316320514174700,10.0611748046875,1.0265209674835205,-8.116454124450684,-5.508277893066406
1761316320533097200,10.08009716796875,0.8422735929489136,-7.989634990692139,-5.37906551361084
1761316320552019700,10.099019775390625,0.39960137009620667,-7.893921852111816,-5.249852657318115
1761316320570942200,10.117942138671875,0.25363919138908386,-7.70967435836792,-5.290530681610107
1761316320589864700,10.13686474609375,0.8015955686569214,-7.618747234344482,-5.709274768829346
1761316320608787000,10.155786865234376,1.00259268283844,-7.755138397216797,-6.230910301208496
1761316320627709400,10.17470947265625,1.4069796800613403,-7.685746192932129,-6.156732559204102
1761316320646632000,10.1936318359375,1.552941918373108,-7.424928665161133,-5.788238048553467
1761316320665554400,10.212554443359375,1.423729419708252,-7.188039302825928,-6.010770320892334
1761316320684477000,10.231476806640625,0.7968099117279053,-7.463213920593262,-6.649653911590576
1761316320703399400,10.2503994140625,0.24167509377002716,-7.795815944671631,-7.154539585113525
1761316320722321700,10.26932177734375,0.2273181527853012,-7.774280548095703,-7.128218650817871
1761316320741244200,10.288244140625,0.2512463629245758,-7.860422611236572,-6.668796539306641
1761316320760166700,10.307166748046875,0.05503492057323456,-8.214560508728027,-6.324230194091797
1761316320779089200,10.326089111328125,-0.18424734473228455,-8.645268440246582,-5.989234924316406
1761316320798011600,10.34501171875,0.14117653667926788,-8.779266357421875,-5.6925249099731445
1761316320816934100,10.36393408203125,0.7226324677467346,-8.329415321350098,-5.747560024261475
1761316320835856400,10.3828564453125,1.2251251935958862,-8.025527000427246,-6.831508636474609
1761316320854779000,10.40177880859375,0.9068797826766968,-8.003992080688477,-8.896514892578125
1761316320873701400,10.420701416015625,-0.18903298676013947,-7.487142086029053,-9.896714210510254
1761316320892624000,10.439623779296875,-1.6199408769607544,-7.8795647621154785,-10.389636039733887
1761316320911546400,10.45854638671875,-0.3397808074951172,-10.2747802734375,-10.784451484680176
1761316320930468600,10.477468505859376,0.763310432434082,-12.335000991821289,-7.032505512237549
1761316320949391000,10.49639111328125,1.730010747909546,-13.170095443725586,-4.0797624588012695
1761316320968313600,10.515313720703125,1.7395820617675781,-13.701302528381348,-2.5674986839294434
1761316320987236000,10.534236083984375,0.7465606927871704,-12.789636611938477,-2.2133610248565674
1761316321006158600,10.55315869140625,-0.014356935396790504,-10.080962181091309,-2.242074728012085
1761316321025081000,10.5720810546875,0.2584248483181,-8.62612533569336,-4.457828521728516
1761316321044003600,10.591003662109374,1.3639088869094849,-8.109275817871094,-6.7621169090271
1761316321062925800,10.60992578125,1.100698471069336,-7.893921852111816,-7.70967435836792
1761316321081848300,10.628848388671875,0.8087740540504456,-7.70249605178833,-7.953742504119873
1761316321100770800,10.647770751953125,0.5000999569892883,-7.946564197540283,-6.25723123550415
1761316321119693300,10.666693359375,0.41874396800994873,-7.884350776672363,-4.7712883949279785
1761316321138615800,10.68561572265625,0.8470591902732849,-7.606783390045166,-4.084548473358154
1761316321157538300,10.704538330078124,0.9475577473640442,-7.64028263092041,-3.7902309894561768
1761316321176460500,10.72346044921875,1.038485050201416,-7.3914289474487305,-3.7160534858703613
1761316321195383000,10.742383056640625,1.4620146751403809,-7.0683979988098145,-3.7423746585845947
1761316321214305500,10.761305419921875,1.6773686408996582,-6.869793891906738,-3.2446675300598145
1761316321233228000,10.78022802734375,1.8735800981521606,-6.652047157287598,-2.801995277404785
1761316321252150500,10.799150634765626,2.3784656524658203,-6.190232276916504,-2.8043880462646484
1761316321271073000,10.818072998046874,2.4598217010498047,-6.080162525177002,-3.6155550479888916
1761316321289995300,10.836995361328125,2.706282377243042,-6.034698486328125,-4.493721008300781
1761316321308917800,10.855917724609375,3.043670415878296,-5.520241737365723,-4.9986066818237305
1761316321327840300,10.87484033203125,3.1489546298980713,-4.8502516746521,-5.197210788726807
1761316321346762800,10.8937626953125,3.407379388809204,-4.321437835693359,-5.3216376304626465
1761316321365685200,10.912685302734374,3.735196113586426,-4.366901397705078,-5.601597785949707
1761316321384607700,10.931607666015625,4.185046672821045,-4.66361141204834,-6.0849480628967285
1761316321403530000,10.950530029296875,4.687539577484131,-4.941178798675537,-7.003791809082031
1761316321422452500,10.969452392578125,5.424529075622559,-5.302495002746582,-8.307880401611328
1761316321441375000,10.988375,6.419943332672119,-5.627918720245361,-9.446864128112793
1761316321460297500,11.00729736328125,7.051648139953613,-6.374479293823242,-10.138389587402344
1761316321479220000,11.026219970703124,6.465406894683838,-7.077969551086426,-9.879964828491211
1761316321498142500,11.045142578125,6.001199245452881,-6.876972198486328,-8.532805442810059
1761316321517064700,11.064064697265625,5.400600910186768,-5.350351333618164,-6.874579429626465
1761316321535987200,11.0829873046875,5.120640277862549,-3.3690943717956543,-6.135197162628174
1761316321554909700,11.10190966796875,3.9672999382019043,-1.9597218036651611,-5.766702651977539
1761316321573832200,11.120832275390624,2.368894338607788,-5.091926574707031,-7.271788120269775
1761316321592754700,11.139754638671874,2.4670002460479736,-10.085747718811035,-8.630910873413086
1761316321611677200,11.15867724609375,4.01037073135376,-13.660624504089355,-8.999405860900879
1761316321630599700,11.177599609375,4.632504463195801,-14.756537437438965,-8.312665939331055
1761316321649522000,11.19652197265625,1.7060825824737549,-11.382657051086426,-3.6538400650024414
1761316321668444400,11.2154443359375,2.7972097396850586,-10.928021430969238,-1.337587833404541
1761316321687367000,11.234366943359374,-0.1866401731967926,-8.303094863891602,-1.3806586265563965
1761316321706289400,11.253289306640625,-3.6873397827148438,-6.293123722076416,-3.13220477104187
1761316321725212000,11.2722119140625,-4.759324073791504,-7.798209190368652,-6.608976364135742
1761316321744134100,11.291134033203125,-2.132004976272583,-8.994620323181152,-7.267002582550049
1761316321763056600,11.310056640625,-0.41156548261642456,-8.755337715148926,-6.5491557121276855
1761316321781979100,11.328979248046876,2.423929452896118,-8.973084449768066,-5.553741455078125
1761316321800901600,11.347901611328124,2.9479575157165527,-9.016156196594238,-5.347958564758301
1761316321819824000,11.36682421875,2.187039852142334,-8.688339233398438,-5.879165172576904
1761316321838746600,11.38574658203125,1.734796404838562,-8.221738815307617,-6.214160442352295
1761316321857669000,11.404669189453125,1.4931213855743408,-7.539783954620361,-6.197410583496094
1761316321876591400,11.42359130859375,1.0719845294952393,-6.738188743591309,-6.558726787567139
1761316321895513900,11.442513916015624,0.14117653667926788,-6.580262184143066,-6.338587284088135
1761316321914436400,11.461436279296874,-0.2225325107574463,-6.893722057342529,-5.934200286865234
1761316321933358800,11.48035888671875,-0.040677983313798904,-7.312466144561768,-5.431707382202148
1761316321952281300,11.49928125,0.3158525824546814,-7.5708909034729,-5.091926574707031
1761316321971203800,11.518203857421875,0.8039883971214294,-7.611568927764893,-4.948357105255127
1761316321990126000,11.5371259765625,0.8685946464538574,-7.463213920593262,-4.965106964111328
1761316322009048600,11.556048583984374,0.5096712112426758,-7.379465103149414,-5.434100151062012
1761316322027971000,11.57497119140625,0.4043870270252228,-7.623532772064209,-6.056233882904053
1761316322046893600,11.5938935546875,0.7776673436164856,-8.044670104980469,-6.376872539520264
1761316322065816000,11.612816162109375,1.2083754539489746,-8.212167739868164,-6.305087566375732
1761316322084738600,11.631738525390626,1.4452649354934692,-7.752745151519775,-6.015556335449219
1761316322103660800,11.650660888671876,1.5385849475860596,-7.0923261642456055,-5.962913990020752
1761316322122583300,11.669583251953124,1.1341979503631592,-7.073183536529541,-6.324230194091797
1761316322141505800,11.688505859375,0.7800601720809937,-7.288537979125977,-6.742974281311035
1761316322160428300,11.70742822265625,0.9523434042930603,-7.5326056480407715,-6.831508636474609
1761316322179350800,11.726350830078125,1.3543375730514526,-7.733603000640869,-6.723831653594971
1761316322198273300,11.745273193359376,1.0791629552841187,-7.812565803527832,-6.695117950439453
1761316322217195800,11.76419580078125,0.5048855543136597,-7.977670669555664,-6.553941249847412
1761316322236118000,11.783117919921875,0.3924229145050049,-8.250452041625977,-6.338587284088135
1761316322255040500,11.80204052734375,0.9451649188995361,-8.374878883361816,-6.075376510620117
1761316322273963000,11.820962890625,1.069591760635376,-8.571090698242188,-6.283552169799805
1761316322292885500,11.839885498046876,1.6007983684539795,-8.489734649658203,-7.195217609405518
1761316322311808000,11.85880810546875,1.648654818534851,-8.451449394226074,-8.085348129272461
1761316322330730500,11.87773046875,1.1126625537872314,-8.760123252868652,-8.453842163085938
1761316322349652700,11.89665283203125,0.7800601720809937,-8.678768157958984,-8.642875671386719
1761316322368575200,11.9155751953125,1.423729419708252,-9.346364974975586,-8.461020469665527
1761316322387497700,11.934497802734375,1.7228323221206665,-10.439885139465332,-7.089933395385742
1761316322406420200,11.953420166015626,1.6271194219589233,-11.148160934448242,-4.3310089111328125
1761316322425342700,11.9723427734375,2.1272194385528564,-11.387442588806152,-3.376272678375244
1761316322444265200,11.99126513671875,1.9525432586669922,-10.75813102722168,-4.192225456237793
1761316322463187700,12.010187744140625,2.3784656524658203,-9.384650230407715,-5.9916276931762695
1761316322482110000,12.02910986328125,2.4095723628997803,-7.8819580078125,-6.675975322723389
1761316322501032400,12.048032470703125,2.2372891902923584,-6.558726787567139,-6.5419769287109375
1761316322519955000,12.066954833984376,2.53399920463562,-6.754938125610352,-6.6831536293029785
1761316322538877400,12.08587744140625,2.368894338607788,-7.482356548309326,-6.594619274139404
1761316322557800000,12.104800048828125,2.0099709033966064,-7.384250640869141,-6.116054534912109
1761316322576722400,12.123722412109375,1.6510475873947144,-6.764509677886963,-5.685346603393555
1761316322595645000,12.14264501953125,1.8448662757873535,-6.39601469039917,-5.242674350738525
1761316322614567200,12.161567138671876,2.7278177738189697,-6.398407936096191,-4.88853645324707
1761316322633489700,12.18048974609375,3.098705291748047,-6.628118515014648,-4.78803825378418
1761316322652412200,12.199412109375,2.8929226398468018,-6.455835342407227,-4.46979284286499
1761316322671334700,12.218334716796875,2.847458839416504,-6.357729911804199,-4.35254430770874
1761316322690257200,12.237257080078125,2.840280532836914,-6.226124286651611,-4.4482574462890625
1761316322709179600,12.2561796875,2.5986053943634033,-6.147161483764648,-4.8502516746521
1761316322728102000,12.275101806640626,2.4741785526275635,-6.168696880340576,-5.1565327644348145
1761316322747024400,12.2940244140625,2.7876384258270264,-6.262016773223877,-5.1804609298706055
1761316322765947000,12.31294677734375,3.5126636028289795,-6.161518096923828,-5.065605640411377
1761316322784869400,12.331869384765625,4.094119548797607,-5.886343479156494,-5.374279499053955
1761316322803792000,12.3507919921875,4.668396949768066,-5.443671703338623,-5.7786664962768555
1761316322822714400,12.36971435546875,5.307280540466309,-5.163711071014404,-6.508477687835693
1761316322841636900,12.388636962890626,5.675775527954102,-5.489135265350342,-7.04207706451416
1761316322860559000,12.40755908203125,5.747560024261475,-5.781059741973877,-7.156932353973389
1761316322879481600,12.426481689453125,5.469992637634277,-5.864808082580566,-6.561119556427002
1761316322898404000,12.445404052734375,5.161318302154541,-5.965306758880615,-5.9198431968688965
1761316322917326600,12.46432666015625,4.603790760040283,-6.300302028656006,-4.685146808624268
1761316322936249000,12.4832490234375,4.730610370635986,-6.44387149810791,-3.1920254230499268
1761316322955171600,12.502171630859374,4.7401814460754395,-6.604190349578857,-2.63449764251709
1761316322974093800,12.52109375,4.666004180908203,-7.125825881958008,-2.9216363430023193
1761316322993016300,12.540016357421875,4.627718925476074,-8.805587768554688,-4.567898273468018
1761316323011938800,12.558938720703125,6.26440954208374,-12.212966918945312,-7.874779224395752
1761316323030861300,12.577861328125,8.018348693847656,-12.679567337036133,-10.928021430969238
1761316323049783800,12.59678369140625,2.273181438446045,-9.604789733886719,-11.499905586242676
1761316323068706300,12.615706298828124,-2.045863389968872,-8.135597229003906,-4.0079779624938965
1761316323087628800,12.63462890625,-0.9427721500396729,-6.8171515464782715,0.28235307335853577
1761316323106551300,12.65355126953125,0.3565305769443512,-6.0849480628967285,-3.3786656856536865
1761316323125473500,12.6724736328125,0.9188438653945923,-7.324429988861084,-8.063812255859375
1761316323144396000,12.69139599609375,2.1200408935546875,-8.197810173034668,-8.609375953674316
1761316323163318500,12.710318603515624,3.1657042503356934,-8.291130065917969,-7.365108013153076
1761316323182241000,12.729240966796874,1.7371892929077148,-8.159524917602539,-5.9509501457214355
1761316323201163500,12.74816357421875,1.2179467678070068,-7.850851058959961,-6.070590972900391
1761316323220086000,12.7670859375,1.4093725681304932,-7.537391185760498,-6.293123722076416
1761316323239008300,12.78600830078125,2.218146562576294,-7.410571575164795,-6.403193473815918
1761316323257930800,12.8049306640625,2.6081767082214355,-7.264609336853027,-6.685546398162842
1761316323276853200,12.823853271484374,2.4813570976257324,-6.9344000816345215,-6.9104719161987305
1761316323295775700,12.842775634765625,2.100898265838623,-6.802794933319092,-6.63769006729126
1761316323314698200,12.8616982421875,1.8951154947280884,-6.929614543914795,-6.345765590667725
1761316323333620700,12.880620849609375,2.0506489276885986,-7.121040344238281,-6.1950178146362305
1761316323352543200,12.899543212890626,2.2755744457244873,-7.3292155265808105,-6.410371780395508
1761316323371465500,12.918465576171876,2.4837498664855957,-7.458428382873535,-6.831508636474609
1761316323390388000,12.937387939453124,2.5746772289276123,-7.379465103149414,-6.757331371307373
1761316323409310500,12.956310546875,2.2683959007263184,-7.240681171417236,-6.39601469039917
1761316323428233000,12.97523291015625,1.828116536140442,-7.226324558258057,-6.149554252624512
1761316323447155500,12.994155517578125,1.892722725868225,-7.307680130004883,-6.044270038604736
1761316323466078000,13.013077880859376,1.9812572002410889,-7.472784996032715,-6.254838466644287
1761316323485000400,13.03200048828125,1.9166508913040161,-7.4847493171691895,-6.374479293823242
1761316323503922700,13.050922607421874,1.8616160154342651,-7.597211837768555,-6.348158359527588
1761316323522845200,13.06984521484375,1.856830358505249,-7.688138961791992,-6.415157318115234
1761316323541767700,13.088767578125,1.8711873292922974,-7.537391185760498,-6.491727828979492
1761316323560690200,13.107690185546875,1.648654818534851,-7.372286796569824,-6.415157318115234
1761316323579612700,13.12661279296875,1.5840486288070679,-7.410571575164795,-6.364908218383789
1761316323598535200,13.14553515625,1.5122638940811157,-7.3986077308654785,-6.4701924324035645
1761316323617457400,13.16445751953125,1.7060825824737549,-7.3986077308654785,-6.295516490936279
1761316323636380000,13.1833798828125,1.8137595653533936,-7.566105365753174,-6.503692150115967
1761316323655302400,13.202302490234375,2.155933141708374,-7.5086774826049805,-6.661618232727051
1761316323674225000,13.221224853515626,1.9860427379608154,-7.57806921005249,-6.63051176071167
1761316323693147400,13.2401474609375,1.698904037475586,-7.482356548309326,-6.556334018707275
1761316323712070000,13.25906982421875,1.6869399547576904,-7.496713161468506,-6.374479293823242
1761316323730992400,13.277992431640625,1.8448662757873535,-7.539783954620361,-6.333801746368408
