time,seconds_elapsed,z,y,x
1761399271372538000,0.1155380859375,-0.014305704273283482,0.021616768091917038,-0.04513208195567131
1761399271382619600,0.12561962890625,-0.016220903024077415,0.025330590084195137,-0.036172281950712204
1761399271392700400,0.135700439453125,-0.015155053697526455,0.034223772585392,-0.017353368923068047
1761399271402780400,0.145780517578125,-0.012407159432768822,0.04516538977622986,-0.0037970903795212507
1761399271412883200,0.15588330078125,-0.011657733470201492,0.051327332854270935,0.0009159647743217647
1761399271422967300,0.16596728515625,-0.010625191032886505,0.05582388862967491,0.0022482771892100573
1761399271433010400,0.176010498046875,-0.010725114494562149,0.05873832106590271,0.004313361365348101
1761399271443128600,0.186128662109375,-0.010908307507634163,0.05925459414720535,0.00832695234566927
1761399271453184300,0.196184326171875,-0.012057427316904068,0.06165275722742081,0.009609303437173367
1761399271463290000,0.2062900390625,-0.013156584464013577,0.05983747914433479,0.00609532929956913
1761399271473339000,0.2163388671875,-0.014788667671382427,0.05167706683278084,0.003397396532818675
1761399271483447600,0.226447509765625,-0.017586523666977882,0.04463246464729309,0.002964395098388195
1761399271493532700,0.23653271484375,-0.021733345463871956,0.040935296565294266,0.0008160413126461208
1761399271503587300,0.24658740234375,-0.02451454848051071,0.04066883400082588,-0.0026313168928027153
1761399271513694200,0.256694091796875,-0.026662901043891907,0.04469908028841019,-0.010025650262832642
1761399271523774200,0.266774169921875,-0.027279095724225044,0.05260968580842018,-0.017103560268878937
1761399271533812000,0.27681201171875,-0.027478942647576332,0.06290179491043091,-0.02479766495525837
1761399271543932200,0.28693212890625,-0.02856144681572914,0.0729607567191124,-0.03244180604815483
1761399271553991400,0.296991455078125,-0.029327526688575745,0.07807350903749466,-0.03828732669353485
1761399271564098000,0.30709814453125,-0.029360834509134293,0.07654134929180145,-0.04183460772037506
1761399271574169900,0.317169921875,-0.02687940187752247,0.07797358185052872,-0.04190122336149216
1761399271584258800,0.3272587890625,-0.0288445632904768,0.08142094314098358,-0.03941979259252548
1761399271594339300,0.33733935546875,-0.03175899758934975,0.08486829698085785,-0.03372415900230408
1761399271604405800,0.34740576171875,-0.034790005534887314,0.08640045672655106,-0.02712921053171158
1761399271614502100,0.357502197265625,-0.03848717361688614,0.0827532559633255,-0.022016461938619614
1761399271624561700,0.367561767578125,-0.04250076413154602,0.07640811800956726,-0.02254938706755638
1761399271634662700,0.37766259765625,-0.04774674400687218,0.06564969569444656,-0.026646247133612633
1761399271644743000,0.387742919921875,-0.05580723658204079,0.049661945551633835,-0.036638591438531876
1761399271654798300,0.39779833984375,-0.06403426080942154,0.0358891636133194,-0.04887920990586281
1761399271664904200,0.407904296875,-0.06746497005224228,0.032874807715415955,-0.05923793837428093
1761399271674960100,0.417960205078125,-0.06634915620088577,0.038437213748693466,-0.06633250415325165
1761399271685065700,0.428065673828125,-0.06868070363998413,0.03793759644031525,-0.07505914568901062
1761399271695146000,0.43814599609375,-0.07056259363889694,0.022349540144205093,-0.0856010690331459
1761399271705230000,0.44822998046875,-0.06974655389785767,-0.0045964778400957584,-0.08901511877775192
1761399271715307500,0.4583076171875,-0.06684877723455429,-0.034640122205019,-0.08305302262306213
1761399271725363200,0.46836328125,-0.06458384543657303,-0.058005549013614655,-0.07575861364603043
1761399271735447600,0.478447509765625,-0.06103656068444252,-0.07814012467861176,-0.07142859697341919
1761399271745528800,0.48852880859375,-0.057006314396858215,-0.10238820314407349,-0.07126206159591675
1761399271755631000,0.498631103515625,-0.05460815504193306,-0.12598678469657898,-0.07391002774238586
1761399271765707000,0.50870703125,-0.04588150605559349,-0.14650440216064453,-0.07605838030576706
1761399271775792400,0.51879248046875,-0.03472338989377022,-0.16422416269779205,-0.07887289673089981
1761399271785872400,0.528872314453125,-0.025447167456150055,-0.1791127473115921,-0.08283652365207672
1761399271795928000,0.538927978515625,-0.016720520332455635,-0.19088706374168396,-0.08631718903779984
1761399271806028000,0.549028076171875,-0.010891653597354889,-0.20554248988628387,-0.08616730570793152
1761399271816089000,0.559089111328125,-0.006295176222920418,-0.22317898273468018,-0.08128771185874939
1761399271826195700,0.56919580078125,-0.005146056413650513,-0.23515313863754272,-0.07507580518722534
1761399271836277200,0.57927734375,-0.005912136286497116,-0.24213112890720367,-0.06893051415681839
1761399271846341000,0.589341064453125,-0.007943912409245968,-0.2543717324733734,-0.06566634774208069
1761399271856437000,0.59943701171875,-0.013473008759319782,-0.26632925868034363,-0.06383441388607025
1761399271866493000,0.609492919921875,-0.020983919501304626,-0.28096804022789,-0.06460049748420715
1761399271876599300,0.619599365234375,-0.031459227204322815,-0.29645615816116333,-0.06992974877357483
1761399271886679300,0.62967919921875,-0.044815659523010254,-0.321237176656723,-0.07862308621406555
1761399271896760000,0.639760009765625,-0.05802220478653908,-0.3495654761791229,-0.08743300288915634
1761399271906840800,0.6498408203125,-0.06909704953432083,-0.37657809257507324,-0.0910802036523819
1761399271916897500,0.6598974609375,-0.07759054005146027,-0.4034741520881653,-0.09574329853057861
1761399271926976800,0.669976806640625,-0.08625057339668274,-0.4213770925998688,-0.10187193751335144
1761399271937058000,0.68005810546875,-0.09582656621932983,-0.43273505568504333,-0.11188093572854996
1761399271947164400,0.690164306640625,-0.10422013700008392,-0.43088647723197937,-0.13159915804862976
1761399271957229000,0.70022900390625,-0.1107318103313446,-0.42947089672088623,-0.15799559652805328
1761399271967325200,0.7103251953125,-0.11484532803297043,-0.43689852952957153,-0.18539126217365265
1761399271977405700,0.72040576171875,-0.11880895495414734,-0.4457584023475647,-0.21473544836044312
1761399271987459300,0.730459228515625,-0.12616997957229614,-0.45150402188301086,-0.24614471197128296
1761399271997542000,0.7405419921875,-0.13596248626708984,-0.45415198802948,-0.2717251181602478
1761399272007622700,0.75062255859375,-0.1464044749736786,-0.4548514485359192,-0.28549790382385254
1761399272017728500,0.760728515625,-0.16021056473255157,-0.45814892649650574,-0.28668031096458435
1761399272027809500,0.7708095703125,-0.17381680011749268,-0.46531009674072266,-0.28223371505737305
1761399272037846300,0.78084619140625,-0.18615734577178955,-0.4735870957374573,-0.27620500326156616
1761399272047973000,0.79097314453125,-0.1954335719347,-0.4803485870361328,-0.2703261971473694
1761399272058047500,0.801047607421875,-0.20505952835083008,-0.48404574394226074,-0.2663625478744507
1761399272068128500,0.81112841796875,-0.21481871604919434,-0.489208459854126,-0.2577857971191406
1761399272078211000,0.821211181640625,-0.2226293981075287,-0.4947209060192108,-0.24434609711170197
1761399272088270600,0.8312705078125,-0.23100630939006805,-0.49946725368499756,-0.2274923324584961
1761399272098375000,0.841375,-0.24004937708377838,-0.5044134855270386,-0.20782408118247986
1761399272108455000,0.851454833984375,-0.248326376080513,-0.4983014762401581,-0.19103693962097168
1761399272118531300,0.86153125,-0.25600382685661316,-0.49024099111557007,-0.18234360218048096
1761399272128616200,0.8716162109375,-0.25835201144218445,-0.4972189962863922,-0.1815442144870758
1761399272138697000,0.881697021484375,-0.26119983196258545,-0.5078941583633423,-0.18495826423168182
1761399272148778500,0.891778564453125,-0.2631649971008301,-0.5048631429672241,-0.18720655143260956
1761399272158858000,0.90185791015625,-0.2701762914657593,-0.49688589572906494,-0.18837231397628784
1761399272168938800,0.911938720703125,-0.2772708535194397,-0.493804931640625,-0.18885527551174164
1761399272179015700,0.922015625,-0.2803851366043091,-0.4876929521560669,-0.18527469038963318
1761399272189100800,0.932100830078125,-0.28001874685287476,-0.4781669080257416,-0.17921267449855804
1761399272199182000,0.94218212890625,-0.2817840576171875,-0.4629785418510437,-0.17388342320919037
1761399272209261800,0.95226171875,-0.2917764186859131,-0.45078790187835693,-0.16267533600330353
1761399272219342600,0.962342529296875,-0.30286791920661926,-0.4440264105796814,-0.1425241231918335
1761399272229423000,0.972423095703125,-0.31340983510017395,-0.4357827305793762,-0.11722683906555176
1761399272239500000,0.9825,-0.3228859007358551,-0.43336790800094604,-0.0955934152007103
1761399272249585400,0.99258544921875,-0.33174577355384827,-0.4334012269973755,-0.07903943210840225
1761399272259665200,1.0026650390625,-0.34040582180023193,-0.437065064907074,-0.07092898339033127
1761399272269746700,1.01274658203125,-0.3542785048484802,-0.45087116956710815,-0.06311830133199692
1761399272279826700,1.02282666015625,-0.36450400948524475,-0.4707392752170563,-0.048196401447057724
1761399272289884400,1.032884521484375,-0.3679347336292267,-0.4803985357284546,-0.030210183933377266
1761399272299988700,1.04298876953125,-0.3673684895038605,-0.4798322916030884,-0.010042304173111916
1761399272310065400,1.0530654296875,-0.36318835616111755,-0.4754023551940918,0.017886294052004814
1761399272320149800,1.063149658203125,-0.35937461256980896,-0.4799821972846985,0.05677316337823868
1761399272330230800,1.073230712890625,-0.3476835787296295,-0.4826967716217041,0.10736772418022156
1761399272340333300,1.083333251953125,-0.32576704025268555,-0.5016822218894958,0.16026052832603455
1761399272350392300,1.093392333984375,-0.29334187507629395,-0.5622691512107849,0.2094395011663437
1761399272360472300,1.103472412109375,-0.2441629022359848,-0.661676287651062,0.25620368123054504
1761399272370549200,1.11354931640625,-0.17388342320919037,-0.7805019021034241,0.28093472123146057
1761399272380608800,1.12360888671875,-0.10250478237867355,-0.9015758037567139,0.27452296018600464
1761399272390695400,1.1336953125,-0.07064586132764816,-1.0019322633743286,0.2536722719669342
1761399272400795400,1.14379541015625,-0.06548315286636353,-1.0989911556243896,0.24253082275390625
1761399272410879500,1.15387939453125,-0.052326567471027374,-1.1759488582611084,0.2545216381549835
1761399272420957400,1.16395751953125,-0.018818913027644157,-1.2039940357208252,0.2817007899284363
1761399272431031300,1.17403125,0.028744639828801155,-1.1961168050765991,0.32535067200660706
1761399272441114000,1.184114013671875,0.07785700261592865,-1.182227373123169,0.4059222638607025
1761399272451199000,1.194198974609375,0.11894218623638153,-1.1439733505249023,0.5548081994056702
1761399272461264400,1.204264404296875,0.1768977791070938,-1.10267174243927,0.7831498980522156
1761399272471360300,1.2143603515625,0.2586851119995117,-1.0625691413879395,1.0597046613693237
1761399272481432300,1.224432373046875,0.339206725358963,-1.075758934020996,1.283782958984375
1761399272491521500,1.234521484375,0.4230091869831085,-1.2466779947280884,1.416164755821228
1761399272501598000,1.244597900390625,0.5205510854721069,-1.3389073610305786,1.5400031805038452
1761399272511658000,1.254657958984375,0.6834263205528259,-1.2337546348571777,1.659778118133545
1761399272521745700,1.26474560546875,0.8531295657157898,-1.080138921737671,1.7508083581924438
1761399272531844600,1.2748447265625,1.0116914510726929,-0.9548516273498535,1.7665963172912598
1761399272541925000,1.284925048828125,1.1215739250183105,-0.8199383616447449,1.6700036525726318
1761399272551980500,1.29498046875,1.1849919557571411,-0.7021619081497192,1.4813648462295532
1761399272562060800,1.305060791015625,1.19460129737854,-0.645821750164032,1.2890788316726685
1761399272572167200,1.315167236328125,1.1447727680206299,-0.6681879758834839,1.1932523250579834
1761399272582248000,1.325248046875,1.0778906345367432,-0.7205978035926819,1.177281141281128
1761399272592328700,1.33532861328125,1.0295777320861816,-0.747776985168457,1.1699035167694092
1761399272602409000,1.345408935546875,1.0348570346832275,-0.7877629995346069,1.1375449895858765
1761399272612490000,1.355489990234375,1.0674819946289062,-0.8481500744819641,1.0531595945358276
1761399272622570500,1.365570556640625,1.101339340209961,-0.8275325298309326,0.9085537791252136
1761399272632647700,1.375647705078125,1.1947177648544312,-0.6687209010124207,0.7412486672401428
1761399272642732000,1.38573193359375,1.3287484645843506,-0.4367319941520691,0.6005398035049438
1761399272652812800,1.395812744140625,1.4803489446640015,-0.28648045659065247,0.49856793880462646
1761399272662893300,1.405893310546875,1.6310334205627441,-0.2538221776485443,0.40468987822532654
1761399272672974300,1.415974365234375,1.745462417602539,-0.33312806487083435,0.32341882586479187
1761399272683054800,1.426054931640625,1.748909831047058,-0.5221498608589172,0.25480473041534424
1761399272693131800,1.4361318359375,1.6260539293289185,-0.7608003616333008,0.17170175909996033
1761399272703216000,1.446216064453125,1.3731311559677124,-0.9766016602516174,0.09992343187332153
1761399272713297000,1.456296875,1.1049033403396606,-1.0426676273345947,0.0810878649353981
1761399272723377700,1.466377685546875,0.9922896027565002,-0.9485564827919006,0.10776741802692413
1761399272733458400,1.47645849609375,0.9650271534919739,-0.8682346940040588,0.1303168088197708
1761399272743539200,1.486539306640625,0.938697338104248,-0.8797591924667358,0.1285015344619751
1761399272753619700,1.49661962890625,0.9261069893836975,-0.8791763186454773,0.10367055982351303
1761399272763696400,1.5066962890625,0.9404460191726685,-0.8397231698036194,0.06430072337388992
1761399272773781000,1.516781005859375,0.9560840129852295,-0.8644875288009644,0.010342074558138847
1761399272783861800,1.52686181640625,0.9975189566612244,-0.8910505175590515,-0.08736638724803925
1761399272793942300,1.5369423828125,0.9736539125442505,-0.8797425031661987,-0.213886097073555
1761399272804023300,1.547023193359375,0.918862521648407,-0.8506314754486084,-0.3459348976612091
1761399272814104000,1.55710400390625,0.8377580046653748,-0.8427208662033081,-0.45608383417129517
1761399272824181000,1.567180908203125,0.7027614712715149,-0.8325620293617249,-0.5262467265129089
1761399272834266000,1.57726611328125,0.518219530582428,-0.8018522262573242,-0.5551745891571045
1761399272844346000,1.58734619140625,0.35257983207702637,-0.734603762626648,-0.5749427676200867
1761399272854426600,1.597426513671875,0.20449329912662506,-0.6498520374298096,-0.6020886301994324
1761399272864482000,1.60748193359375,0.07454288005828857,-0.5335411429405212,-0.6602107286453247
1761399272874588200,1.617588134765625,-0.05146056413650513,-0.3996104598045349,-0.7379345297813416
1761399272884670500,1.62767041015625,-0.18179403245449066,-0.27572205662727356,-0.823452353477478
1761399272894749700,1.637749755859375,-0.3178730905056,-0.17768050730228424,-0.8993608355522156
1761399272904830500,1.64783056640625,-0.4435268044471741,-0.11772645264863968,-0.9335845708847046
1761399272914885600,1.6578857421875,-0.5448324680328369,-0.10755091905593872,-0.8848719000816345
1761399272924967000,1.667966796875,-0.5973256230354309,-0.16235892474651337,-0.7489427328109741
1761399272935072800,1.67807275390625,-0.5781403183937073,-0.27197492122650146,-0.5760751962661743
1761399272945153000,1.688153076171875,-0.4860441982746124,-0.40565580129623413,-0.4443928003311157
1761399272955234300,1.698234375,-0.32958078384399414,-0.5342239737510681,-0.35637691617012024
1761399272965312800,1.708312744140625,-0.13774444162845612,-0.570096492767334,-0.2749726176261902
1761399272975369700,1.71836962890625,0.040269140154123306,-0.47676798701286316,-0.16269199550151825
1761399272985475800,1.728475830078125,0.1543317288160324,-0.30909648537635803,-0.03440696746110916
1761399272995556600,1.738556640625,0.2021617442369461,-0.14610470831394196,0.0482463613152504
1761399273005637400,1.748637451171875,0.20662499964237213,-0.05752258747816086,0.046031393110752106
1761399273015692800,1.75869287109375,0.1987476944923401,-0.04263399541378021,-0.014305704273283482
1761399273025799000,1.768798828125,0.14110854268074036,-0.009226263500750065,-0.09088035672903061
1761399273035857000,1.77885693359375,-0.07515907287597656,0.10833364725112915,-0.3169071674346924
1761399273045960200,1.788960205078125,-0.41511523723602295,0.3201879858970642,-0.5739102363586426
1761399273056040700,1.799040771484375,-0.6947842836380005,0.5951939225196838,-0.48176416754722595
1761399273066121500,1.80912158203125,-0.741115391254425,0.6503183245658875,-0.10160547494888306
1761399273076177200,1.81917724609375,-0.420710951089859,0.6020886301994324,0.21661734580993652
1761399273086284000,1.829283935546875,0.12723582983016968,0.5620859265327454,0.4536856710910797
1761399273096363800,1.83936376953125,0.4141159951686859,0.6692538261413574,0.46774157881736755
1761399273106425300,1.84942529296875,0.27009302377700806,0.8547616600990295,0.18527469038963318
1761399273116525600,1.859525634765625,-0.106351837515831,0.8655866980552673,-0.20357733964920044
1761399273126605800,1.869605712890625,-0.5747429132461548,0.7240285277366638,-0.5666491389274597
1761399273136687000,1.87968701171875,-1.0427509546279907,0.4593147039413452,-0.8854048252105713
1761399273146767400,1.889767333984375,-1.3927327394485474,0.1092662662267685,-1.0840859413146973
1761399273156847900,1.899847900390625,-1.467891812324524,-0.33542630076408386,-1.1134800910949707
1761399273166929000,1.909928955078125,-1.1668058633804321,-0.8247680068016052,-1.0218336582183838
1761399273177009200,1.920009033203125,-0.620307981967926,-1.167755126953125,-0.8847386837005615
1761399273187090200,1.930090087890625,-0.2203478217124939,-1.0512278079986572,-0.7634982466697693
1761399273197170700,1.940170654296875,-0.0839356780052185,-0.6375780701637268,-0.6715520620346069
1761399273207251700,1.950251708984375,-0.11131469905376434,-0.36991652846336365,-0.6793460845947266
1761399273217332000,1.96033203125,-0.21831603348255157,-0.31820616126060486,-0.808696985244751
1761399273227388200,1.97038818359375,-0.3389236032962799,-0.18295979499816895,-1.0316760540008545
1761399273237493500,1.980493408203125,-0.38595423102378845,-0.002398162381723523,-1.2414153814315796
1761399273247574000,1.990573974609375,-0.33534303307533264,0.10820041596889496,-1.3407392501831055
1761399273257655000,2.000655029296875,-0.24549521505832672,0.1423908919095993,-1.28767991065979
1761399273267735600,2.010735595703125,-0.19401799142360687,0.17055264115333557,-1.121024250984192
1761399273277816000,2.020816162109375,-0.19448429346084595,0.19413456320762634,-0.9120177626609802
1761399273287897300,2.0308974609375,-0.232288658618927,0.18555781245231628,-0.7496755123138428
1761399273297975800,2.040975830078125,-0.29342514276504517,0.21803292632102966,-0.6996971368789673
1761399273308054500,2.051054443359375,-0.34458595514297485,0.25538763403892517,-0.727059543132782
1761399273318135300,2.06113525390625,-0.38915178179740906,0.2845819294452667,-0.7556875944137573
1761399273328215600,2.071215576171875,-0.4064551889896393,0.2644140422344208,-0.7478269338607788
1761399273338300400,2.081300537109375,-0.39128348231315613,0.19058728218078613,-0.6927857995033264
1761399273348381000,2.091380859375,-0.3663525879383087,0.1368284821510315,-0.6467044353485107
1761399273358462000,2.1014619140625,-0.3348267674446106,0.061519525945186615,-0.627852201461792
1761399273368542500,2.11154248046875,-0.32799866795539856,-0.056173622608184814,-0.6151286363601685
1761399273378623200,2.121623291015625,-0.3624555766582489,-0.15621362626552582,-0.6000235080718994
1761399273388679200,2.13167919921875,-0.42477449774742126,-0.1861906498670578,-0.589847981929779
1761399273398780700,2.14178076171875,-0.4878428280353546,-0.16157618165016174,-0.6014890670776367
1761399273408865500,2.151865478515625,-0.5317758321762085,-0.14242419600486755,-0.6448225378990173
1761399273418946000,2.161946044921875,-0.5539255142211914,-0.1725178062915802,-0.7036274671554565
1761399273429027600,2.172027587890625,-0.5646839737892151,-0.27007636427879333,-0.7572530508041382
1761399273439082200,2.182082275390625,-0.5659329891204834,-0.4094529151916504,-0.8075478672981262
1761399273449188000,2.19218798828125,-0.551777184009552,-0.5448824763298035,-0.8417716026306152
1761399273459264800,2.2022646484375,-0.5171204209327698,-0.6203579306602478,-0.8539623022079468
1761399273469324500,2.212324462890625,-0.509659469127655,-0.5654833316802979,-0.8586753606796265
1761399273479431400,2.222431396484375,-0.5382042527198792,-0.5342572927474976,-0.8439865708351135
1761399273489466000,2.232466064453125,-0.5410520434379578,-0.49265581369400024,-0.7937084436416626
1761399273499591700,2.242591796875,-0.5756755471229553,-0.4612632095813751,-0.7458284497261047
1761399273509673200,2.252673095703125,-0.6215570569038391,-0.44121190905570984,-0.6490026712417603
1761399273519728000,2.26272802734375,-0.6159946322441101,-0.42414164543151855,-0.5129735469818115
1761399273529834000,2.272833984375,-0.5509111881256104,-0.37379688024520874,-0.40457332134246826
1761399273539914000,2.2829140625,-0.4649770259857178,-0.3516138792037964,-0.3565601110458374
1761399273549971000,2.292970947265625,-0.3932653069496155,-0.3648870587348938,-0.2905273735523224
1761399273560056300,2.303056396484375,-0.3296140730381012,-0.39934399724006653,-0.20565907657146454
1761399273570126300,2.313126220703125,-0.25975096225738525,-0.35472816228866577,-0.1107984259724617
1761399273580216000,2.323216064453125,-0.18705666065216064,-0.2803351879119873,-0.0002831163874361664
1761399273590292500,2.33329248046875,-0.15166711807250977,-0.2511741816997528,0.10332082211971283
1761399273600398800,2.34339892578125,-0.15075114369392395,-0.2239617109298706,0.18434207141399384
1761399273610456600,2.35345654296875,-0.1402258723974228,-0.19158652424812317,0.24557848274707794
1761399273620524300,2.363524169921875,-0.10110585391521454,-0.1861906498670578,0.3018353581428528
1761399273630612700,2.37361279296875,-0.049412135034799576,-0.2090398073196411,0.36375460028648376
1761399273640696600,2.383696533203125,0.019301876425743103,-0.29014432430267334,0.42900457978248596
1761399273650798300,2.39379833984375,0.14813648164272308,-0.4968526065349579,0.526396632194519
1761399273660883500,2.403883544921875,0.3409886956214905,-0.7956069707870483,0.6510677337646484
1761399273670942000,2.41394189453125,0.5664659142494202,-1.0955604314804077,0.7523900866508484
1761399273681045000,2.424044921875,0.7672787308692932,-1.292009949684143,0.840189516544342
1761399273691125500,2.43412548828125,0.9196286201477051,-1.382340669631958,0.9373816847801208
1761399273701205500,2.44420556640625,0.9721716642379761,-1.4708229303359985,1.0652669668197632
1761399273711286300,2.454286376953125,0.9175968766212463,-1.5518441200256348,1.2207645177841187
1761399273721363200,2.46436328125,0.8143759369850159,-1.591813564300537,1.4533029794692993
1761399273731448600,2.474448486328125,0.7577193379402161,-1.4956039190292358,1.7967731952667236
1761399273741528300,2.4845283203125,0.7652802467346191,-1.214003086090088,2.198831796646118
1761399273751610000,2.494610107421875,0.8406558036804199,-0.8582423329353333,2.5800395011901855
1761399273761691000,2.50469091796875,0.9345671534538269,-0.6131801009178162,2.776305913925171
1761399273771771000,2.51477099609375,1.022383213043213,-0.5131900906562805,2.730241060256958
1761399273781847800,2.524847900390625,1.118925929069519,-0.4988011121749878,2.4459755420684814
1761399273791932000,2.534931884765625,1.2094898223876953,-0.5054793357849121,2.0231664180755615
1761399273802027000,2.545027099609375,1.3013027906417847,-0.4812312424182892,1.6728681325912476
1761399273812093700,2.55509375,1.4145660400390625,-0.41331660747528076,1.5534762144088745
1761399273822194000,2.56519384765625,1.4828970432281494,-0.3435034453868866,1.6213908195495605
1761399273832255000,2.5752548828125,1.4478071928024292,-0.3292810022830963,1.734753966331482
1761399273842331400,2.585331298828125,1.3795595169067383,-0.3400227725505829,1.7155853509902954
1761399273852386300,2.59538623046875,1.3306636810302734,-0.4329182505607605,1.4391138553619385
1761399273862477000,2.60547705078125,1.3082973957061768,-0.6555309891700745,1.015871524810791
1761399273872601600,2.6156015625,1.2126041650772095,-1.0049965381622314,0.6221232414245605
1761399273882658300,2.625658203125,1.1343474388122559,-1.4022587537765503,0.36032387614250183
1761399273892740400,2.635740234375,1.0744765996932983,-1.682494044303894,0.2235453575849533
1761399273902794200,2.645794189453125,1.0240153074264526,-1.8630057573318481,0.16490696370601654
1761399273912896300,2.655896240234375,0.964694082736969,-2.0090770721435547,0.08793261647224426
1761399273922945000,2.665945068359375,0.8815411329269409,-2.0977425575256348,-0.02274923399090767
1761399273933063000,2.67606298828125,0.7880294919013977,-2.0710630416870117,-0.15371553599834442
1761399273943142700,2.686142578125,0.7021619081497192,-1.9029583930969238,-0.2751891314983368
1761399273953221600,2.6962216796875,0.6688207983970642,-1.6085506677627563,-0.37872645258903503
1761399273963304200,2.70630419921875,0.7313562035560608,-1.2143027782440186,-0.4657764136791229
1761399273973359400,2.716359375,0.7494090795516968,-0.8441198468208313,-0.5200681686401367
1761399273983465700,2.7264658203125,0.7654300928115845,-0.6587285399436951,-0.5820706486701965
1761399273993546200,2.736546142578125,0.7719751000404358,-0.760267436504364,-0.7037274241447449
1761399274003601700,2.7466015625,0.7410654425621033,-0.9573830366134644,-0.8346604108810425
1761399274013682200,2.75668212890625,0.6324819922447205,-1.1427409648895264,-0.9314695596694946
1761399274023762700,2.7667626953125,0.5464312434196472,-1.240599274635315,-0.9867438673973083
1761399274033852000,2.776851806640625,0.49785181879997253,-1.1762152910232544,-1.0006831884384155
1761399274043946000,2.786946044921875,0.42205992341041565,-0.9926226735115051,-0.980815052986145
1761399274054027300,2.79702734375,0.29967036843299866,-0.7217302918434143,-0.9433104991912842
1761399274064089300,2.80708935546875,0.16683882474899292,-0.39476415514945984,-0.8949808478355408
1761399274074218000,2.817218017578125,0.04245080426335335,-0.1308663785457611,-0.8304969072341919
1761399274084273000,2.82727294921875,-0.0753922238945961,0.020684149116277695,-0.7461115717887878
1761399274094353000,2.837352783203125,-0.20162881910800934,0.0872664600610733,-0.6566967964172363
1761399274104434400,2.847434326171875,-0.3468175530433655,0.06709858030080795,-0.5793393850326538
1761399274114514400,2.857514404296875,-0.4822637736797333,-0.04964528977870941,-0.49295559525489807
1761399274124573400,2.867573486328125,-0.549795389175415,-0.2757387161254883,-0.4130001962184906
1761399274134652000,2.87765185546875,-0.49648621678352356,-0.5192188024520874,-0.45218682289123535
1761399274144733700,2.887733642578125,-0.33341118693351746,-0.7558874487876892,-0.5856178998947144
1761399274154838300,2.89783837890625,-0.12490428984165192,-0.9926226735115051,-0.6261868476867676
1761399274164895000,2.90789501953125,0.07404325902462006,-1.107517957687378,-0.48745980858802795
1761399274174999300,2.917999267578125,0.2575026750564575,-1.0319591760635376,-0.31104499101638794
1761399274185080000,2.928080078125,0.43663206696510315,-0.8409888744354248,-0.18865543603897095
1761399274195152000,2.93815185546875,0.5996571779251099,-0.5393533706665039,-0.1752823442220688
1761399274205244200,2.948244140625,0.7105388641357422,-0.2148686796426773,-0.29910412430763245
1761399274215296000,2.9582958984375,0.7527065277099609,0.056673239916563034,-0.5010660290718079
1761399274225402600,2.968402587890625,0.7499420046806335,0.23718491196632385,-0.6600441932678223
1761399274235484000,2.97848388671875,0.6573795676231384,0.20844027400016785,-0.6386939287185669
1761399274245538000,2.9885380859375,0.3694502115249634,-0.006911370437592268,-0.6119310855865479
1761399274275805700,3.0188056640625,-0.6552645564079285,-0.3228026330471039,-0.6105154752731323
1761399274285855700,3.028855712890625,-0.5983082056045532,-0.29180970788002014,-0.36999979615211487
1761399274295967200,3.03896728515625,-0.25710299611091614,-0.5368552803993225,0.07091232389211655
1761399274306047700,3.0490478515625,0.18649043142795563,-0.8462015390396118,0.4691738188266754
1761399274316129000,3.05912890625,0.4334844946861267,-0.7928258180618286,0.4803485870361328
1761399274326210000,3.0692099609375,0.28628063201904297,-0.5100091695785522,0.09442763775587082
1761399274336291000,3.079291015625,-0.16920366883277893,-0.4185292720794678,-0.4820805788040161
1761399274346370600,3.08937060546875,-0.724994421005249,-0.5279121398925781,-1.004913330078125
1761399274356426000,3.099426025390625,-1.1870070695877075,-0.8010861277580261,-1.3514976501464844
1761399274366532600,3.10953271484375,-1.3973459005355835,-1.2930757999420166,-1.5523271560668945
1761399274376591000,3.119591064453125,-1.239183783531189,-1.8334616422653198,-1.6578795909881592
1761399274386694000,3.12969384765625,-0.7199816107749939,-2.096909761428833,-1.605652928352356
1761399274396752100,3.139752197265625,-0.14893586933612823,-1.8481837511062622,-1.307298183441162
1761399274406855700,3.149855712890625,0.14612136781215668,-1.3549116849899292,-0.9082207083702087
1761399274416936200,3.159936279296875,0.21731680631637573,-0.850331723690033,-0.6615097522735596
1761399274426979600,3.1699794921875,0.08473506569862366,-0.4574827551841736,-0.6803286671638489
1761399274437072000,3.18007177734375,-0.15025152266025543,-0.20594218373298645,-0.949056088924408
1761399274447177700,3.190177734375,-0.3250176012516022,-0.05327584221959114,-1.3226864337921143
1761399274457233000,3.20023291015625,-0.3876695930957794,0.08420214056968689,-1.5850520133972168
1761399274467339000,3.210339111328125,-0.36242228746414185,0.16479039192199707,-1.6275194883346558
1761399274477419500,3.22041943359375,-0.30764758586883545,0.13684514164924622,-1.479915976524353
1761399274487500500,3.23050048828125,-0.27493932843208313,0.05629019811749458,-1.208357334136963
1761399274497604400,3.240604248046875,-0.27314069867134094,0.0045798239298164845,-0.893831729888916
1761399274507661800,3.250661865234375,-0.29953712224960327,-0.017769716680049896,-0.6309998035430908
1761399274517742800,3.260742919921875,-0.3496320843696594,0.010858345776796341,-0.46337825059890747
1761399274527823000,3.270822998046875,-0.4101523756980896,0.04887920990586281,-0.3989776074886322
1761399274537904600,3.280904541015625,-0.45475152134895325,0.030010337010025978,-0.4214437007904053
1761399274547989000,3.290989013671875,-0.4833962321281433,-0.07784035056829453,-0.49925076961517334
1761399274558061800,3.301061767578125,-0.4753190875053406,-0.24566175043582916,-0.6044368147850037
1761399274568143600,3.3111435546875,-0.4475570321083069,-0.40157559514045715,-0.7155017256736755
1761399274578228700,3.321228759765625,-0.40747109055519104,-0.5280619859695435,-0.8129270672798157
1761399274588282400,3.331282470703125,-0.4079207479953766,-0.5889653563499451,-0.8788931965827942
1761399274598387500,3.341387451171875,-0.455767422914505,-0.5817208886146545,-0.9105522632598877
1761399274608444000,3.35144384765625,-0.5181695818901062,-0.5173868536949158,-0.9127172827720642
1761399274618515000,3.361514892578125,-0.5542919039726257,-0.42234301567077637,-0.9016923904418945
1761399274628606200,3.371606201171875,-0.5618694424629211,-0.3332946002483368,-0.8893351554870605
1761399274638686000,3.38168603515625,-0.5755090117454529,-0.2950405776500702,-0.8840059041976929
1761399274648767000,3.39176708984375,-0.6049864292144775,-0.2945076525211334,-0.881557822227478
1761399274658847200,3.40184716796875,-0.6424410343170166,-0.34012269973754883,-0.8810415267944336
1761399274668928800,3.4119287109375,-0.660310685634613,-0.4091031849384308,-0.8749794960021973
1761399274678997200,3.421997314453125,-0.6749327778816223,-0.44136178493499756,-0.8659197688102722
1761399274689098500,3.432098388671875,-0.6961331963539124,-0.40970271825790405,-0.8672187924385071
1761399274699179000,3.442178955078125,-0.7234789133071899,-0.3345436453819275,-0.8794094324111938
1761399274709276000,3.45227587890625,-0.7424810528755188,-0.27570539712905884,-0.904123842716217
1761399274719357000,3.46235693359375,-0.7350034117698669,-0.2944909930229187,-0.9280887842178345
1761399274729438200,3.472438232421875,-0.6768479943275452,-0.399027556180954,-0.9323855042457581
1761399274739514000,3.48251416015625,-0.5867336988449097,-0.5045133829116821,-0.8921330571174622
1761399274749599000,3.492598876953125,-0.4968692362308502,-0.532708466053009,-0.7715587615966797
1761399274759679500,3.502679443359375,-0.42712268233299255,-0.4628453254699707,-0.5571897029876709
1761399274769760300,3.51276025390625,-0.3580089807510376,-0.336841881275177,-0.26702871918678284
1761399274779840800,3.5228408203125,-0.27097567915916443,-0.2299904227256775,0.042933765798807144
1761399274789921500,3.532921630859375,-0.17544889450073242,-0.18201053142547607,0.31624099612236023
1761399274799998700,3.542998779296875,-0.10023985058069229,-0.21949847042560577,0.519052267074585
1761399274810082800,3.553082763671875,-0.07201148569583893,-0.3083137273788452,0.6467710733413696
1761399274820164000,3.5631640625,-0.08759953826665878,-0.4189123213291168,0.6978818774223328
1761399274830202600,3.57320263671875,-0.09039739519357681,-0.6274192333221436,0.692752480506897
1761399274840325400,3.583325439453125,-0.005612365901470184,-0.9116347432136536,0.7027448415756226
1761399274850370300,3.593370361328125,0.13950976729393005,-1.2438968420028687,0.7498587369918823
1761399274860486400,3.603486328125,0.28516480326652527,-1.6653738021850586,0.8516640663146973
1761399274870563000,3.61356298828125,0.43463361263275146,-2.2245287895202637,0.9951374530792236
1761399274880648000,3.62364794921875,0.5392034649848938,-2.7064428329467773,1.108750343322754
1761399274890703600,3.63370361328125,0.581620991230011,-2.8693013191223145,1.2478437423706055
1761399274900809200,3.643809326171875,0.5937783122062683,-2.7272768020629883,1.485195279121399
1761399274910890000,3.653889892578125,0.5924460291862488,-2.3742640018463135,1.8409559726715088
1761399274920970800,3.663970703125,0.6114481091499329,-1.8724818229675293,2.254988670349121
1761399274931047700,3.674047607421875,0.6927358508110046,-1.3822075128555298,2.605370283126831
1761399274941107000,3.68410693359375,0.839290201663971,-0.9983016848564148,2.813427448272705
1761399274951212500,3.694212646484375,1.0145392417907715,-0.6979818344116211,2.8490333557128906
1761399274961268500,3.7042685546875,1.1913037300109863,-0.545731782913208,2.6623764038085938
1761399274971375000,3.714375,1.3593083620071411,-0.5981083512306213,2.2566041946411133
1761399274981455000,3.724455078125,1.521950364112854,-0.705925703048706,1.7480272054672241
1761399274991510500,3.734510498046875,1.6513512134552002,-0.6631418466567993,1.3470511436462402
1761399275001612300,3.7446123046875,1.6939852237701416,-0.5563403367996216,1.1338810920715332
1761399275011697000,3.75469677734375,1.6349471807479858,-0.4187791049480438,1.0800223350524902
1761399275021776600,3.764776611328125,1.5250647068023682,-0.29079383611679077,1.142224669456482
1761399275041916400,3.78491650390625,1.4606972932815552,-0.5485629439353943,1.3260172605514526
1761399275052019700,3.795019775390625,1.4667927026748657,-0.9190124273300171,1.2355865240097046
1761399275062096400,3.805096435546875,1.5336581468582153,-1.2752060890197754,0.96236252784729
1761399275072181000,3.815180908203125,1.641608715057373,-1.513989806175232,0.6250876784324646
1761399275082221800,3.825221923828125,1.6469712257385254,-1.5137566328048706,0.38755300641059875
1761399275092342500,3.835342529296875,1.6211076974868774,-1.4563506841659546,0.2685941755771637
1761399275102423300,3.84542333984375,1.5693141222000122,-1.4627457857131958,0.2123039811849594
1761399275112504800,3.8555048828125,1.5130739212036133,-1.459331750869751,0.18484169244766235
1761399275122581000,3.8655810546875,1.4476906061172485,-1.4086872339248657,0.16424080729484558
1761399275132641500,3.8756416015625,1.3816078901290894,-1.3170573711395264,0.13562940061092377
1761399275142747000,3.885746826171875,1.3651372194290161,-1.2073414325714111,0.07439298927783966
1761399275152827000,3.895826904296875,1.321837067604065,-1.1365957260131836,-0.025147397071123123
1761399275162908700,3.90590869140625,1.2370353937149048,-1.1303671598434448,-0.1613430231809616
1761399275172988700,3.91598876953125,1.0996906757354736,-1.1748663187026978,-0.2956734299659729
1761399275183069400,3.9260693359375,1.022749662399292,-1.2115715742111206,-0.40593892335891724
1761399275193145300,3.936145263671875,0.9815145134925842,-1.2049766778945923,-0.49168989062309265
1761399275203230700,3.946230712890625,0.9210774898529053,-1.1655734777450562,-0.5552245378494263
1761399275213286100,3.9562861328125,0.8506981134414673,-1.066382884979248,-0.6121309399604797
1761399275223392300,3.966392333984375,0.7495589256286621,-0.9110684990882874,-0.682876706123352
1761399275233473000,3.97647314453125,0.6276856660842896,-0.7460616230964661,-0.7693271040916443
1761399275243554000,3.986553955078125,0.5145890116691589,-0.5703796148300171,-0.8574596047401428
1761399275253629700,3.996629638671875,0.40748775005340576,-0.39096707105636597,-0.9410622119903564
1761399275263714000,4.006714111328125,0.3018020689487457,-0.19538360834121704,-1.0024818181991577
1761399275273795300,4.01679541015625,0.19143663346767426,-0.01670386642217636,-1.036189317703247
1761399275283872300,4.026872314453125,0.0724777951836586,0.1325317770242691,-1.054625153541565
1761399275293957600,4.03695751953125,-0.05440830811858177,0.24869276583194733,-1.07645845413208
1761399275304038400,4.047038330078125,-0.17666462063789368,0.3303301930427551,-1.0929291248321533
1761399275314118700,4.05711865234375,-0.29647281765937805,0.40269142389297485,-1.0994741916656494
1761399275324195600,4.067195556640625,-0.40387383103370667,0.46629267930984497,-1.109033465385437
1761399275334280200,4.0772802734375,-0.5060955286026001,0.49363839626312256,-1.1204746961593628
1761399275344360200,4.087360107421875,-0.6165941953659058,0.48036521673202515,-1.1445063352584839
1761399275354442000,4.09744189453125,-0.7424144148826599,0.4637612998485565,-1.1777807474136353
1761399275364521700,4.107521728515625,-0.8585920333862305,0.44259417057037354,-1.1860078573226929
1761399275374602500,4.1176025390625,-0.910918653011322,0.3672352433204651,-1.1143627166748047
1761399275384682800,4.127682861328125,-0.8472673892974854,0.20998908579349518,-0.9603307843208313
1761399275394739500,4.137739501953125,-0.6603606343269348,0.03948640823364258,-0.8174235820770264
1761399275404819200,4.147819091796875,-0.37872645258903503,-0.13631221652030945,-0.7470775246620178
1761399275414925000,4.157925048828125,-0.05489126965403557,-0.2861140966415405,-0.7029946446418762
1761399275435087000,4.178087158203125,0.47966575622558594,-0.06493357568979263,-0.3977452218532562
1761399275445142000,4.18814208984375,0.6584287881851196,0.25363898277282715,-0.27557215094566345
1761399275455248000,4.198247802734375,0.772058367729187,0.4348500967025757,-0.28882867097854614
1761399275465338400,4.20833837890625,0.8075644969940186,0.3592580258846283,-0.3211705684661865
1761399275475409400,4.218409423828125,0.7067750692367554,0.17358365654945374,-0.3317124843597412
1761399275485490700,4.22849072265625,0.4472406208515167,0.030543262138962746,-0.4985346496105194
1761399275495571700,4.23857177734375,0.09529364109039307,-0.0387369841337204,-0.5911803245544434
1761399275505652500,4.248652587890625,-0.26494696736335754,0.0037304747384041548,-0.4776173233985901
1761399275515707000,4.258706787109375,-0.40602219104766846,0.17330053448677063,-0.3805916905403137
1761399275525813200,4.268813232421875,-0.24919237196445465,0.27482274174690247,-0.33229535818099976
1761399275535870200,4.2788701171875,0.061136484146118164,0.08463514596223831,-0.11258039623498917
1761399275545949000,4.288948974609375,0.33327794075012207,-0.1619592308998108,0.15871171653270721
1761399275556054800,4.2990546875,0.40463992953300476,-0.11754325777292252,0.16593950986862183
1761399275566135600,4.309135498046875,0.15006834268569946,0.0848349928855896,-0.14430607855319977
1761399275576217600,4.319217529296875,-0.37957578897476196,0.1312161087989807,-0.5552245378494263
1761399275586297000,4.329297119140625,-0.987126886844635,0.10262136161327362,-0.9100692868232727
1761399275596378400,4.33937841796875,-1.415964961051941,-0.12318893522024155,-1.17243492603302
1761399275606459100,4.349459228515625,-1.430453896522522,-0.6383941173553467,-1.400460124015808
1761399275616539600,4.35953955078125,-1.024531602859497,-1.2280422449111938,-1.5033313035964966
1761399275626594800,4.3695947265625,-0.42149367928504944,-1.1790964603424072,-1.2725415229797363
1761399275636701200,4.379701171875,-0.01300669927150011,-0.5176866054534912,-0.8210208415985107
1761399275646774500,4.3897744140625,0.09695903211832047,-0.02371516078710556,-0.4694402813911438
1761399275656862000,4.399862060546875,-0.043483346700668335,0.22257943451404572,-0.44046247005462646
1761399275666942700,4.409942626953125,-0.2833162248134613,0.4002266526222229,-0.6992974877357483
1761399275677023500,4.4200234375,-0.42777219414711,0.5091931223869324,-1.052160382270813
1761399275687104500,4.4301044921875,-0.4150819182395935,0.5619027614593506,-1.3143094778060913
1761399275697159700,4.44015966796875,-0.3262166976928711,0.5765748620033264,-1.3817079067230225
1761399275707265800,4.450265869140625,-0.2379176914691925,0.5484297275543213,-1.248443365097046
1761399275717346000,4.460345947265625,-0.19082044064998627,0.5112582445144653,-1.0018322467803955
1761399275727426800,4.4704267578125,-0.18479172885417938,0.48036521673202515,-0.734870195388794
1761399275737508000,4.480508056640625,-0.23115620017051697,0.5073279142379761,-0.531059741973877
1761399275747588400,4.49058837890625,-0.3181728422641754,0.570712685585022,-0.439779669046402
1761399275757669600,4.500669677734375,-0.4299372136592865,0.5682312250137329,-0.4390968680381775
1761399275767750000,4.51075,-0.532974898815155,0.4836626946926117,-0.5030645132064819
1761399275777830400,4.520830322265625,-0.5685976147651672,0.3664858341217041,-0.604669988155365
1761399275787911400,4.530911376953125,-0.5241649746894836,0.2716418504714966,-0.7018455266952515
1761399275797968600,4.54096875,-0.44907253980636597,0.2003631293773651,-0.7462281584739685
1761399275808068900,4.55106884765625,-0.4100024700164795,0.13886025547981262,-0.7169172763824463
1761399275818149400,4.5611494140625,-0.4359825849533081,0.12089069187641144,-0.6354297399520874
1761399275828230100,4.571230224609375,-0.5292944312095642,0.147237166762352,-0.5671320557594299
1761399275838315800,4.581315673828125,-0.6417249441146851,0.20101262629032135,-0.5655166506767273
1761399275848395300,4.591395263671875,-0.7100558876991272,0.21232062578201294,-0.6518005132675171
1761399275858477000,4.60147705078125,-0.7277923226356506,0.1378110647201538,-0.7781370282173157
1761399275868531500,4.611531494140625,-0.7367854118347168,0.018252680078148842,-0.8863541483879089
1761399275878637800,4.621637939453125,-0.7525733113288879,-0.09710891544818878,-0.9470076560974121
1761399275888715000,4.631715087890625,-0.7653301954269409,-0.1743164211511612,-0.9613466262817383
1761399275898799600,4.641799560546875,-0.7730742692947388,-0.1893215924501419,-0.931702733039856
1761399275908894200,4.651894287109375,-0.7608669400215149,-0.14538858830928802,-0.8607404232025146
1761399275918960600,4.661960693359375,-0.746527910232544,-0.1017053946852684,-0.7940415143966675
1761399275929041400,4.67204150390625,-0.7292078733444214,-0.08353598415851593,-0.733371376991272
1761399275939081700,4.682081787109375,-0.7306234836578369,-0.02296573482453823,-0.6903043389320374
1761399275949203700,4.69220361328125,-0.7247613072395325,-0.005295941606163979,-0.6504682302474976
1761399275959279000,4.702279052734375,-0.6484531164169312,-0.019718224182724953,-0.571728527545929
1761399275969363500,4.712363525390625,-0.5206343531608582,-0.05136064067482948,-0.4608302116394043
1761399275979419400,4.72241943359375,-0.3889685869216919,-0.08320290595293045,-0.3433035910129547
1761399275989525200,4.732525146484375,-0.26349806785583496,-0.09416117519140244,-0.2412484586238861
1761399275999606000,4.74260595703125,-0.15679651498794556,-0.09887423366308212,-0.15539757907390594
1761399276009686500,4.7526865234375,-0.07530895620584488,-0.07056259363889694,-0.05011159926652908
1761399276019750000,4.76275,-0.02421477809548378,0.08311963826417923,0.08326952159404755
1761399276029848000,4.77284814453125,-0.00048296325257979333,0.29668930172920227,0.2324885129928589
1761399276039928800,4.7829287109375,0.025447167456150055,0.44282734394073486,0.36943358182907104
1761399276050036200,4.7930361328125,0.06841424107551575,0.44281068444252014,0.4725545346736908
1761399276060091000,4.8030908203125,0.13536293804645538,0.2547881007194519,0.5332247018814087
1761399276070171600,4.813171630859375,0.24189797043800354,-0.11884226649999619,0.5653167963027954
1761399276080247800,4.823247802734375,0.40117591619491577,-0.5070781111717224,0.5951606035232544
1761399276090333000,4.8333330078125,0.5657331347465515,-0.7193654179573059,0.6382275819778442
1761399276100413400,4.843413330078125,0.6988977789878845,-0.8367254734039307,0.7312896251678467
1761399276110493700,4.85349365234375,0.8139595985412598,-0.9706228971481323,0.8094963431358337
1761399276120575200,4.8635751953125,0.891083836555481,-1.0041139125823975,0.8551114201545715
1761399276130655500,4.873655517578125,0.957283079624176,-0.9520370960235596,0.9322522878646851
1761399276140736800,4.88373681640625,1.0182031393051147,-0.8793261647224426,1.1399098634719849
1761399276150812400,4.8938125,1.0354732275009155,-0.782833456993103,1.5285120010375977
1761399276160897000,4.90389697265625,1.0555744171142578,-0.6456052660942078,2.0046138763427734
1761399276170952400,4.913952392578125,1.0746431350708008,-0.4164142310619354,2.466226816177368
1761399276181058600,4.92405859375,1.0759921073913574,-0.22602680325508118,2.789612293243408
1761399276191139000,4.93413916015625,1.0711958408355713,-0.10255474597215652,2.8542795181274414
1761399276201220600,4.944220703125,1.0906143188476562,0.05235987529158592,2.6711363792419434
1761399276211296300,4.954296142578125,1.1243550777435303,0.22670960426330566,2.3223869800567627
1761399276221381600,4.964381591796875,1.1613600254058838,0.33794105052948,1.9464085102081299
1761399276231462100,4.974462158203125,1.230607032775879,0.348233163356781,1.7001471519470215
1761399276241543000,4.98454296875,1.3032013177871704,0.3506479561328888,1.657230019569397
1761399276251624400,4.99462451171875,1.3205879926681519,0.30320098996162415,1.7142363786697388
1761399276261704200,5.0047041015625,1.2458620071411133,0.18978789448738098,1.7260440587997437
1761399276281861600,5.024861572265625,1.0921298265457153,-0.15729613602161407,1.346817970275879
1761399276291922000,5.034921875,1.0712790489196777,-0.3975287079811096,1.0768247842788696
1761399276302001400,5.04500146484375,1.0603541135787964,-0.6075344681739807,0.8618229031562805
1761399276312108800,5.05510888671875,1.035922884941101,-0.8465179800987244,0.7149521112442017
1761399276322188300,5.065188232421875,1.0058125257492065,-1.0669324398040771,0.6276190280914307
1761399276332269300,5.075269287109375,0.9188958406448364,-1.2770047187805176,0.5336077809333801
1761399276342345700,5.085345703125,0.7738236784934998,-1.4750030040740967,0.4117678105831146
1761399276352430800,5.095430908203125,0.6601441502571106,-1.5826705694198608,0.2772042453289032
1761399276362511000,5.105510986328125,0.5726278424263,-1.5426678657531738,0.16367457807064056
1761399276372592600,5.115592529296875,0.5079940557479858,-1.4409291744232178,0.060137249529361725
1761399276382672600,5.125672607421875,0.4705560803413391,-1.2577861547470093,-0.03474004566669464
1761399276392753200,5.135753173828125,0.45233669877052307,-0.9990510940551758,-0.11396267265081406
1761399276402830300,5.145830322265625,0.4589649736881256,-0.7654300928115845,-0.2063252329826355
1761399276412914700,5.155914794921875,0.4724213182926178,-0.5866504311561584,-0.32396841049194336
1761399276422996000,5.165995849609375,0.4243914484977722,-0.4625622034072876,-0.45904824137687683
1761399276433076200,5.176076171875,0.27708765864372253,-0.4616628885269165,-0.5845520496368408
1761399276443132000,5.1861318359375,0.19323526322841644,-0.4883424639701843,-0.7032777667045593
1761399276453216000,5.196216064453125,0.1522499918937683,-0.44760701060295105,-0.7833330631256104
1761399276463318300,5.206318359375,0.09492725878953934,-0.3585752248764038,-0.8266498446464539
1761399276473395000,5.21639501953125,-0.007777373772114515,-0.21671725809574127,-0.8604239821434021
1761399276483479800,5.226479736328125,-0.15511447191238403,-0.014538859017193317,-0.8827735185623169
1761399276493560800,5.236560791015625,-0.2948240637779236,0.22664299607276917,-0.8898181319236755
1761399276503641600,5.2466416015625,-0.4269561469554901,0.4236253798007965,-0.8649038672447205
1761399276513721900,5.256721923828125,-0.5663160085678101,0.4974188208580017,-0.7726412415504456
1761399276523802600,5.266802734375,-0.7091232538223267,0.4400627911090851,-0.5862840414047241
1761399276533900000,5.276900146484375,-0.8061489462852478,0.2398495376110077,-0.3210206627845764
1761399276543964400,5.28696435546875,-0.7821673154830933,-0.034839969128370285,-0.10480302572250366
1761399276554044700,5.297044677734375,-0.590947151184082,-0.2935084104537964,-0.07795692980289459
1761399276564119300,5.307119384765625,-0.23996610939502716,-0.5762917399406433,-0.11334647983312607
1761399276574206200,5.317206298828125,0.1514839231967926,-0.7696102261543274,-0.047946590930223465
1761399276584286700,5.32728662109375,0.4278721213340759,-0.7688441872596741,0.07099559903144836
1761399276594368000,5.337367919921875,0.5977919101715088,-0.6899046897888184,0.1917364001274109
1761399276604426800,5.3474267578125,0.7484264969825745,-0.48239701986312866,0.2349199801683426
1761399276614528800,5.35752880859375,0.8990277647972107,-0.1634913831949234,0.07152852416038513
1761399276624609800,5.36760986328125,0.9542021155357361,-0.0457482747733593,-0.21801626682281494
1761399276634690300,5.377690185546875,0.7996372580528259,-0.04987844452261925,-0.3727310299873352
1761399276644771800,5.387771728515625,0.3750126361846924,-0.1352463662624359,-0.38803598284721375
1761399276654828300,5.397828369140625,-0.13612902164459229,-0.24412959814071655,-0.37159857153892517
1761399276664932600,5.4079326171875,-0.5884490609169006,-0.2382507622241974,-0.2209806591272354
1761399276675012900,5.418012939453125,-0.8485164642333984,-0.14345674216747284,0.046314507722854614
1761399276685094400,5.428094482421875,-0.6463546752929688,-0.1879226565361023,0.19428445398807526
1761399276695175200,5.438175048828125,-0.013306469656527042,-0.1918196827173233,0.46689221262931824
1761399276705244400,5.448244384765625,0.5804885029792786,-0.10720118880271912,0.6870734691619873
1761399276715336400,5.45833642578125,0.6760486364364624,0.08655034005641937,0.5020819306373596
1761399276725416400,5.46841650390625,0.3083137273788452,0.20747435092926025,0.02158346027135849
1761399276735498000,5.478498046875,-0.2252107560634613,0.10377047955989838,-0.5318257808685303
1761399276745578000,5.488577880859375,-0.7126538753509521,-0.15469811856746674,-1.0259637832641602
1761399276755658800,5.49865869140625,-1.062652349472046,-0.5926291942596436,-1.3732976913452148
1761399276765739800,5.50873974609375,-1.2206312417984009,-1.101972222328186,-1.5272963047027588
1761399276775797000,5.518796875,-1.0846521854400635,-1.4837297201156616,-1.4809318780899048
1761399276785901300,5.5289013671875,-0.6211240291595459,-1.500217080116272,-1.2512245178222656
1761399276795981800,5.53898193359375,-0.13076646625995636,-1.1286184787750244,-0.9356330037117004
1761399276806062600,5.5490625,0.12483767420053482,-0.5557408332824707,-0.6301004886627197
1761399276816142600,5.559142578125,0.17906278371810913,-0.19943051040172577,-0.49465426802635193
1761399276826223600,5.5692236328125,0.03842055797576904,0.09277890622615814,-0.587932825088501
1761399276836294100,5.579294189453125,-0.16120979189872742,0.34846630692481995,-0.8834896683692932
1761399276846385000,5.589385009765625,-0.3187390863895416,0.5467976331710815,-1.2102558612823486
1761399276856441300,5.59944140625,-0.39637959003448486,0.731439471244812,-1.4108189344406128
1761399276866546400,5.60954638671875,-0.4039571285247803,0.8491492867469788,-1.4199784994125366
1761399276876628000,5.6196279296875,-0.3760618269443512,0.9062389135360718,-1.26956045627594
1761399276886722300,5.629722412109375,-0.3514973223209381,0.9219934940338135,-1.0389539003372192
1761399276896789500,5.63978955078125,-0.3569931089878082,0.8913170099258423,-0.8139929175376892
1761399276906846200,5.64984619140625,-0.39249923825263977,0.8553778529167175,-0.6623591184616089
1761399276916950000,5.659949951171875,-0.4333512485027313,0.8694503903388977,-0.603437602519989
1761399276927031000,5.670031005859375,-0.4660428762435913,0.9194287657737732,-0.6250044107437134
1761399276937112000,5.680112060546875,-0.4814310669898987,0.9330683350563049,-0.6821938753128052
1761399276947167000,5.6901669921875,-0.48023200035095215,0.8609235882759094,-0.7287915349006653
1761399276957273600,5.700273681640625,-0.4631284475326538,0.7343039512634277,-0.7420647144317627
1761399276967353600,5.710353515625,-0.43906354904174805,0.6003066301345825,-0.7137030959129333
1761399276977434400,5.720434326171875,-0.4219599962234497,0.4643108546733856,-0.6527664661407471
1761399276987517400,5.730517333984375,-0.43691518902778625,0.36840102076530457,-0.5768746137619019
1761399276997595600,5.740595703125,-0.4820805788040161,0.33660873770713806,-0.5121075510978699
1761399277007677000,5.750677001953125,-0.5321255922317505,0.34761694073677063,-0.48099806904792786
1761399277017731800,5.76073193359375,-0.5580390691757202,0.3359925150871277,-0.49460431933403015
1761399277027838700,5.770838623046875,-0.5573895573616028,0.2693769037723541,-0.5423177480697632
1761399277037918500,5.78091845703125,-0.5523600578308105,0.1610599160194397,-0.604936420917511
1761399277047997400,5.79099755859375,-0.5544584393501282,0.03628885746002197,-0.6647905707359314
1761399277058076000,5.801075927734375,-0.5661494731903076,-0.05289280042052269,-0.7053095102310181
1761399277068159200,5.8111591796875,-0.5813878178596497,-0.08703330904245377,-0.7099226713180542
1761399277078257200,5.821257080078125,-0.5876497030258179,-0.07579191774129868,-0.6819274425506592
1761399277088322000,5.831322021484375,-0.5917798280715942,-0.03695501387119293,-0.6420246958732605
1761399277098403600,5.841403564453125,-0.5827034711837769,0.006062021479010582,-0.5951106548309326
1761399277108479200,5.851479248046875,-0.5877829194068909,0.020850688219070435,-0.5699465870857239
1761399277118564900,5.86156494140625,-0.601988673210144,-0.046281199902296066,-0.5505281090736389
1761399277128644600,5.87164453125,-0.588815450668335,-0.1886887401342392,-0.5349400639533997
1761399277138726100,5.88172607421875,-0.5568732619285583,-0.346617728471756,-0.5072113275527954
1761399277148806000,5.891805908203125,-0.4947042465209961,-0.3486994504928589,-0.4348001480102539
1761399277158887000,5.901886962890625,-0.4635447859764099,-0.24729382991790771,-0.3505313992500305
1761399277168964400,5.91196435546875,-0.43621572852134705,-0.1393265724182129,-0.2642308473587036
1761399277179048200,5.922048095703125,-0.386403888463974,-0.06721515953540802,-0.1889718621969223
1761399277189129700,5.932129638671875,-0.32923105359077454,-0.024314701557159424,-0.11346305161714554
1761399277199210500,5.94221044921875,-0.27097567915916443,0.029194295406341553,-0.01836925745010376
1761399277209266400,5.952266357421875,-0.20908977091312408,0.10032312572002411,0.08431871980428696
1761399277229451800,5.97245166015625,-0.06528330594301224,0.25961771607398987,0.2758219838142395
1761399277239529500,5.982529541015625,0.027712097391486168,0.27000975608825684,0.37679460644721985
1761399277249613300,5.99261328125,0.12422147393226624,0.12936753034591675,0.4457584023475647
1761399277259694000,6.002694091796875,0.2385338842868805,-0.15463151037693024,0.44955551624298096
1761399277269775400,6.012775390625,0.3523299992084503,-0.46426090598106384,0.41266709566116333
1761399277279855600,6.022855712890625,0.4490225911140442,-0.7063587307929993,0.3877861797809601
1761399277289936100,6.03293603515625,0.5153217911720276,-0.8904842734336853,0.3623223602771759
1761399277300003800,6.04300390625,0.6036207675933838,-1.049678921699524,0.3410053551197052
1761399277310097700,6.05309765625,0.7838659882545471,-1.1642578840255737,0.3945809602737427
1761399277320179000,6.063178955078125,0.9890087842941284,-1.2069917917251587,0.5544584393501282
1761399277330233900,6.07323388671875,1.1400763988494873,-1.2497090101242065,0.8285151124000549
1761399277340340200,6.08334033203125,1.1995640993118286,-1.2184995412826538,1.1996639966964722
1761399277350420500,6.09342041015625,1.1858912706375122,-1.0496456623077393,1.623072862625122
1761399277360497200,6.1034970703125,1.169270634651184,-0.7459617257118225,2.063335657119751
1761399277370606800,6.11360693359375,1.1663895845413208,-0.3738301992416382,2.4668264389038086
1761399277390743300,6.133743408203125,1.2731077671051025,0.3687174618244171,2.774190902709961
1761399277400824000,6.143823974609375,1.3345273733139038,0.6299505829811096,2.50559663772583
1761399277410883300,6.15388330078125,1.3443365097045898,0.7079575061798096,2.0496461391448975
1761399277420985000,6.163985107421875,1.3022854328155518,0.7725746631622314,1.5961601734161377
1761399277431062300,6.174062255859375,1.2928593158721924,0.84615159034729,1.305582880973816
1761399277441147000,6.18414697265625,1.339673399925232,0.9293211698532104,1.2340210676193237
1761399277451227400,6.194227294921875,1.340023159980774,0.8952306509017944,1.2791697978973389
1761399277461283000,6.204282958984375,1.2625991106033325,0.7499086856842041,1.2987048625946045
1761399277471389000,6.214388916015625,1.1482034921646118,0.5292444229125977,1.1950675249099731
1761399277481448200,6.2244482421875,1.1415752172470093,0.34804996848106384,0.9598811268806458
1761399277491546400,6.23454638671875,1.231972575187683,0.19928061962127686,0.6856745481491089
1761399277501632000,6.244632080078125,1.2609504461288452,0.028794601559638977,0.4419446587562561
1761399277511711700,6.254711669921875,1.2102558612823486,-0.2693102955818176,0.25475478172302246
1761399277521793000,6.26479296875,1.073710560798645,-0.6819108128547668,0.08421880006790161
1761399277531873000,6.274873046875,0.9059557914733887,-0.946241557598114,-0.024947550147771835
1761399277541929000,6.284928955078125,0.7556709051132202,-0.974236786365509,-0.06276856362819672
1761399277552035600,6.29503564453125,0.6113648414611816,-0.8372417688369751,-0.036888398230075836
1761399277562111200,6.305111328125,0.48301321268081665,-0.6512010097503662,0.0403357557952404
1761399277572196600,6.315196533203125,0.4413284659385681,-0.5150886178016663,0.14227430522441864
1761399277582276900,6.32527685546875,0.4014590382575989,-0.435832679271698,0.23252181708812714
1761399277592334000,6.335333984375,0.31071189045906067,-0.45087116956710815,0.2590681314468384
1761399277602438400,6.3454384765625,0.299553781747818,-0.48334628343582153,0.18499156832695007
1761399277612518700,6.3555185546875,0.35146400332450867,-0.4471573531627655,0.06140294671058655
1761399277622571500,6.365571533203125,0.37726089358329773,-0.31624099612236023,-0.07026282697916031
1761399277632680400,6.375680419921875,0.35720959305763245,-0.0526929534971714,-0.19505053758621216
1761399277642761000,6.385760986328125,0.2768045663833618,0.2191653847694397,-0.27896955609321594
1761399277652842000,6.395842041015625,0.12335547059774399,0.4531194567680359,-0.28411561250686646
1761399277662922500,6.405922607421875,-0.0753922238945961,0.6120976209640503,-0.2533058822154999
1761399277672977700,6.415977783203125,-0.29653942584991455,0.7210474610328674,-0.24106527864933014
1761399277683079700,6.42607958984375,-0.5042968988418579,0.7872800230979919,-0.27660471200942993
1761399277693164800,6.436164794921875,-0.6770312190055847,0.7729077339172363,-0.3502982258796692
1761399277703246000,6.44624609375,-0.8190057277679443,0.7329882979393005,-0.4506379961967468
1761399277713326000,6.456326171875,-0.943493664264679,0.7278589010238647,-0.5724113583564758
1761399277723389000,6.466388916015625,-1.046964406967163,0.7343372702598572,-0.705376148223877
1761399277733487900,6.47648779296875,-1.1012394428253174,0.7457618713378906,-0.8184728026390076
1761399277743568000,6.48656787109375,-1.0849186182022095,0.7563703656196594,-0.8856546878814697
1761399277753645600,6.4966455078125,-0.9779505729675293,0.7185327410697937,-0.8560107350349426
1761399277763729400,6.5067294921875,-0.7677949666976929,0.5862507820129395,-0.6969492435455322
1761399277773810200,6.51681005859375,-0.48334628343582153,0.39804497361183167,-0.4546349346637726
1761399277783891700,6.5268916015625,-0.17872971296310425,0.26433077454566956,-0.23175573348999023
1761399277793971700,6.5369716796875,0.07915601134300232,0.3167239725589752,-0.030593223869800568
1761399277804053000,6.547052978515625,0.20615868270397186,0.5663992762565613,0.1558638960123062
1761399277814129200,6.557129150390625,0.26842764019966125,0.7870469093322754,0.2577524781227112
1761399277824214500,6.567214599609375,0.31397607922554016,0.7629153728485107,0.30000343918800354
1761399277834294800,6.577294677734375,0.3222030997276306,0.5623190999031067,0.38553789258003235
1761399277844376000,6.5873759765625,0.27195826172828674,0.3418380618095398,0.5091098546981812
1761399277854430700,6.5974306640625,0.14255742728710175,0.23560279607772827,0.5726944804191589
1761399277864536800,6.607536865234375,-0.06326818466186523,0.22599348425865173,0.5473305583000183
1761399277874617300,6.617617431640625,-0.3071313202381134,0.24447932839393616,0.4039071500301361
1761399277884674800,6.6276748046875,-0.5385539531707764,0.3205876648426056,0.034423619508743286
1761399277894754000,6.637754150390625,-0.7365689277648926,0.4889419972896576,-0.4754190146923065
1761399277904834300,6.647834228515625,-0.8183228969573975,0.882307231426239,-0.8278656005859375
1761399277914914800,6.657914794921875,-0.661060094833374,1.4695905447006226,-1.0105922222137451
1761399277924995300,6.667995361328125,-0.18722319602966309,2.068448305130005,-1.0941781997680664
1761399277935062500,6.6780625,0.417863130569458,2.3703503608703613,-1.0213673114776611
1761399277945145600,6.6881455078125,0.7527731657028198,2.1918370723724365,-0.7093064785003662
1761399277955226400,6.698226318359375,0.6477869153022766,1.6840262413024902,-0.15866175293922424
1761399277965327600,6.70832763671875,0.27855321764945984,1.0908141136169434,0.3923160433769226
1761399277975408600,6.71840869140625,-0.1747327744960785,0.6014724373817444,0.7127038836479187
1761399277985505300,6.72850537109375,-0.637528121471405,0.3320455551147461,0.6800954937934875
1761399277995586600,6.738586669921875,-0.9768680930137634,0.24972529709339142,0.38956815004348755
1761399278005667600,6.74866748046875,-1.0504117012023926,0.40349081158638,0.02892783284187317
1761399278015747600,6.75874755859375,-0.8543619513511658,0.8112949728965759,-0.31284359097480774
1761399278025827800,6.768827880859375,-0.4724712669849396,1.4196454286575317,-0.6189756989479065
1761399278035866000,6.7788662109375,-0.04551512002944946,1.9314199686050415,-0.8106954097747803
1761399278045982500,6.788982421875,0.17666462063789368,2.0997910499572754,-0.8297141790390015
1761399278056069600,6.799069580078125,0.16399100422859192,2.203061819076538,-0.6907373666763306
1761399278066150700,6.809150634765625,0.09774176776409149,2.353163480758667,-0.5294609665870667
1761399278076231200,6.819231201171875,0.02008460834622383,2.4876604080200195,-0.41844600439071655
1761399278086312200,6.829312255859375,-0.0860174149274826,2.512974262237549,-0.35547760128974915
1761399278096392700,6.839392822265625,-0.2798522114753723,2.510692834854126,-0.26010069251060486
1761399278106474200,6.84947412109375,-0.4339008331298828,2.464245080947876,-0.09281221032142639
1761399278116530000,6.859530029296875,-0.4934552013874054,2.405440092086792,0.11216405034065247
1761399278126635000,6.869635009765625,-0.47773391008377075,2.355978012084961,0.29079383611679077
1761399278136716300,6.87971630859375,-0.401259183883667,2.2371857166290283,0.3875363767147064
1761399278146760400,6.889760498046875,-0.3113114535808563,2.0794897079467773,0.3936316967010498
1761399278156877600,6.899877685546875,-0.2381175309419632,1.9328521490097046,0.3176232874393463
1761399278166957800,6.909957763671875,-0.1700197160243988,1.768927812576294,0.19566673040390015
1761399278177013500,6.920013427734375,-0.1153116375207901,1.6679885387420654,0.09610968828201294
1761399278187106000,6.93010595703125,-0.08708326518535614,1.6295013427734375,0.038387250155210495
1761399278197200100,6.9402001953125,-0.08978120237588882,1.6441566944122314,0.005612365901470184
1761399278207281400,6.950281494140625,-0.08964797109365463,1.760550856590271,0.03883690759539604
1761399278217361200,6.960361083984375,-0.115245021879673,1.8397735357284546,0.08485164493322372
1761399278227442700,6.970442626953125,-0.16235892474651337,1.7916936874389648,0.12297243624925613
1761399278237523700,6.980523681640625,-0.21393606066703796,1.6686047315597534,0.15454824268817902
1761399278247604500,6.9906044921875,-0.2655298709869385,1.5613535642623901,0.19233594834804535
1761399278257685800,7.000685791015625,-0.31860584020614624,1.45535147190094,0.23457024991512299
1761399278267764700,7.0107646484375,-0.36928367614746094,1.3139930963516235,0.24372990429401398
1761399278277846500,7.020846435546875,-0.42031124234199524,1.1710692644119263,0.2061253786087036
1761399278287926800,7.0309267578125,-0.45266979932785034,1.0351734161376953,0.12716922163963318
1761399278298006300,7.04100634765625,-0.4967360198497772,0.8791096806526184,0.019185299053788185
1761399278308083700,7.051083740234375,-0.5506446957588196,0.7160179615020752,-0.0906638577580452
1761399278318167000,7.0611669921875,-0.6030212640762329,0.6068682670593262,-0.1720348298549652
1761399278328224300,7.071224365234375,-0.6132134199142456,0.559454619884491,-0.2086068093776703
1761399278338331000,7.081330810546875,-0.606035590171814,0.5805884003639221,-0.22044773399829865
1761399278348411100,7.0914111328125,-0.6046532988548279,0.6429406404495239,-0.23655205965042114
1761399278358493400,7.101493408203125,-0.630183756351471,0.6235388517379761,-0.281101256608963
1761399278368573000,7.111572998046875,-0.6453055143356323,0.640958845615387,-0.3008028268814087
1761399278378653700,7.12165380859375,-0.6568300127983093,0.6596611738204956,-0.293241947889328
1761399278388707600,7.13170751953125,-0.6813778877258301,0.706758439540863,-0.2638145089149475
1761399278398814700,7.141814697265625,-0.6425409317016602,0.6777639389038086,-0.21831603348255157
1761399278408895500,7.1518955078125,-0.5568899512290955,0.6639912128448486,-0.15484800934791565
1761399278418976300,7.161976318359375,-0.4947875142097473,0.6556142568588257,-0.10162212699651718
1761399278429057500,7.1720576171875,-0.43071994185447693,0.6405425071716309,-0.06003732606768608
1761399278439137000,7.182136962890625,-0.3582421541213989,0.7291579246520996,-0.002897779457271099
1761399278449214700,7.192214599609375,-0.29229268431663513,0.7915101051330566,0.07079575210809708
1761399278459299000,7.202299072265625,-0.22239623963832855,0.7186493277549744,0.1521833837032318
1761399278469380000,7.212380126953125,-0.14320692420005798,0.6276856660842896,0.2563702166080475
1761399278479460600,7.222460693359375,-0.05179364234209061,0.6137463450431824,0.3876695930957794
1761399278489540600,7.23254052734375,0.08255340903997421,0.5570231676101685,0.5146223306655884
1761399278499622000,7.242621826171875,0.27815350890159607,0.26621267199516296,0.6245380640029907
1761399278509682400,7.252682373046875,0.5504615306854248,-0.11834264546632767,0.7443795800209045
1761399278519779000,7.262779052734375,0.8600742816925049,-0.5019819736480713,0.8695669770240784
1761399278529864000,7.272864013671875,1.1497689485549927,-0.7718418836593628,0.9575828909873962
1761399278539962600,7.282962646484375,1.356826901435852,-0.7866971492767334,1.0442664623260498
1761399278550025700,7.293025634765625,1.451038122177124,-0.4367486536502838,1.2165178060531616
1761399278560106500,7.3031064453125,1.3532130718231201,-0.04862940311431885,1.4883095026016235
1761399278570186800,7.313186767578125,1.1106488704681396,0.05953770875930786,1.9070219993591309
1761399278580263200,7.32326318359375,0.9072714447975159,0.1821604073047638,2.4754862785339355
1761399278590347800,7.33334765625,0.7495422959327698,0.42970404028892517,3.065234422683716
1761399278600429000,7.343428955078125,0.6296841502189636,0.7513742446899414,3.4817819595336914
1761399278610509600,7.353509521484375,0.6670721769332886,1.0158882141113281,3.573911428451538
1761399278620589600,7.363589599609375,0.6743998527526855,1.2614500522613525,3.309364080429077
1761399278630671400,7.37367138671875,0.7232624292373657,1.3982619047164917,2.790977954864502
1761399278640747500,7.38374755859375,0.8369253277778625,1.3010196685791016,2.1877567768096924
1761399278650833000,7.3938330078125,0.991939902305603,1.0170040130615234,1.7652473449707031
1761399278660912600,7.40391259765625,1.1435071229934692,0.6846587061882019,1.677880883216858
1761399278670993400,7.413993408203125,1.2445130348205566,0.4595978260040283,1.8272497653961182
1761399278681074200,7.42407421875,1.2188493013381958,0.3605237305164337,2.032775640487671
1761399278691155000,7.434155029296875,1.1419916152954102,0.13464681804180145,2.133615016937256
1761399278701235500,7.4442353515625,0.9895583987236023,-0.052992723882198334,2.0611371994018555
1761399278711312400,7.4543125,0.7987712621688843,-0.21341979503631592,1.8475341796875
1761399278721396700,7.464396728515625,0.6096661686897278,-0.38895195722579956,1.5389373302459717
1761399278731477500,7.4744775390625,0.4802653193473816,-0.489857941865921,1.2350702285766602
1761399278741558500,7.48455859375,0.4003598690032959,-0.4488060772418976,1.021966814994812
1761399278751639800,7.494639892578125,0.31327658891677856,-0.3837725818157196,0.9201115965843201
1761399278761719800,7.5047197265625,0.20287786424160004,-0.3244846761226654,0.9034743309020996
1761399278771776000,7.51477587890625,0.11074846982955933,-0.21272031962871552,0.9066552519798279
1761399278781881600,7.524881591796875,0.07012959569692612,-0.06341806799173355,0.8834230303764343
1761399278791962000,7.534962158203125,0.10375382751226425,0.06526665389537811,0.8133267760276794
1761399278802042400,7.54504248046875,0.20029650628566742,0.15383212268352509,0.7081739902496338
1761399278812081200,7.5550810546875,0.26169946789741516,0.19859781861305237,0.5980250835418701
1761399278822204700,7.56520458984375,0.21573469042778015,0.18300975859165192,0.47828349471092224
1761399278832284700,7.57528466796875,0.11962499469518661,0.12167342752218246,0.33637556433677673
1761399278842361600,7.585361572265625,0.02901110239326954,0.08848219364881516,0.17491596937179565
1761399278852446200,7.5954462890625,-0.04163476079702377,0.11091500520706177,0.021466882899403572
1761399278862527000,7.60552685546875,-0.102887824177742,0.15921132266521454,-0.10298774391412735
1761399278872607500,7.615607421875,-0.16970328986644745,0.21168778836727142,-0.17879632115364075
1761399278882688000,7.62568798828125,-0.23636886477470398,0.28050172328948975,-0.20074616372585297
1761399278892769000,7.63576904296875,-0.32320234179496765,0.4026414453983307,-0.19726550579071045
1761399278902845700,7.645845703125,-0.436931848526001,0.5324419736862183,-0.2039603739976883
1761399278912930600,7.6559306640625,-0.5472972989082336,0.6719184517860413,-0.2526397407054901
1761399278923011300,7.66601123046875,-0.6267030835151672,0.811228334903717,-0.32918107509613037
1761399278933078300,7.676078369140625,-0.68026202917099,0.9184295535087585,-0.39791175723075867
1761399278943172900,7.6861728515625,-0.7260269522666931,0.9585321545600891,-0.4628619849681854
1761399278953228300,7.696228271484375,-0.7795193195343018,0.9455754160881042,-0.5616529583930969
1761399278963315000,7.70631494140625,-0.7968060970306396,0.8935652375221252,-0.7032943964004517
1761399278973414700,7.71641455078125,-0.7438133358955383,0.791476845741272,-0.8396065831184387
1761399278983495400,7.726495361328125,-0.6203246712684631,0.6370951533317566,-0.902258574962616
1761399278993576200,7.736576171875,-0.4054226577281952,0.4623457193374634,-0.8578925728797913
1761399279003646000,7.74664599609375,-0.09779173135757446,0.2978883981704712,-0.6885390281677246
1761399279013738000,7.756738037109375,0.2146521806716919,0.18430876731872559,-0.42567381262779236
1761399279023818800,7.76681884765625,0.44211122393608093,0.147670179605484,-0.12292247265577316
1761399279033879000,7.776879150390625,0.5346736311912537,0.2587350606918335,0.11001569777727127
1761399279043979500,7.7869794921875,0.5633683204650879,0.34730052947998047,0.1417580395936966
1761399279054060300,7.797060302734375,0.5870001912117004,0.29147663712501526,0.0707457885146141
1761399279064167700,7.807167724609375,0.5841690301895142,-0.01350631657987833,0.13234858214855194
1761399279074221800,7.817221923828125,0.42359206080436707,-0.26383116841316223,0.19303540885448456
1761399279084302600,7.827302490234375,0.098024882376194,-0.27252450585365295,0.003364088712260127
1761399279094383600,7.837383544921875,-0.3107951581478119,-0.22566041350364685,-0.17484934628009796
1761399279104464100,7.847464111328125,-0.7820340394973755,0.25129076838493347,-0.2183993011713028
1761399279114544600,7.857544677734375,-0.9038240909576416,0.6368619799613953,-0.2172168791294098
1761399279124625200,7.867625244140625,-0.5950106978416443,0.9028914570808411,-0.19998009502887726
1761399279134706700,7.877706787109375,-0.053958650678396225,1.2445462942123413,-0.09639280289411545
1761399279144786700,7.88778662109375,0.4459749162197113,1.4167643785476685,0.09331183135509491
1761399279154844000,7.897843994140625,0.7464946508407593,0.9497721791267395,0.3940980136394501
1761399279164948700,7.90794873046875,0.840189516544342,0.5306267142295837,0.6820939779281616
1761399279175029500,7.918029541015625,0.6879228353500366,0.4879094362258911,0.7100892066955566
1761399279185110300,7.9281103515625,0.21310336887836456,0.5398030281066895,0.3975786566734314
1761399279195214300,7.93821435546875,-0.48870882391929626,0.6209408640861511,-0.06854747235774994
1761399279205271000,7.94827099609375,-1.084202527999878,0.5477136373519897,-0.46467724442481995
1761399279215326500,7.958326416015625,-1.3291481733322144,0.40643855929374695,-0.713952898979187
1761399279225432600,7.9684326171875,-1.150818109512329,0.42815524339675903,-0.8455187678337097
1761399279235513600,7.978513671875,-0.6106653809547424,0.8046167492866516,-0.8151586651802063
1761399279245593900,7.98859375,-0.01900210604071617,1.2439967393875122,-0.5843022465705872
1761399279255674600,7.998674560546875,0.25385546684265137,1.5091601610183716,-0.25613704323768616
1761399279265755400,8.00875537109375,0.17191825807094574,1.7396169900894165,-0.05765581876039505
1761399279275826200,8.018826171875,-0.04155149310827255,1.9163814783096313,-0.09039739519357681
1761399279285917000,8.0289169921875,-0.23385412991046906,1.974869966506958,-0.2945742607116699
1761399279295997400,8.03899755859375,-0.3528795838356018,1.8840895891189575,-0.5228660106658936
1761399279306079000,8.049078857421875,-0.39719563722610474,1.8051167726516724,-0.6502017378807068
1761399279316140500,8.059140625,-0.41011905670166016,1.8295646905899048,-0.6195918917655945
1761399279326239500,8.069239501953126,-0.4218267500400543,1.849832534790039,-0.4647272229194641
1761399279336320800,8.07932080078125,-0.4463912546634674,1.821753978729248,-0.2468608319759369
1761399279346401000,8.089401123046875,-0.45954784750938416,1.7443300485610962,-0.03205876797437668
1761399279356482300,8.099482421875,-0.4733372926712036,1.6351302862167358,0.1296173483133316
1761399279366562800,8.109562744140625,-0.48807600140571594,1.4892754554748535,0.18997108936309814
1761399279376643000,8.11964306640625,-0.49543702602386475,1.3476839065551758,0.13394735753536224
1761399279386723800,8.129723876953125,-0.48724329471588135,1.2285085916519165,-0.016087671741843224
1761399279396804600,8.1398046875,-0.4615463316440582,1.1252543926239014,-0.20724119246006012
1761399279406886000,8.149885986328124,-0.43843069672584534,1.0367555618286133,-0.3788430392742157
1761399279416966400,8.15996630859375,-0.44524213671684265,0.9422113299369812,-0.4901410639286041
1761399279427047200,8.170047119140625,-0.479432612657547,0.8949642181396484,-0.5152385234832764
1761399279437115000,8.180114990234374,-0.5127237439155579,0.9228761196136475,-0.4864439070224762
1761399279447208200,8.190208251953125,-0.5289613008499146,1.0012661218643188,-0.4507712423801422
1761399279457277200,8.200277099609375,-0.544366180896759,1.061436653137207,-0.42355877161026
1761399279467369700,8.21036962890625,-0.5811546444892883,1.1025384664535522,-0.4179297387599945
1761399279477425200,8.220425048828124,-0.6205577850341797,1.1105823516845703,-0.4239085018634796
1761399279487530800,8.23053076171875,-0.6284517645835876,1.1002734899520874,-0.41683056950569153
1761399279497611800,8.24061181640625,-0.6715187430381775,1.1025551557540894,-0.36811789870262146
1761399279507692500,8.250692626953125,-0.7557708621025085,1.0364724397659302,-0.32062098383903503
1761399279517773300,8.260773193359375,-0.839423418045044,0.9484065771102905,-0.29903751611709595
1761399279527853600,8.270853515625,-0.856027364730835,0.9110351800918579,-0.306998074054718
1761399279537935000,8.28093505859375,-0.8461016416549683,0.9025416970252991,-0.3306466341018677
1761399279548012500,8.291012451171875,-0.8262668251991272,0.9095030426979065,-0.3355262279510498
1761399279558091800,8.301091796875,-0.7326552271842957,0.8822405934333801,-0.32140371203422546
1761399279568173800,8.311173828125,-0.600073516368866,0.8659197688102722,-0.26279860734939575
1761399279578232800,8.32123291015625,-0.43982961773872375,0.7829500436782837,-0.13834398984909058
1761399279588338200,8.331338134765625,-0.3101290166378021,0.9228261709213257,0.022865811362862587
1761399279598393600,8.3413935546875,-0.3084969222545624,1.1285185813903809,0.14811982214450836
1761399279608499500,8.35149951171875,-0.23976626992225647,1.2045769691467285,0.21302010118961334
1761399279618556200,8.36155615234375,-0.09409455955028534,1.1573797464370728,0.2090398073196411
1761399279628661200,8.3716611328125,0.028111791238188744,0.9973191022872925,0.20510949194431305
1761399279638741800,8.38174169921875,0.0736602246761322,0.8241850733757019,0.26952680945396423
1761399279648822300,8.391822265625,0.11146458238363266,0.7304069399833679,0.3980116844177246
1761399279658903000,8.401903076171875,0.15986083447933197,0.7729576826095581,0.5265132188796997
1761399279668979700,8.411979736328124,0.1924358755350113,0.8834563493728638,0.6144291758537292
1761399279679064600,8.422064697265625,0.23655205965042114,0.9258571863174438,0.6828600764274597
1761399279699200500,8.442200439453124,0.5003998875617981,0.6592448353767395,0.845119059085846
1761399279709307000,8.452306884765624,0.6939182281494141,0.43776455521583557,0.9356163740158081
1761399279719387400,8.462387451171875,0.8894517421722412,0.08926492929458618,1.0332415103912354
1761399279729464000,8.472464111328126,1.0888489484786987,-0.3325451612472534,1.108767032623291
1761399279739549400,8.482549560546875,1.233638048171997,-0.6534326076507568,1.1707029342651367
1761399279749604000,8.49260400390625,1.3070650100708008,-0.6628087759017944,1.3162580728530884
1761399279759711000,8.5027109375,1.2250945568084717,-0.486876904964447,1.577657699584961
1761399279769791000,8.512791015625,1.1160614490509033,-0.3968791961669922,1.9877101182937622
1761399279779872500,8.52287255859375,1.0503284931182861,-0.2293742299079895,2.474503755569458
1761399279789953000,8.532953125,1.0142561197280884,0.06619927287101746,2.9177141189575195
1761399279810089000,8.5530888671875,0.8610235452651978,0.8653202652931213,3.4130513668060303
1761399279820208000,8.5632080078125,0.7601341605186462,1.4476906061172485,3.363206148147583
1761399279830275800,8.57327587890625,0.7340208292007446,1.7470779418945312,3.0513784885406494
1761399279840331300,8.583331298828124,0.7444961667060852,1.5898483991622925,2.571962356567383
1761399279850436400,8.593436279296874,0.7604172825813293,1.275322675704956,2.1920034885406494
1761399279860513300,8.60351318359375,0.8021020293235779,1.0699800252914429,2.0818047523498535
1761399279870598100,8.61359814453125,0.8261502385139465,1.0639846324920654,2.153449773788452
1761399279880679000,8.623678955078125,0.8003866672515869,0.9876598119735718,2.19000506401062
1761399279890751200,8.633751220703125,0.7028780579566956,0.6988478302955627,2.0911476612091064
1761399279900840200,8.643840087890625,0.5487794876098633,0.30524942278862,1.8496326208114624
1761399279910920700,8.653920654296876,0.4875597059726715,0.03903675451874733,1.53773832321167
1761399279920997600,8.66399755859375,0.5134065747261047,-0.08703330904245377,1.2923097610473633
1761399279931082000,8.67408203125,0.5065951347351074,-0.16623927652835846,1.1439234018325806
1761399279941163000,8.6841630859375,0.43588265776634216,-0.2561204135417938,1.0312597751617432
1761399279951246600,8.69424658203125,0.3039171099662781,-0.31174445152282715,0.9283885955810547
1761399279961299000,8.704298828125,0.13233192265033722,-0.3149586617946625,0.8354265093803406
1761399279971405000,8.714405029296875,-0.02291577309370041,-0.3736303448677063,0.6988810896873474
1761399279981460700,8.724460693359376,-0.11001569777727127,-0.3502316176891327,0.557123064994812
1761399279991562800,8.734562744140625,-0.13459685444831848,-0.13817745447158813,0.48043185472488403
1761399280001647000,8.744647216796874,-0.1153116375207901,0.10192190110683441,0.46331164240837097
1761399280011728100,8.75472802734375,-0.0969090685248375,0.3077641725540161,0.4592980444431305
1761399280021808600,8.76480859375,-0.07351033389568329,0.4901410639286041,0.4383307695388794
1761399280031889400,8.774889404296875,-0.040518950670957565,0.635396420955658,0.38548794388771057
1761399280041970200,8.78497021484375,-0.07012959569692612,0.7930089831352234,0.30466654896736145
1761399280052046600,8.795046630859375,-0.1741165816783905,0.9821973443031311,0.19636619091033936
1761399280062131700,8.805131591796876,-0.2827500104904175,1.133747935295105,0.08110451698303223
1761399280072212200,8.815212158203124,-0.37935930490493774,1.216134786605835,-0.0004330015217419714
1761399280082272300,8.825272216796876,-0.46204593777656555,1.2563705444335938,-0.02659628540277481
1761399280092373500,8.83537353515625,-0.5315593481063843,1.2645310163497925,-0.03252507746219635
1761399280102454300,8.845454345703125,-0.5873665809631348,1.284066081047058,-0.07827335596084595
1761399280112509700,8.855509765625,-0.6491525769233704,1.3333616256713867,-0.18051166832447052
1761399280122594800,8.8655947265625,-0.7334879040718079,1.4162647724151611,-0.333377867937088
1761399280132709600,8.875709716796875,-0.8338110446929932,1.4981852769851685,-0.48579439520835876
1761399280142777600,8.885777587890624,-0.9226762652397156,1.5347739458084106,-0.6003233194351196
1761399280152857900,8.89585791015625,-0.9676584601402283,1.5099595785140991,-0.6734672784805298
1761399280162939400,8.905939453125,-0.9298208355903625,1.4058893918991089,-0.6926858425140381
1761399280173019400,8.916019287109375,-0.7719751000404358,1.2085572481155396,-0.6113648414611816
1761399280183096300,8.926096435546874,-0.48626071214675903,0.9331016540527344,-0.4266730546951294
1761399280193181200,8.93618115234375,-0.09612634032964706,0.6338309645652771,-0.1681378185749054
1761399280203253200,8.946253173828126,0.2521401047706604,0.40349081158638,0.1274523288011551
1761399280213342000,8.956342041015626,0.4676249921321869,0.3454686105251312,0.3910503387451172
1761399280223423000,8.966423095703124,0.5721282362937927,0.37046611309051514,0.4693570137023926
1761399280233504300,8.976504150390625,0.5789729952812195,0.28273335099220276,0.36555320024490356
1761399280243583000,8.9865830078125,0.5457151532173157,0.022099731490015984,0.24786005914211273
1761399280253664800,8.996664794921875,0.4753190875053406,-0.33187901973724365,0.22522741556167603
1761399280263746000,9.00674609375,0.3202545940876007,-0.5291112065315247,0.24557848274707794
1761399280273826300,9.016826416015626,0.03933652490377426,-0.3477335274219513,0.15776243805885315
1761399280283907000,9.026906982421876,-0.30370059609413147,-0.02546382136642933,-0.06173602491617203
1761399280293987800,9.03698779296875,-0.6299505829811096,0.2651967704296112,-0.25420519709587097
1761399280304053800,9.0470537109375,-0.8169572949409485,0.5844521522521973,-0.35048142075538635
1761399280324230100,9.067230224609375,-0.3864205479621887,1.9729881286621094,-0.7133866548538208
1761399280334304000,9.077303955078126,0.17694774270057678,1.9511215686798096,-0.5497287511825562
1761399280344391700,9.0873916015625,0.5356395244598389,1.4125841856002808,-0.08596745878458023
1761399280354472000,9.097471923828126,0.5109584331512451,1.1632752418518066,0.3226694166660309
1761399280364553500,9.107553466796874,0.2564701437950134,1.0516607761383057,0.45933136343955994
1761399280374608400,9.1176083984375,-0.1719682216644287,0.8173570036888123,0.35366231203079224
1761399280384714200,9.12771435546875,-0.6596278548240662,0.5474138259887695,0.09835796058177948
1761399280394794800,9.137794677734375,-0.9702398180961609,0.3954969346523285,-0.1809779852628708
1761399280404875500,9.14787548828125,-0.9601142406463623,0.3407388925552368,-0.4223763346672058
1761399280414956300,9.157956298828125,-0.6978818774223328,0.44107866287231445,-0.5941613912582397
1761399280425037000,9.168037109375,-0.3445359766483307,0.8783435821533203,-0.6010394096374512
1761399280435118300,9.178118408203124,-0.05181029811501503,1.3396567106246948,-0.42983728647232056
1761399280445198800,9.18819873046875,0.04516538977622986,1.4853618144989014,-0.22802525758743286
1761399280455280400,9.1982802734375,-0.034207120537757874,1.4744534492492676,-0.1473204493522644
1761399280465334800,9.208334716796875,-0.1402425318956375,1.5200185775756836,-0.23448698222637177
1761399280475415300,9.218415283203125,-0.2047930657863617,1.5729113817214966,-0.4316025972366333
1761399280485521000,9.22852099609375,-0.26238226890563965,1.6111654043197632,-0.6049531102180481
1761399280495602200,9.238602294921876,-0.3231523633003235,1.6420416831970215,-0.6333813071250916
1761399280505683200,9.24868310546875,-0.3702329695224762,1.6441067457199097,-0.520567774772644
1761399280515763500,9.258763427734374,-0.3918996751308441,1.6459553241729736,-0.32090410590171814
1761399280525844700,9.2688447265625,-0.37914279103279114,1.5930625200271606,-0.12317228317260742
1761399280535919600,9.278919677734375,-0.3764781653881073,1.536239504814148,0.02020118571817875
1761399280546006000,9.289006103515625,-0.36956679821014404,1.4501720666885376,0.07822339236736298
1761399280556086500,9.29908642578125,-0.35950782895088196,1.3578095436096191,0.057555895298719406
1761399280566167300,9.309167236328125,-0.338590532541275,1.2489429712295532,-0.0164873655885458
1761399280576247800,9.319247802734376,-0.3057490289211273,1.0925794839859009,-0.1137128621339798
1761399280586305000,9.329304931640625,-0.2858143150806427,0.9156816601753235,-0.20141232013702393
1761399280596409000,9.3394091796875,-0.28777948021888733,0.745295524597168,-0.2547714412212372
1761399280606489900,9.34948974609375,-0.30061963200569153,0.6612266302108765,-0.25515449047088623
1761399280616570600,9.359570556640625,-0.32431814074516296,0.6828600764274597,-0.21172109246253967
1761399280626652000,9.36965185546875,-0.36297184228897095,0.739949643611908,-0.18490830063819885
1761399280636732700,9.379732666015625,-0.40963611006736755,0.8010528087615967,-0.20905646681785583
1761399280646813400,9.3898134765625,-0.46134647727012634,0.8376914262771606,-0.26334819197654724
1761399280656894000,9.39989404296875,-0.5017654895782471,0.804100513458252,-0.3069314658641815
1761399280666997500,9.40999755859375,-0.5322588086128235,0.7339209318161011,-0.30613207817077637
1761399280677055000,9.420054931640625,-0.5493124127388,0.6415417194366455,-0.2585185766220093
1761399280687135700,9.4301357421875,-0.5636847019195557,0.5911969542503357,-0.18400900065898895
1761399280697216300,9.44021630859375,-0.5802720189094543,0.549578845500946,-0.12895119190216064
1761399280707297000,9.450297119140625,-0.6054027676582336,0.5228326916694641,-0.11337978392839432
1761399280717377800,9.460377685546876,-0.6409754753112793,0.5168872475624084,-0.14673756062984467
1761399280727458300,9.470458251953126,-0.6776474118232727,0.5174201726913452,-0.21371956169605255
1761399280737502000,9.480501953125,-0.6974489092826843,0.49009111523628235,-0.280485063791275
1761399280747619600,9.49061962890625,-0.6869569420814514,0.4459249675273895,-0.32806527614593506
1761399280757701000,9.500701171875,-0.6874898672103882,0.4480566680431366,-0.3462013602256775
1761399280767780900,9.51078076171875,-0.635263204574585,0.4098525941371918,-0.3372415602207184
1761399280777836800,9.5208369140625,-0.5786066055297852,0.3883523941040039,-0.29410797357559204
1761399280787943700,9.530943603515626,-0.49412134289741516,0.47155532240867615,-0.19788169860839844
1761399280798019600,9.54101953125,-0.3869035243988037,0.6236221194267273,-0.12180665880441666
1761399280808100600,9.5511005859375,-0.266112744808197,0.6581622958183289,-0.06508345901966095
1761399280818181400,9.561181396484375,-0.19205282628536224,0.589714765548706,-0.02000133879482746
1761399280828265500,9.571265380859375,-0.178213432431221,0.4709058105945587,0.035123083740472794
1761399280838346200,9.58134619140625,-0.17548219859600067,0.4025748372077942,0.1216234639286995
1761399280848427500,9.591427490234375,-0.14365658164024353,0.4475570321083069,0.23202219605445862
1761399280858507800,9.6015078125,-0.10588552802801132,0.5578558444976807,0.33396074175834656
1761399280868589000,9.611589111328126,-0.07467611134052277,0.6096161603927612,0.4049563407897949
1761399280878665000,9.6216650390625,-0.007627488579601049,0.5094762444496155,0.43753138184547424
1761399280888750300,9.631750244140624,0.12515409290790558,0.26551321148872375,0.4525532126426697
1761399280898830800,9.641830810546875,0.3065650761127472,-0.06972990185022354,0.47273772954940796
1761399280908911600,9.65191162109375,0.48281335830688477,-0.34362003207206726,0.49836811423301697
1761399280918988300,9.66198828125,0.6484863758087158,-0.5951606035232544,0.4941047132015228
1761399280929073200,9.6720732421875,0.8209209442138672,-0.8361425995826721,0.5171536803245544
1761399280939153400,9.6821533203125,0.9462249279022217,-0.8792762160301208,0.599107563495636
1761399280949212200,9.692212158203125,0.8834896683692932,-0.732272207736969,0.6873899102210999
1761399280959315000,9.70231494140625,0.7333880066871643,-0.6651902794837952,0.8419881463050842
1761399280969370400,9.712370361328125,0.6213238835334778,-0.6075844168663025,1.1036043167114258
1761399280979476500,9.7224765625,0.5651336312294006,-0.4783834218978882,1.4855616092681885
1761399280989557000,9.732556884765625,0.5551578998565674,-0.29195961356163025,1.9682750701904297
1761399280999637800,9.7426376953125,0.5733273029327393,-0.09739203751087189,2.446425199508667
1761399281009715000,9.75271484375,0.5880160927772522,0.04529862105846405,2.7954578399658203
1761399281019799000,9.762799072265626,0.6143292188644409,0.10761753469705582,2.928372621536255
1761399281029855700,9.772855712890625,0.6734006404876709,0.11504517495632172,2.8270835876464844
1761399281039960300,9.782960205078124,0.7641477584838867,0.056256890296936035,2.5242323875427246
1761399281050041000,9.793041015625,0.8206045031547546,-0.10252143442630768,2.134147882461548
1761399281060121900,9.803121826171875,0.8389903903007507,-0.2783866822719574,1.8138266801834106
1761399281070177500,9.813177490234375,0.8719484806060791,-0.34193795919418335,1.6576131582260132
1761399281080279300,9.823279296875,0.9062222242355347,-0.3516305387020111,1.6475374698638916
1761399281090364700,9.83336474609375,0.8712323904037476,-0.4688740372657776,1.6748665571212769
1761399281100444400,9.8434443359375,0.7741734385490417,-0.6788464784622192,1.6493194103240967
1761399281110526200,9.853526123046874,0.7058757543563843,-0.8116280436515808,1.544100046157837
1761399281120607000,9.86360693359375,0.706758439540863,-0.7700598835945129,1.367402195930481
1761399281130687500,9.8736875,0.7449957728385925,-0.6630252599716187,1.191969871520996
1761399281140763600,9.883763671875,0.7762218713760376,-0.5921462178230286,1.0607705116271973
1761399281150823000,9.893822998046875,0.7832997441291809,-0.6126471757888794,0.9791996479034424
1761399281160903000,9.90390283203125,0.7592681646347046,-0.6663393974304199,0.9218935370445251
1761399281170984000,9.91398388671875,0.7201481461524963,-0.744063138961792,0.8531129360198975
1761399281181065200,9.924065185546874,0.6865572333335876,-0.8169073462486267,0.7612666487693787
1761399281191146000,9.93414599609375,0.6738669276237488,-0.8455520272254944,0.663391649723053
1761399281201215000,9.944215087890624,0.6956835389137268,-0.894581139087677,0.5650503635406494
1761399281211295700,9.954295654296875,0.7028447389602661,-0.9819309115409851,0.4629952013492584
1761399281221380600,9.964380615234376,0.678280234336853,-1.0501452684402466,0.3719816207885742
1761399281231477800,9.974477783203126,0.6444728374481201,-1.135263442993164,0.27938589453697205
1761399281241549000,9.984549072265626,0.6040704250335693,-1.1974657773971558,0.1732838749885559
1761399281251655400,9.994655517578124,0.5571397542953491,-1.2375683784484863,0.044316042214632034
1761399281261736200,10.004736083984374,0.491440087556839,-1.2459619045257568,-0.10798391699790955
1761399281271812900,10.014812744140626,0.412034273147583,-1.2339544296264648,-0.284565269947052
1761399281281897700,10.024897705078125,0.3092630207538605,-1.178879976272583,-0.47733423113822937
1761399281291978200,10.034978271484375,0.1961829960346222,-1.0969094038009644,-0.667371928691864
1761399281302059000,10.04505908203125,0.10070616006851196,-1.0081608295440674,-0.8414718508720398
1761399281312139500,10.055139404296876,0.036338821053504944,-0.939180314540863,-0.984245777130127
1761399281322220300,10.06522021484375,-0.009476072154939175,-0.9188125729560852,-1.0825037956237793
1761399281332297000,10.075296875,-0.046147968620061874,-0.9767515063285828,-1.1310333013534546
1761399281342381800,10.0853818359375,-0.07119544595479965,-1.0882660150527954,-1.1397433280944824
1761399281352441600,10.095441650390624,-0.0889984667301178,-1.2206978797912598,-1.1204414367675781
1761399281362543000,10.105543212890625,-0.1268361359834671,-1.339756727218628,-1.0996240377426147
1761399281372624000,10.115623779296875,-0.18768951296806335,-1.4667593240737915,-1.1089003086090088
1761399281382704600,10.12570458984375,-0.24293051660060883,-1.6485201120376587,-1.1826270818710327
1761399281392786000,10.135785888671874,-0.2867136299610138,-1.9446264505386353,-1.249609112739563
1761399281402842600,10.145842529296875,-0.263131707906723,-2.159278631210327,-1.2020455598831177
1761399281412946700,10.15594677734375,-0.22747568786144257,-2.134514331817627,-1.1531829833984375
1761399281423028000,10.166028076171875,-0.32611677050590515,-2.089298963546753,-1.2225298881530762
1761399281433108000,10.17610791015625,-0.49945059418678284,-2.0051300525665283,-1.2839494943618774
1761399281443189200,10.186189208984375,-0.5144557952880859,-1.6385776996612549,-1.1775809526443481
1761399281453244700,10.19624462890625,-0.25795233249664307,-1.136412501335144,-0.9237421154975891
1761399281463346400,10.206346435546875,0.14450593292713165,-0.6763650178909302,-0.6455386877059937
1761399281473403000,10.21640283203125,0.5141393542289734,-0.4039737582206726,-0.3623390197753906
1761399281483512300,10.22651220703125,0.7695769667625427,-0.3635880649089813,-0.07809016108512878
1761399281493593000,10.236593017578125,0.8915334939956665,-0.42852163314819336,0.05324253439903259
1761399281503673000,10.246673095703125,0.9505382776260376,-0.5039305090904236,-0.1730673760175705
1761399281513753600,10.256753662109375,0.9516540765762329,-0.46357810497283936,-0.287546306848526
1761399281523830800,10.266830810546875,1.0265966653823853,-0.22366194427013397,0.08598411083221436
1761399281533897700,10.276897705078126,1.3501321077346802,-0.04746362939476967,0.24566175043582916
1761399281543995600,10.28699560546875,1.2633318901062012,-0.2564534842967987,0.09507714211940765
1761399281554076700,10.29707666015625,0.5538256168365479,-0.5808215737342834,0.31557485461235046
1761399281564157700,10.30715771484375,0.08340275287628174,-0.6456552147865295,0.3627220392227173
1761399281574238000,10.317238037109375,-0.12164012342691422,-0.597608745098114,-0.06953005492687225
1761399281584319500,10.327319580078125,-0.23546956479549408,-0.7760885953903198,-0.6837760210037231
1761399281594397700,10.337397705078125,-0.39548027515411377,-1.1024551391601562,-1.2193156480789185
1761399281604433700,10.34743359375,-0.5663160085678101,-1.2334715127944946,-1.620391607284546
1761399281614561300,10.357561279296876,-0.6260202527046204,-1.2906277179718018,-1.8889358043670654
1761399281624641300,10.367641357421874,-0.5277955532073975,-1.4159982204437256,-2.0118749141693115
1761399281634723300,10.377723388671875,-0.26454728841781616,-1.513656735420227,-1.9619965553283691
1761399281644803000,10.387802978515625,0.0948273316025734,-1.5027984380722046,-1.8373420238494873
1761399281654884000,10.397884033203125,0.32959744334220886,-1.432852029800415,-1.7286087274551392
1761399281664965000,10.407965087890625,0.34220442175865173,-1.3287984132766724,-1.6120147705078125
1761399281675044900,10.418044921875,0.26021724939346313,-1.2090568542480469,-1.5291615724563599
1761399281685126400,10.42812646484375,0.14790332317352295,-1.0294277667999268,-1.5406527519226074
1761399281695207000,10.43820703125,0.041135143488645554,-0.90522301197052,-1.6217405796051025
1761399281705287400,10.448287353515624,-0.022649310529232025,-0.8666858673095703,-1.626786708831787
1761399281715369000,10.458368896484375,-0.03240849822759628,-0.866452693939209,-1.469057559967041
1761399281725423900,10.468423828125,-0.008993108756840229,-0.848966121673584,-1.2239954471588135
1761399281735529500,10.478529541015625,0.007943912409245968,-0.7871967554092407,-1.0173038244247437
1761399281745610500,10.488610595703125,-0.008943147026002407,-0.6942180395126343,-0.9343673586845398
1761399281755690800,10.498690673828126,-0.05547415837645531,-0.5778905153274536,-0.9441598057746887
1761399281765771800,10.508771728515624,-0.1112813949584961,-0.5529096126556396,-0.970123291015625
1761399281775844000,10.518843994140624,-0.1646738052368164,-0.7003965973854065,-0.9589818120002747
1761399281785932800,10.528932861328125,-0.21245385706424713,-0.9799657464027405,-0.9266232848167419
1761399281796013800,10.539013916015625,-0.2381175309419632,-1.2405327558517456,-0.928888201713562
1761399281806094300,10.54909423828125,-0.2506246268749237,-1.3816412687301636,-1.0222166776657104
1761399281816177400,10.559177490234376,-0.23801760375499725,-1.4554179906845093,-1.1904211044311523
1761399281826256400,10.56925634765625,-0.20644180476665497,-1.5741103887557983,-1.341521978378296
1761399281836337400,10.57933740234375,-0.1653732806444168,-1.698481798171997,-1.4124842882156372
1761399281846418000,10.58941796875,-0.14199119806289673,-1.7512247562408447,-1.4034911394119263
1761399281856498400,10.59949853515625,-0.13844391703605652,-1.7405163049697876,-1.3373252153396606
1761399281866578700,10.60957861328125,-0.15386542677879333,-1.7115551233291626,-1.2367855310440063
1761399281876659500,10.619659423828125,-0.17866308987140656,-1.7217472791671753,-1.138877272605896
1761399281886740700,10.62974072265625,-0.1896546632051468,-1.7473276853561401,-1.061769723892212
1761399281896821000,10.639821044921876,-0.17623162269592285,-1.7959903478622437,-1.000499963760376
1761399281906902300,10.64990234375,-0.1515505313873291,-1.8685680627822876,-0.9309532642364502
1761399281916978200,10.659978271484375,-0.12910106778144836,-1.9487067461013794,-0.8333280682563782
1761399281927040300,10.670040283203125,-0.09855780750513077,-1.9860780239105225,-0.705925703048706
1761399281937144300,10.680144287109375,-0.061519525945186615,-1.981065273284912,-0.5747429132461548
1761399281947198700,10.69019873046875,-0.019052067771553993,-1.9741039276123047,-0.4738702178001404
1761399281957305600,10.7003056640625,0.02809513732790947,-2.003648042678833,-0.41233402490615845
1761399281967386000,10.71038623046875,0.08991443365812302,-2.035290479660034,-0.38027524948120117
1761399281977467600,10.720467529296876,0.15916137397289276,-2.0431675910949707,-0.3685509264469147
1761399281987547100,10.730547119140626,0.18607407808303833,-2.0273964405059814,-0.3739967346191406
1761399281997627600,10.740627685546874,0.18295979499816895,-2.0153889656066895,-0.4043234884738922
1761399282017789200,10.7607890625,0.12791864573955536,-1.9821476936340332,-0.4876762926578522
1761399282027870000,10.770869873046875,0.11131469905376434,-1.9219605922698975,-0.49843472242355347
1761399282037912600,10.78091259765625,0.10120578110218048,-1.8140432834625244,-0.4953370988368988
1761399282048028200,10.791028076171875,0.09187959134578705,-1.7220970392227173,-0.4963030219078064
1761399282058108200,10.801108154296875,0.07995539903640747,-1.6830103397369385,-0.5027647614479065
1761399282068192800,10.81119287109375,0.0670652762055397,-1.6770981550216675,-0.515138566493988
1761399282078273500,10.8212734375,0.048496171832084656,-1.6991811990737915,-0.518702507019043
1761399282088354300,10.831354248046875,0.02687940187752247,-1.7202317714691162,-0.5034142136573792
1761399282098431000,10.841430908203124,0.020351070910692215,-1.7145028114318848,-0.47953253984451294
1761399282108495000,10.8514951171875,0.022782541811466217,-1.702162265777588,-0.46294525265693665
1761399282118596400,10.861596435546875,0.02721248008310795,-1.6831434965133667,-0.4531360864639282
1761399282128677000,10.871677001953126,0.03055991604924202,-1.655181646347046,-0.4340174198150635
1761399282138758400,10.88175830078125,0.04025248810648918,-1.6388108730316162,-0.3862040638923645
1761399282148838700,10.891838623046874,0.07374349236488342,-1.6295679807662964,-0.2985878586769104
1761399282158916000,10.901916015625,0.12886790931224823,-1.6195422410964966,-0.1756487339735031
1761399282168974300,10.911974365234375,0.19100363552570343,-1.6159449815750122,-0.03638878092169762
1761399282179055000,10.92205517578125,0.24344678223133087,-1.6464049816131592,0.09882427006959915
1761399282189162000,10.932161865234375,0.28098466992378235,-1.7218139171600342,0.23232197761535645
1761399282199242800,10.94224267578125,0.3012358248233795,-1.8177903890609741,0.36032387614250183
1761399282209322800,10.95232275390625,0.3005197048187256,-1.8736642599105835,0.4995505213737488
1761399282219403500,10.962403564453124,0.29570671916007996,-1.8937654495239258,0.6516006588935852
1761399282229479000,10.97247900390625,0.2986378073692322,-1.9109523296356201,0.8060489892959595
1761399282239565300,10.9825654296875,0.31792303919792175,-1.947224497795105,0.9639113545417786
1761399282249645600,10.9926455078125,0.36102333664894104,-2.0024654865264893,1.1387773752212524
1761399282259726300,11.002726318359375,0.4367486536502838,-2.0589888095855713,1.335959553718567
1761399282269806800,11.012806884765626,0.5522434711456299,-2.0666162967681885,1.5492128133773804
1761399282279887600,11.0228876953125,0.6955836415290833,-2.01810359954834,1.741632103919983
1761399282289964500,11.032964599609375,0.8648706078529358,-1.8761955499649048,1.8465349674224854
1761399282300025900,11.04302587890625,1.0662496089935303,-1.6443233489990234,1.8038843870162964
1761399282310098700,11.0530986328125,1.261966347694397,-1.4364159107208252,1.610515832901001
1761399282320210700,11.063210693359375,1.3735474348068237,-1.3241186141967773,1.3050166368484497
1761399282330298600,11.073298583984375,1.4202783107757568,-1.3143761157989502,0.9763684868812561
1761399282340372000,11.0833720703125,1.4157984256744385,-1.321237564086914,0.6862741112709045
1761399282350453200,11.093453369140626,1.3915003538131714,-1.2942914962768555,0.45093777775764465
1761399282360529400,11.103529296875,1.390984058380127,-1.27052640914917,0.26098334789276123
1761399282370614300,11.1136142578125,1.4296711683273315,-1.2868305444717407,0.05294276401400566
1761399282380694800,11.12369482421875,1.4865775108337402,-1.3653537034988403,-0.1971655786037445
1761399282390750500,11.13375048828125,1.5473309755325317,-1.4029749631881714,-0.4545683264732361
1761399282400856000,11.14385595703125,1.5937952995300293,-1.3704664707183838,-0.6852748990058899
1761399282410936800,11.153936767578125,1.6197587251663208,-1.3777941465377808,-0.903990626335144
1761399282421014000,11.164013916015625,1.6306504011154175,-1.4343675374984741,-1.1196919679641724
1761399282431098400,11.174098388671876,1.600107192993164,-1.4343341588974,-1.295357346534729
1761399282441153800,11.18415380859375,1.5280457735061646,-1.408553957939148,-1.4263403415679932
1761399282451260700,11.1942607421875,1.4378647804260254,-1.3957470655441284,-1.5157052278518677
1761399282461341000,11.2043408203125,1.3538458347320557,-1.3840227127075195,-1.5773578882217407
1761399282471396000,11.21439599609375,1.3039175271987915,-1.354428768157959,-1.6146960258483887
1761399282481497900,11.224497802734374,1.277854084968567,-1.3374584913253784,-1.642641305923462
1761399282491582500,11.23458251953125,1.296523094177246,-1.3159582614898682,-1.6561309099197388
1761399282501663500,11.24466357421875,1.3235857486724854,-1.3377082347869873,-1.6728681325912476
1761399282511719400,11.254719482421875,1.379259705543518,-1.434434175491333,-1.6938353776931763
1761399282521799400,11.26479931640625,1.4534028768539429,-1.6004735231399536,-1.693518877029419
1761399282531905800,11.27490576171875,1.5165878534317017,-1.8279658555984497,-1.6826106309890747
1761399282541986300,11.284986328125,1.6265535354614258,-2.080838680267334,-1.6635252237319946
1761399282552063200,11.295063232421874,1.6904213428497314,-2.2711596488952637,-1.6393437385559082
1761399282562148400,11.3051484375,1.642824411392212,-2.361607074737549,-1.6156452894210815
1761399282572229000,11.31522900390625,1.5899815559387207,-2.316441535949707,-1.5781906843185425
1761399282582309000,11.32530908203125,1.493072509765625,-2.202695369720459,-1.5643678903579712
1761399282592372700,11.335372802734375,1.3381412029266357,-2.0686981678009033,-1.560437560081482
1761399282602445000,11.345445068359375,1.1948343515396118,-1.9733378887176514,-1.5842859745025635
1761399282612547300,11.35554736328125,1.1357630491256714,-1.8902015686035156,-1.5475307703018188
1761399282622632000,11.3656318359375,1.0509446859359741,-1.8656703233718872,-1.4628623723983765
1761399282632673500,11.375673583984375,0.9586653709411621,-1.8787603378295898,-1.3456188440322876
1761399282642793200,11.385793212890626,0.8744965195655823,-1.8901516199111938,-1.2214640378952026
1761399282652874000,11.3958740234375,0.8083639144897461,-1.8612737655639648,-1.1101659536361694
1761399282662924800,11.4059248046875,0.7626988887786865,-1.8189228773117065,-1.0199517011642456
1761399282673035500,11.416035400390625,0.7282419204711914,-1.7684781551361084,-0.9672588109970093
1761399282683112000,11.42611181640625,0.6773476004600525,-1.703078269958496,-0.9504550099372864
1761399282693197300,11.436197265625,0.6291678547859192,-1.6129473447799683,-0.9363324642181396
1761399282703277300,11.44627734375,0.5833696126937866,-1.4976023435592651,-0.902608335018158
1761399282713358000,11.456358154296876,0.5346069931983948,-1.3457521200180054,-0.8557442426681519
1761399282723439000,11.466439208984376,0.4855445921421051,-1.1603940725326538,-0.8162744641304016
1761399282733516300,11.476516357421875,0.4164808392524719,-0.9444096088409424,-0.8042503595352173
1761399282743575800,11.486575927734375,0.3330780863761902,-0.7274092435836792,-0.829414427280426
1761399282753681200,11.49668115234375,0.24286389350891113,-0.5168372988700867,-0.8863707780838013
1761399282763761700,11.50676171875,0.1486361026763916,-0.35098105669021606,-0.953918993473053
1761399282773817900,11.51681787109375,0.05405857414007187,-0.23953311145305634,-1.0116081237792969
1761399282783924000,11.526924072265626,-0.034923236817121506,-0.16580627858638763,-1.0607205629348755
1761399282793978400,11.536978271484376,-0.12175669521093369,-0.13000038266181946,-1.108750343322754
1761399282804080400,11.547080322265625,-0.20259475708007812,-0.1365453600883484,-1.1610769033432007
1761399282814136000,11.557135986328126,-0.2959398925304413,-0.13819409906864166,-1.2004634141921997
1761399282824246300,11.567246337890625,-0.39269906282424927,-0.190837100148201,-1.221547245979309
1761399282834301700,11.5773017578125,-0.46974003314971924,-0.2630484402179718,-1.1857414245605469
1761399282844407300,11.5874072265625,-0.5164542198181152,-0.3607069253921509,-1.094011664390564
1761399282854488300,11.59748828125,-0.5154716372489929,-0.46189606189727783,-0.979582667350769
1761399282864543500,11.60754345703125,-0.45490139722824097,-0.554724931716919,-0.860357403755188
1761399282874650000,11.617650146484374,-0.34007275104522705,-0.6266697645187378,-0.740715742111206
1761399282884730000,11.627730224609374,-0.22647644579410553,-0.6442063450813293,-0.6133633255958557
1761399282894811000,11.637810791015625,-0.1561969667673111,-0.557256281375885,-0.4940047860145569
1761399282904891600,11.6478916015625,-0.1418246477842331,-0.4139661192893982,-0.42490771412849426
1761399282914947800,11.65794775390625,-0.19281890988349915,-0.22169677913188934,-0.40380722284317017
1761399282925053400,11.668053466796875,-0.2959398925304413,-0.048612747341394424,-0.3997436761856079
1761399282935134500,11.678134521484376,-0.46162959933280945,0.10600210726261139,-0.426406592130661
1761399282945214500,11.68821435546875,-0.7690273523330688,0.20637518167495728,-0.6046532988548279
1761399282955295200,11.698295166015624,-1.1690208911895752,0.3503648638725281,-0.8225197196006775
1761399282965377000,11.708376953125,-1.4457920789718628,0.4166640341281891,-0.9753026366233826
1761399282975431400,11.718431396484375,-1.3527467250823975,0.1398928016424179,-0.9659098386764526
1761399282985538300,11.728538330078125,-0.9831965565681458,-0.2661626935005188,-0.7697934508323669
1761399282995592700,11.7385927734375,-0.5079107880592346,-0.5583721399307251,-0.4457584023475647
1761399283005691100,11.748691162109376,-0.15329919755458832,-0.8678349852561951,-0.10362059623003006
1761399283015779800,11.75877978515625,-0.07017955183982849,-1.090580940246582,-0.04413284733891487
1761399283025860000,11.768860107421874,-0.11109820008277893,-0.9747863411903381,-0.23425382375717163
1761399283035920100,11.778920166015626,-0.2888120114803314,-0.7604506015777588,-0.6189590096473694
1761399283046021600,11.789021728515625,-0.5249643921852112,-0.6706027984619141,-1.0119411945343018
1761399283056102100,11.79910205078125,-0.7643975615501404,-0.8455687165260315,-1.230607032775879
1761399283066181600,11.809181640625,-0.9734041094779968,-1.2786535024642944,-1.170836091041565
1761399283076262000,11.819261962890625,-1.0850684642791748,-1.8527635335922241,-0.9395133852958679
1761399283086343200,11.82934326171875,-1.1113650798797607,-2.30881404876709,-0.6994140148162842
1761399283096425700,11.83942578125,-1.0505949258804321,-2.5390710830688477,-0.5673818588256836
1761399283106481700,11.849481689453125,-0.8883525729179382,-2.537755250930786,-0.5844354629516602
1761399283116586500,11.85958642578125,-0.6925193071365356,-2.3070154190063477,-0.7577693462371826
1761399283126671600,11.869671630859376,-0.5397197604179382,-1.8284488916397095,-0.9944379925727844
1761399283136748300,11.879748291015625,-0.4127337336540222,-1.416581153869629,-1.226410150527954
1761399283146828800,11.889828857421875,-0.3503148853778839,-1.1279523372650146,-1.3364925384521484
1761399283156909800,11.899909912109376,-0.3728809356689453,-0.9925060868263245,-1.3167243003845215
1761399283166992600,11.90999267578125,-0.5020486116409302,-0.9729710817337036,-1.2508747577667236
1761399283177071400,11.9200712890625,-0.5617362260818481,-1.0185694694519043,-1.1366289854049683
1761399283187136800,11.93013671875,-0.5105587840080261,-1.1541821956634521,-0.9827302694320679
1761399283197232600,11.940232666015625,-0.33520978689193726,-1.3471343517303467,-0.851580798625946
1761399283207313400,11.9503134765625,-0.11762653291225433,-1.3979620933532715,-0.7563703656196594
1761399283217394000,11.960393798828125,0.028711332008242607,-1.3343441486358643,-0.6752325892448425
1761399283227474700,11.970474609375,0.1004563570022583,-1.2497256994247437,-0.5833030343055725
1761399283237555700,11.9805556640625,0.1423908919095993,-1.118043303489685,-0.4752857983112335
1761399283247623000,11.990622802734375,0.15429842472076416,-1.0165044069290161,-0.37769392132759094
1761399283257716700,12.000716796875,0.0460980087518692,-1.0722949504852295,-0.29134342074394226
1761399283267797800,12.0107978515625,-0.03728809207677841,-1.2537392377853394,-0.18249349296092987
1761399283277878500,12.02087841796875,-0.026646247133612633,-1.3690508604049683,-0.16109322011470795
1761399283287959000,12.030958984375,-0.00626186840236187,-1.4088537693023682,-0.2667955458164215
1761399283298028000,12.041028076171875,-0.044282734394073486,-1.4164313077926636,-0.4443928003311157
1761399283308119000,12.051119140625,-0.12298908829689026,-1.4581493139266968,-0.6116645932197571
1761399283318198800,12.06119873046875,-0.20432676374912262,-1.4942549467086792,-0.7340708374977112
1761399283328274700,12.071274658203125,-0.2469440996646881,-1.4386309385299683,-0.8467178344726562
1761399283338350300,12.081350341796876,-0.2603171765804291,-1.3082308769226074,-0.969290554523468
1761399283348443600,12.091443603515625,-0.288029283285141,-1.1836097240447998,-1.0760087966918945
1761399283358512600,12.1015126953125,-0.3321288228034973,-1.082020878791809,-1.1436902284622192
1761399283368604400,12.1116044921875,-0.37832674384117126,-0.9714722037315369,-1.182577133178711
1761399283378670600,12.121670654296874,-0.4165308177471161,-0.8638047575950623,-1.214286208152771
1761399283388757200,12.13175732421875,-0.464444100856781,-0.7648971676826477,-1.26128351688385
1761399283398846700,12.1418466796875,-0.5297107696533203,-0.7236121892929077,-1.2993875741958618
1761399283408915200,12.151915283203126,-0.6051196455955505,-0.7095063328742981,-1.30984628200531
1761399283419008300,12.16200830078125,-0.6765482425689697,-0.6364789605140686,-1.2891122102737427
1761399283429075200,12.1720751953125,-0.746811032295227,-0.4589483141899109,-1.2433305978775024
1761399283439167700,12.182167724609375,-0.7800022959709167,-0.28654709458351135,-1.171452283859253
1761399283449237000,12.192237060546875,-0.75730299949646,-0.2055591493844986,-1.0851351022720337
1761399283459330800,12.202330810546876,-0.6893384456634521,-0.22341212630271912,-0.9910572171211243
1761399283469411800,12.212411865234374,-0.6031544804573059,-0.3211539089679718,-0.8635882139205933
1761399283479479600,12.2224794921875,-0.5356062054634094,-0.39136675000190735,-0.6841590404510498
1761399283489570000,12.232570068359376,-0.459231436252594,-0.47098907828330994,-0.4430604875087738
1761399283499654000,12.24265380859375,-0.3617061674594879,-0.46879076957702637,-0.22046439349651337
1761399283509719600,12.252719482421876,-0.2604670822620392,-0.44114527106285095,-0.06626588851213455
1761399283519815200,12.262815185546875,-0.1997969001531601,-0.4629785418510437,0.027628827840089798
1761399283529879300,12.27287939453125,-0.1691870242357254,-0.5352731347084045,0.08495157212018967
1761399283539976700,12.282976806640624,-0.15110087394714355,-0.5925126075744629,0.12082407623529434
1761399283550057000,12.293056884765624,-0.10405359417200089,-0.6828933954238892,0.14513878524303436
1761399283560138200,12.30313818359375,-0.00009992343257181346,-0.829064667224884,0.1823769062757492
1761399283570204400,12.313204345703125,0.14748698472976685,-1.0529597997665405,0.22044773399829865
1761399283580299000,12.323299072265625,0.2895447909832001,-1.3075813055038452,0.26098334789276123
1761399283590380300,12.33338037109375,0.43406736850738525,-1.5959769487380981,0.3017188012599945
1761399283600471800,12.343471923828124,0.6352798342704773,-1.9222936630249023,0.3741799294948578
1761399283610539800,12.353539794921875,0.8918665647506714,-2.148486852645874,0.5559906363487244
1761399283620620000,12.3636201171875,1.067598581314087,-2.214686155319214,0.7760053277015686
1761399283630685400,12.373685546875,1.122273325920105,-2.2209479808807373,1.004213809967041
1761399283640779800,12.38377978515625,1.1301839351654053,-2.1363794803619385,1.2410989999771118
1761399283650864600,12.39386474609375,1.1430407762527466,-1.988043189048767,1.5484133958816528
1761399283660945200,12.403945068359375,1.1427576541900635,-1.7887959480285645,1.8994112014770508
1761399283671026400,12.4140263671875,1.1125807762145996,-1.5437170267105103,2.1849422454833984
1761399283681108200,12.424108154296874,1.0880329608917236,-1.247827172279358,2.3188397884368896
1761399283691187000,12.43418701171875,1.1243051290512085,-0.9458751678466797,2.2810354232788086
1761399283701245700,12.44424560546875,1.2236956357955933,-0.6530328989028931,2.0976758003234863
1761399283711348500,12.454348388671875,1.3372585773468018,-0.3585086166858673,1.8333284854888916
1761399283721429000,12.464428955078125,1.4152321815490723,-0.11462882906198502,1.5735275745391846
1761399283731497200,12.474497314453124,1.4855782985687256,-0.024614471942186356,1.420145034790039
1761399283741579500,12.48457958984375,1.549928903579712,-0.06984647363424301,1.4013261795043945
1761399283751671000,12.494671142578126,1.5550251007080078,-0.19908078014850616,1.4601976871490479
1761399283761750300,12.504750244140626,1.4812482595443726,-0.3043667674064636,1.4586988687515259
1761399283771823400,12.5148232421875,1.3816078901290894,-0.3320455551147461,1.3225698471069336
1761399283781913900,12.524913818359375,1.3179733753204346,-0.3595578074455261,1.0778241157531738
1761399283791981800,12.53498193359375,1.3145925998687744,-0.507178008556366,0.7843655943870544
1761399283802075000,12.545074951171875,1.31697416305542,-0.7006464004516602,0.5350067019462585
1761399283812145400,12.5551455078125,1.2846488952636719,-0.9172804355621338,0.38943490386009216
1761399283822236200,12.565236083984376,1.2126541137695312,-1.1956837177276611,0.29502391815185547
1761399283832302600,12.575302490234375,1.1164112091064453,-1.5162880420684814,0.1912534385919571
1761399283842397700,12.585397705078124,1.017453670501709,-1.8157086372375488,0.05425842106342316
1761399283852478700,12.595478759765625,0.9162978529930115,-1.9353336095809937,-0.08460183441638947
1761399283862559200,12.605559326171875,0.8223031759262085,-1.886720895767212,-0.19231928884983063
1761399283872643000,12.61564306640625,0.7347536087036133,-1.712670922279358,-0.2399161458015442
1761399283882707700,12.625707763671874,0.6447059512138367,-1.5513778924942017,-0.26454728841781616
1761399283892799500,12.635799560546875,0.5666823983192444,-1.3982951641082764,-0.2928256094455719
1761399283902869800,12.645869873046875,0.512740433216095,-1.1605273485183716,-0.2941412627696991
1761399283912942800,12.65594287109375,0.4951372444629669,-0.9349668622016907,-0.3002699017524719
1761399283923043600,12.666043701171875,0.5047631859779358,-0.8152086138725281,-0.3553610146045685
1761399283933102800,12.676102783203126,0.5135231614112854,-0.8073813319206238,-0.4520036280155182
1761399283943205400,12.686205322265625,0.4989343285560608,-0.8610901236534119,-0.5662660598754883
1761399283953281800,12.69628173828125,0.4855445921421051,-0.8594580888748169,-0.6503016948699951
1761399283983515100,12.72651513671875,0.14663763344287872,-0.36596956849098206,-0.5727444291114807
1761399283993608700,12.736608642578124,-0.022116385400295258,-0.2013956755399704,-0.5485129952430725
