time,seconds_elapsed,z,y,x
1761399271362457300,0.105457275390625,-0.014538859017193317,0.02125038206577301,-0.03803751990199089
1761399271372538000,0.1155380859375,-0.016670558601617813,0.01961830072104931,-0.045315276831388474
1761399271382619600,0.12561962890625,-0.018236026167869568,0.023482006043195724,-0.036671899259090424
1761399271392700400,0.135700439453125,-0.01712021417915821,0.032541729509830475,-0.017852986231446266
1761399271402780400,0.145780517578125,-0.014372319914400578,0.04349999874830246,-0.004313361365348101
1761399271412883200,0.15588330078125,-0.013622893951833248,0.049661945551633835,0.00039969373028725386
1761399271422967300,0.16596728515625,-0.012590352445840836,0.05414184555411339,0.0017486599972471595
1761399271433010400,0.176010498046875,-0.01269027590751648,0.057056277990341187,0.0038137442898005247
1761399271443128600,0.186128662109375,-0.012873467989265919,0.05757254734635353,0.00782733503729105
1761399271453184300,0.196184326171875,-0.014022587798535824,0.05998736619949341,0.009093032218515873
1761399271463290000,0.2062900390625,-0.015121745876967907,0.05815543606877327,0.00559571199119091
1761399271473339000,0.2163388671875,-0.01673717424273491,0.05001167580485344,0.002897779457271099
1761399271483447600,0.226447509765625,-0.01953503116965294,0.04295042157173157,0.002464778022840619
1761399271493532700,0.23653271484375,-0.023698506876826286,0.03925325348973274,0.0003164241788908839
1761399271503587300,0.24658740234375,-0.026479708030819893,0.03898679092526436,-0.003130934201180935
1761399271513694200,0.256694091796875,-0.028628062456846237,0.04303368926048279,-0.010525267571210861
1761399271523774200,0.266774169921875,-0.029244257137179375,0.05092764273285866,-0.017603177577257156
1761399271533812000,0.27681201171875,-0.02942745015025139,0.06121975556015968,-0.02529728226363659
1761399271543932200,0.28693212890625,-0.03052660822868347,0.07127871364355087,-0.03294142335653305
1761399271553991400,0.296991455078125,-0.031292688101530075,0.07640811800956726,-0.038803599774837494
1761399271564098000,0.30709814453125,-0.03132599592208862,0.07487595826387405,-0.04233422502875328
1761399271574169900,0.317169921875,-0.0288445632904768,0.0762915387749672,-0.04240084066987038
1761399271584258800,0.3272587890625,-0.03080972470343113,0.07973889261484146,-0.0399194099009037
1761399271594339300,0.33733935546875,-0.03372415900230408,0.08318625390529633,-0.034223772585392
1761399271604405800,0.34740576171875,-0.036755166947841644,0.08471841365098953,-0.027645481750369072
1761399271614502100,0.357502197265625,-0.04045233502984047,0.08107120543718338,-0.022516079246997833
1761399271624561700,0.367561767578125,-0.044449273496866226,0.07474272698163986,-0.023065658286213875
1761399271634662700,0.37766259765625,-0.04971190541982651,0.06398430466651917,-0.027162518352270126
1761399271644743000,0.387742919921875,-0.05777239426970482,0.04797989875078201,-0.037138208746910095
1761399271654798300,0.39779833984375,-0.06599942594766617,0.034207120537757874,-0.04937882721424103
1761399271664904200,0.407904296875,-0.06943012773990631,0.03119276463985443,-0.05973755568265915
1761399271674960100,0.417960205078125,-0.0683143138885498,0.03677182272076607,-0.06683211773633957
1761399271685065700,0.428065673828125,-0.07062920928001404,0.03627220541238785,-0.07557541877031326
1761399271695146000,0.43814599609375,-0.07252775877714157,0.020684149116277695,-0.08610069006681442
1761399271705230000,0.44822998046875,-0.0717117115855217,-0.006278522312641144,-0.08953139185905457
1761399271715307500,0.4583076171875,-0.06881393492221832,-0.03632216528058052,-0.08355264365673065
1761399271725363200,0.46836328125,-0.06654900312423706,-0.059687595814466476,-0.07627488672733307
1761399271735447600,0.478447509765625,-0.06298507004976273,-0.07982216775417328,-0.07194487005472183
1761399271745528800,0.48852880859375,-0.058971475809812546,-0.10405359417200089,-0.07176167517900467
1761399271755631000,0.498631103515625,-0.05657331645488739,-0.1276688277721405,-0.07440964877605438
1761399271765707000,0.50870703125,-0.047830015420913696,-0.14818644523620605,-0.07655800133943558
1761399271775792400,0.51879248046875,-0.03668855130672455,-0.16590620577335358,-0.07937251031398773
1761399271785872400,0.528872314453125,-0.027412327006459236,-0.1807781308889389,-0.08335279673337936
1761399271795928000,0.538927978515625,-0.018685681745409966,-0.19255244731903076,-0.08681680262088776
1761399271806028000,0.549028076171875,-0.012856814078986645,-0.20720788836479187,-0.08666691929101944
1761399271816089000,0.559089111328125,-0.008260336704552174,-0.22484436631202698,-0.08178732544183731
1761399271826195700,0.56919580078125,-0.007111217360943556,-0.23681852221488953,-0.07559207081794739
1761399271836277200,0.57927734375,-0.007860642857849598,-0.24379651248455048,-0.06943012773990631
1761399271846341000,0.589341064453125,-0.009892419911921024,-0.2560371458530426,-0.06616596132516861
1761399271856437000,0.59943701171875,-0.015438170172274113,-0.26801130175590515,-0.06433403491973877
1761399271866493000,0.609492919921875,-0.022949080914258957,-0.2826334238052368,-0.06510011106729507
1761399271876599300,0.619599365234375,-0.033424388617277145,-0.29813820123672485,-0.07042936235666275
1761399271886679300,0.62967919921875,-0.04676416516304016,-0.32291921973228455,-0.07912269979715347
1761399271896760000,0.639760009765625,-0.05998736619949341,-0.3512308597564697,-0.08793261647224426
1761399271906840800,0.6498408203125,-0.07106221467256546,-0.37826013565063477,-0.09159647673368454
1761399271916897500,0.6598974609375,-0.07953905314207077,-0.4051395356655121,-0.09624291956424713
1761399271926976800,0.669976806640625,-0.08821573108434677,-0.4230591356754303,-0.10237155109643936
1761399271937058000,0.68005810546875,-0.09779173135757446,-0.43441709876060486,-0.11238054931163788
1761399271947164400,0.690164306640625,-0.10618529468774796,-0.43255186080932617,-0.1321154236793518
1761399271957229000,0.70022900390625,-0.11268032342195511,-0.43115293979644775,-0.15851186215877533
1761399271967325200,0.7103251953125,-0.11681048572063446,-0.43858057260513306,-0.18589088320732117
1761399271977405700,0.72040576171875,-0.12077412009239197,-0.4474404752254486,-0.21525171399116516
1761399271987459300,0.730459228515625,-0.12811848521232605,-0.45316940546035767,-0.246660977602005
1761399271997542000,0.7405419921875,-0.13791099190711975,-0.4558173716068268,-0.27224138379096985
1761399272007622700,0.75062255859375,-0.14836964011192322,-0.4565334916114807,-0.28599750995635986
1761399272017728500,0.760728515625,-0.1621757298707962,-0.45983096957206726,-0.28717994689941406
1761399272027809500,0.7708095703125,-0.1757819652557373,-0.4669921398162842,-0.28273335099220276
1761399272037846300,0.78084619140625,-0.18810585141181946,-0.4752691388130188,-0.2767046391963959
1761399272047973000,0.79097314453125,-0.19739873707294464,-0.48203063011169434,-0.2708258032798767
1761399272058047500,0.801047607421875,-0.2070246934890747,-0.48572778701782227,-0.2668621838092804
1761399272068128500,0.81112841796875,-0.21678388118743896,-0.4908738434314728,-0.25828540325164795
1761399272078211000,0.821211181640625,-0.22459456324577332,-0.49640294909477234,-0.2448457032442093
1761399272088270600,0.8312705078125,-0.23297147452831268,-0.5011492967605591,-0.22800861299037933
1761399272098375000,0.841375,-0.242014542222023,-0.5060955286026001,-0.2083403468132019
1761399272108455000,0.851454833984375,-0.25029152631759644,-0.4999835193157196,-0.19155322015285492
1761399272118531300,0.86153125,-0.25795233249664307,-0.4919230341911316,-0.18284322321414948
1761399272128616200,0.8716162109375,-0.2603171765804291,-0.498884379863739,-0.18204383552074432
1761399272138697000,0.881697021484375,-0.2631649971008301,-0.5095762014389038,-0.18547454476356506
1761399272148778500,0.891778564453125,-0.2651301622390747,-0.5065284967422485,-0.18770615756511688
1761399272158858000,0.90185791015625,-0.2721414566040039,-0.49856793880462646,-0.18887193500995636
1761399272168938800,0.911938720703125,-0.2792360186576843,-0.4954869747161865,-0.18935489654541016
1761399272179015700,0.922015625,-0.2823503017425537,-0.4893583357334137,-0.18579095602035522
1761399272189100800,0.932100830078125,-0.28196725249290466,-0.4798322916030884,-0.17971228063106537
1761399272199182000,0.94218212890625,-0.2837325632572174,-0.4646605849266052,-0.17439968883991241
1761399272209261800,0.95226171875,-0.293724924325943,-0.45246994495391846,-0.16317495703697205
1761399272219342600,0.962342529296875,-0.3048330843448639,-0.4457084536552429,-0.14302372932434082
1761399272229423000,0.972423095703125,-0.3153750002384186,-0.437448114156723,-0.1177431046962738
1761399272239500000,0.9825,-0.32485106587409973,-0.43504995107650757,-0.09609302878379822
1761399272249585400,0.99258544921875,-0.3336942791938782,-0.4350666105747223,-0.07953905314207077
1761399272259665200,1.0026650390625,-0.34235432744026184,-0.4387471079826355,-0.07142859697341919
1761399272269746700,1.01274658203125,-0.35622701048851013,-0.45253655314445496,-0.06363456696271896
1761399272279826700,1.02282666015625,-0.3664691746234894,-0.4724213182926178,-0.04871267080307007
1761399272289884400,1.032884521484375,-0.3698998689651489,-0.4820639193058014,-0.030709801241755486
1761399272299988700,1.04298876953125,-0.3693169951438904,-0.4815143644809723,-0.010541921481490135
1761399272310065400,1.0530654296875,-0.3651535212993622,-0.4770843982696533,0.017386676743626595
1761399272320149800,1.063149658203125,-0.36132311820983887,-0.48166424036026,0.056256890296936035
1761399272330230800,1.073230712890625,-0.34964874386787415,-0.4843788146972656,0.10686811059713364
1761399272340333300,1.083333251953125,-0.3277322053909302,-0.5033642649650574,0.15976090729236603
1761399272350392300,1.093392333984375,-0.2953070402145386,-0.5639511942863464,0.20893989503383636
1761399272360472300,1.103472412109375,-0.24612805247306824,-0.6633583307266235,0.25570404529571533
1761399272370549200,1.11354931640625,-0.17583192884922028,-0.7821673154830933,0.2804184556007385
1761399272380608800,1.12360888671875,-0.10446994751691818,-0.9032578468322754,0.2740066945552826
1761399272390695400,1.1336953125,-0.07261102646589279,-1.003597617149353,0.2531726658344269
1761399272400795400,1.14379541015625,-0.06744831800460815,-1.1006731986999512,0.24203120172023773
1761399272410879500,1.15387939453125,-0.05427507683634758,-1.17763090133667,0.2540220022201538
1761399272420957400,1.16395751953125,-0.02078407257795334,-1.2056593894958496,0.28120118379592896
1761399272431031300,1.17403125,0.026779478415846825,-1.1977821588516235,0.32485106587409973
1761399272441114000,1.184114013671875,0.07589184492826462,-1.1839094161987305,0.4054226577281952
1761399272451199000,1.194198974609375,0.1169770285487175,-1.1456553936004639,0.5543085932731628
1761399272461264400,1.204264404296875,0.1749492734670639,-1.1043537855148315,0.7826336026191711
1761399272471360300,1.2143603515625,0.2567199468612671,-1.0642344951629639,1.0592050552368164
1761399272481432300,1.224432373046875,0.3372415602207184,-1.0774409770965576,1.2832832336425781
1761399272491521500,1.234521484375,0.4210440218448639,-1.2483433485031128,1.4156651496887207
1761399272501598000,1.244597900390625,0.5185859203338623,-1.340572714805603,1.5394870042800903
1761399272511658000,1.254657958984375,0.6814611554145813,-1.2354199886322021,1.6592785120010376
1761399272521745700,1.26474560546875,0.8511644005775452,-1.0818209648132324,1.7503087520599365
1761399272531844600,1.2748447265625,1.0097262859344482,-0.9565170407295227,1.766096591949463
1761399272541925000,1.284925048828125,1.119608759880066,-0.8216204047203064,1.6695040464401245
1761399272551980500,1.29498046875,1.1830267906188965,-0.7038439512252808,1.4808485507965088
1761399272562060800,1.305060791015625,1.1926361322402954,-0.6475037932395935,1.2885792255401611
1761399272572167200,1.315167236328125,1.1428242921829224,-0.6698700189590454,1.192752718925476
1761399272582248000,1.325248046875,1.0759254693984985,-0.7222798466682434,1.176764965057373
1761399272592328700,1.33532861328125,1.027612566947937,-0.7494590282440186,1.1694039106369019
1761399272602409000,1.345408935546875,1.032891869544983,-0.7894450426101685,1.137028694152832
1761399272612490000,1.355489990234375,1.0655335187911987,-0.8498154282569885,1.0526434183120728
1761399272622570500,1.365570556640625,1.0993741750717163,-0.8291979432106018,0.9080374836921692
1761399272632647700,1.375647705078125,1.192752718925476,-0.6704029440879822,0.7407490611076355
1761399272642732000,1.38573193359375,1.326783299446106,-0.4383973777294159,0.6000401973724365
1761399272652812800,1.395812744140625,1.4783837795257568,-0.28814586997032166,0.49806833267211914
1761399272662893300,1.405893310546875,1.6290849447250366,-0.2554875612258911,0.4041902720928192
1761399272672974300,1.415974365234375,1.7434972524642944,-0.33479344844818115,0.32291921973228455
1761399272683054800,1.426054931640625,1.7469446659088135,-0.5238319039344788,0.2542884647846222
1761399272693131800,1.4361318359375,1.6240887641906738,-0.7624824047088623,0.1712021380662918
1761399272703216000,1.446216064453125,1.3711659908294678,-0.9782670140266418,0.09942381083965302
1761399272713297000,1.456296875,1.102938175201416,-1.0443496704101562,0.08058824390172958
1761399272723377700,1.466377685546875,0.9903411269187927,-0.9502385258674622,0.10725114494562149
1761399272733458400,1.47645849609375,0.9630619883537292,-0.8699167370796204,0.1298171877861023
1761399272743539200,1.486539306640625,0.9367488622665405,-0.8814412355422974,0.12800191342830658
1761399272753619700,1.49661962890625,0.9241418242454529,-0.8808416724205017,0.10317093878984451
1761399272763696400,1.5066962890625,0.9384808540344238,-0.8414052128791809,0.06378445774316788
1761399272773781000,1.516781005859375,0.9541188478469849,-0.8661695718765259,0.009825804270803928
1761399272783861800,1.52686181640625,0.9955537915229797,-0.8927159309387207,-0.08786600083112717
1761399272793942300,1.5369423828125,0.9716887474060059,-0.8814245462417603,-0.2143857181072235
1761399272804023300,1.547023193359375,0.9169140458106995,-0.8523135185241699,-0.3464345335960388
1761399272814104000,1.55710400390625,0.8357928395271301,-0.8444029092788696,-0.4565834403038025
1761399272824181000,1.567180908203125,0.7007963061332703,-0.8342440724372864,-0.5267463326454163
1761399272834266000,1.57726611328125,0.5162710547447205,-0.8035342693328857,-0.5556908249855042
1761399272844346000,1.58734619140625,0.35061466693878174,-0.7362858057022095,-0.575442373752594
1761399272854426600,1.597426513671875,0.20254479348659515,-0.6515340805053711,-0.602604866027832
1761399272864482000,1.60748193359375,0.07257771492004395,-0.5352065563201904,-0.6607103943824768
1761399272874588200,1.617588134765625,-0.05342572554945946,-0.40129250288009644,-0.7384507656097412
1761399272884670500,1.62767041015625,-0.1837591826915741,-0.2774040997028351,-0.8239519596099854
1761399272894749700,1.637749755859375,-0.3198382556438446,-0.17934590578079224,-0.8998770713806152
1761399272904830500,1.64783056640625,-0.4454919397830963,-0.1194084957242012,-0.9340842366218567
1761399272914885600,1.6578857421875,-0.5467976331710815,-0.10921631008386612,-0.8853715658187866
1761399272924967000,1.667966796875,-0.5992907881736755,-0.1640409678220749,-0.7494590282440186
1761399272935072800,1.67807275390625,-0.5801054835319519,-0.273656964302063,-0.5765748620033264
1761399272945153000,1.688153076171875,-0.48800936341285706,-0.4073212146759033,-0.44489240646362305
1761399272955234300,1.698234375,-0.33154594898223877,-0.5359060168266296,-0.35687652230262756
1761399272965312800,1.708312744140625,-0.13970960676670074,-0.5717785358428955,-0.2754722535610199
1761399272975369700,1.71836962890625,0.0383206345140934,-0.4784500300884247,-0.16319161653518677
1761399272985475800,1.728475830078125,0.15236657857894897,-0.31076186895370483,-0.03490658476948738
1761399272995556600,1.738556640625,0.20019659399986267,-0.14778675138950348,0.04774674400687218
1761399273005637400,1.748637451171875,0.2046598345041275,-0.05918797850608826,0.045531775802373886
1761399273015692800,1.75869287109375,0.19678254425525665,-0.044316042214632034,-0.014805321581661701
1761399273025799000,1.768798828125,0.13914337754249573,-0.010908307507634163,-0.09137997776269913
1761399273035857000,1.77885693359375,-0.0771242305636406,0.10665160417556763,-0.31742343306541443
1761399273045960200,1.788960205078125,-0.41706374287605286,0.318522572517395,-0.5744264721870422
1761399273056040700,1.799040771484375,-0.6967493891716003,0.5935118794441223,-0.4822637736797333
1761399273066121500,1.80912158203125,-0.7430805563926697,0.6486362814903259,-0.10210508853197098
1761399273076177200,1.81917724609375,-0.42267611622810364,0.6004065871238708,0.21610106527805328
1761399273086284000,1.829283935546875,0.12527066469192505,0.5604038834571838,0.4531860649585724
1761399273096363800,1.83936376953125,0.4121508300304413,0.6675717830657959,0.46724194288253784
1761399273106425300,1.84942529296875,0.2681278586387634,0.853079617023468,0.18477506935596466
1761399273116525600,1.859525634765625,-0.10831699520349503,0.8639046549797058,-0.20407694578170776
1761399273126605800,1.869605712890625,-0.5767080783843994,0.7223631143569946,-0.5671653747558594
1761399273136687000,1.87968701171875,-1.0447161197662354,0.457649290561676,-0.8859044909477234
1761399273146767400,1.889767333984375,-1.394697904586792,0.10758422315120697,-1.0845855474472046
1761399273156847900,1.899847900390625,-1.4698569774627686,-0.3371083438396454,-1.113979697227478
1761399273166929000,1.909928955078125,-1.1687543392181396,-0.8264500498771667,-1.0223499536514282
1761399273177009200,1.920009033203125,-0.6222731471061707,-1.1694371700286865,-0.8852382898330688
1761399273187090200,1.930090087890625,-0.22231297194957733,-1.0529098510742188,-0.7640145421028137
1761399273197170700,1.940170654296875,-0.08590084314346313,-0.639243483543396,-0.6720683574676514
1761399273207251700,1.950251708984375,-0.11327986419200897,-0.37159857153892517,-0.679862380027771
1761399273217332000,1.96033203125,-0.2202811986207962,-0.3198882043361664,-0.8091965913772583
1761399273227388200,1.97038818359375,-0.34088876843452454,-0.18464183807373047,-1.0321756601333618
1761399273237493500,1.980493408203125,-0.38790273666381836,-0.004080206621438265,-1.241914987564087
1761399273247574000,1.990573974609375,-0.33730819821357727,0.10653503239154816,-1.3412388563156128
1761399273257655000,2.000655029296875,-0.24746036529541016,0.14070884883403778,-1.2881962060928345
1761399273267735600,2.010735595703125,-0.1959831565618515,0.16887059807777405,-1.1215238571166992
1761399273277816000,2.020816162109375,-0.19644945859909058,0.19245252013206482,-0.9125174283981323
1761399273287897300,2.0308974609375,-0.23425382375717163,0.18387576937675476,-0.7501918077468872
1761399273297975800,2.040975830078125,-0.2953903079032898,0.21635088324546814,-0.7001968026161194
1761399273308054500,2.051054443359375,-0.3465511202812195,0.25370559096336365,-0.7275591492652893
1761399273318135300,2.06113525390625,-0.3911169469356537,0.2828998863697052,-0.756203830242157
1761399273328215600,2.071215576171875,-0.4084203541278839,0.26273199915885925,-0.7483432292938232
1761399273338300400,2.081300537109375,-0.39323198795318604,0.1889052391052246,-0.6932854056358337
1761399273348381000,2.091380859375,-0.36831775307655334,0.1351630985736847,-0.6472040414810181
1761399273358462000,2.1014619140625,-0.3367752730846405,0.059854134917259216,-0.6283518075942993
1761399273368542500,2.11154248046875,-0.3299638032913208,-0.057839009910821915,-0.6156448721885681
1761399273378623200,2.121623291015625,-0.3644040822982788,-0.15789566934108734,-0.6005398035049438
1761399273388679200,2.13167919921875,-0.4267396628856659,-0.18787269294261932,-0.5903642773628235
1761399273398780700,2.14178076171875,-0.4897913336753845,-0.16324158012866974,-0.601988673210144
1761399273408865500,2.151865478515625,-0.5337409973144531,-0.14408957958221436,-0.6453221440315247
1761399273418946000,2.161946044921875,-0.555890679359436,-0.17419984936714172,-0.704143762588501
1761399273429027600,2.172027587890625,-0.5666491389274597,-0.27175840735435486,-0.7577693462371826
1761399273439082200,2.182082275390625,-0.5678815245628357,-0.4111349582672119,-0.8080474734306335
1761399273449188000,2.19218798828125,-0.5537423491477966,-0.5465478301048279,-0.8422878980636597
1761399273459264800,2.2022646484375,-0.5190855860710144,-0.6220399737358093,-0.8544619083404541
1761399273469324500,2.212324462890625,-0.5116246342658997,-0.567148745059967,-0.8591749668121338
1761399273479431400,2.222431396484375,-0.5401527285575867,-0.5359393358230591,-0.844502866268158
1761399273489466000,2.232466064453125,-0.5430005788803101,-0.49433785676956177,-0.794224739074707
1761399273499591700,2.242591796875,-0.5776407122612,-0.46294525265693665,-0.7463281154632568
1761399273509673200,2.252673095703125,-0.6235222220420837,-0.44289395213127136,-0.6495189666748047
1761399273519728000,2.26272802734375,-0.6179597973823547,-0.4258236885070801,-0.513489842414856
1761399273529834000,2.272833984375,-0.5528596639633179,-0.37547892332077026,-0.4050729274749756
1761399273539914000,2.2829140625,-0.4669421911239624,-0.3532959222793579,-0.35707637667655945
1761399273549971000,2.292970947265625,-0.3952304720878601,-0.3665691018104553,-0.2910269796848297
1761399273560056300,2.303056396484375,-0.3315792381763458,-0.40100938081741333,-0.20617534220218658
1761399273570126300,2.313126220703125,-0.2617161273956299,-0.3564102053642273,-0.11131469905376434
1761399273580216000,2.323216064453125,-0.18902182579040527,-0.28201723098754883,-0.0007827335502952337
1761399273590292500,2.33329248046875,-0.1536322683095932,-0.252839595079422,0.10280455648899078
1761399273600398800,2.34339892578125,-0.15271630883216858,-0.22564375400543213,0.18384245038032532
1761399273610456600,2.35345654296875,-0.14219103753566742,-0.19325190782546997,0.2450622022151947
1761399273620524300,2.363524169921875,-0.10307101905345917,-0.18787269294261932,0.30133575201034546
1761399273630612700,2.37361279296875,-0.051377296447753906,-0.21072185039520264,0.36325496435165405
1761399273640696600,2.383696533203125,0.017353368923068047,-0.29182636737823486,0.4284883141517639
1761399273650798300,2.39379833984375,0.14617131650447845,-0.4985346496105194,0.5258970260620117
1761399273660883500,2.403883544921875,0.33902353048324585,-0.7972890138626099,0.6505681276321411
1761399273670942000,2.41394189453125,0.5645007491111755,-1.0972259044647217,0.7518738508224487
1761399273681045000,2.424044921875,0.7653135657310486,-1.2936919927597046,0.8396899104118347
1761399273691125500,2.43412548828125,0.9176634550094604,-1.3840227127075195,0.9368820786476135
1761399273701205500,2.44420556640625,0.9702065587043762,-1.472488284111023,1.0647507905960083
1761399273711286300,2.454286376953125,0.9156317114830017,-1.5535261631011963,1.2202482223510742
1761399273721363200,2.46436328125,0.8124107718467712,-1.5934789180755615,1.4527866840362549
1761399273731448600,2.474448486328125,0.7557708621025085,-1.4972859621047974,1.7962734699249268
1761399273741528300,2.4845283203125,0.7633150815963745,-1.2156851291656494,2.1983320713043213
1761399273751610000,2.494610107421875,0.8386906385421753,-0.8599077463150024,2.5795233249664307
1761399273761691000,2.50469091796875,0.9326019883155823,-0.6148621439933777,2.775806188583374
1761399273771771000,2.51477099609375,1.0204180479049683,-0.514872133731842,2.7297415733337402
1761399273781847800,2.524847900390625,1.1169774532318115,-0.5004831552505493,2.4454760551452637
1761399273791932000,2.534931884765625,1.2075246572494507,-0.5071446895599365,2.0226666927337646
1761399273802027000,2.545027099609375,1.29933762550354,-0.482896625995636,1.6723685264587402
1761399273812093700,2.55509375,1.4126008749008179,-0.4149986505508423,1.5529766082763672
1761399273822194000,2.56519384765625,1.4809318780899048,-0.3451854884624481,1.6208912134170532
1761399273832255000,2.5752548828125,1.4458420276641846,-0.33096304535865784,1.7342376708984375
1761399273842331400,2.585331298828125,1.3775943517684937,-0.3417048156261444,1.715085744857788
1761399273852386300,2.59538623046875,1.3286985158920288,-0.434600293636322,1.438597559928894
1761399273862477000,2.60547705078125,1.3063489198684692,-0.6571964025497437,1.0153719186782837
1761399273872601600,2.6156015625,1.2106389999389648,-1.006678581237793,0.6216236352920532
1761399273882658300,2.625658203125,1.1323822736740112,-1.4039242267608643,0.3598242700099945
1761399273892740400,2.635740234375,1.0725114345550537,-1.6841760873794556,0.22302909195423126
1761399273902794200,2.645794189453125,1.022050142288208,-1.8646878004074097,0.16440734267234802
1761399273912896300,2.655896240234375,0.9627289175987244,-2.010759115219116,0.08741634339094162
1761399273922945000,2.665945068359375,0.8795759677886963,-2.0994246006011963,-0.023265505209565163
1761399273933063000,2.67606298828125,0.7860643267631531,-2.072728395462036,-0.15421515703201294
1761399273943142700,2.686142578125,0.7001968026161194,-1.9046404361724854,-0.2756887376308441
1761399273953221600,2.6962216796875,0.6668556332588196,-1.6102161407470703,-0.37922605872154236
1761399273963304200,2.70630419921875,0.7293910980224609,-1.21598482131958,-0.46627601981163025
1761399273973359400,2.716359375,0.7474439144134521,-0.8458018898963928,-0.520567774772644
1761399273983465700,2.7264658203125,0.7634649872779846,-0.6604105830192566,-0.5825702548027039
1761399273993546200,2.736546142578125,0.7700099349021912,-0.7619494795799255,-0.7042436599731445
1761399274003601700,2.7466015625,0.7391002774238586,-0.9590483903884888,-0.8351766467094421
1761399274013682200,2.75668212890625,0.6305168271064758,-1.144423007965088,-0.931969165802002
1761399274023762700,2.7667626953125,0.5444661378860474,-1.242264747619629,-0.9872434735298157
1761399274033852000,2.776851806640625,0.4958866834640503,-1.177897334098816,-1.00119948387146
1761399274043946000,2.786946044921875,0.42011141777038574,-0.9943047165870667,-0.9813313484191895
1761399274054027300,2.79702734375,0.29770520329475403,-0.7233956456184387,-0.9438101053237915
1761399274064089300,2.80708935546875,0.16489030420780182,-0.39644619822502136,-0.8954804539680481
1761399274074218000,2.817218017578125,0.04048564285039902,-0.13254842162132263,-0.8310132026672363
1761399274084273000,2.82727294921875,-0.0773407369852066,0.01900210604071617,-0.7466278672218323
1761399274094353000,2.837352783203125,-0.20359398424625397,0.08558441698551178,-0.6571964025497437
1761399274104434400,2.847434326171875,-0.3487827181816101,0.06541653722524643,-0.5798556804656982
1761399274114514400,2.857514404296875,-0.4842289388179779,-0.051327332854270935,-0.4934552013874054
1761399274124573400,2.867573486328125,-0.5517604947090149,-0.2774207592010498,-0.4134998023509979
1761399274134652000,2.87765185546875,-0.4984513819217682,-0.5209008455276489,-0.4526864290237427
1761399274144733700,2.887733642578125,-0.3353763222694397,-0.7575694918632507,-0.5861175060272217
1761399274154838300,2.89783837890625,-0.12686944007873535,-0.9943047165870667,-0.6267030835151672
1761399274164895000,2.90789501953125,0.07207810133695602,-1.1092000007629395,-0.4879594147205353
1761399274174999300,2.917999267578125,0.2555375099182129,-1.0336246490478516,-0.31154459714889526
1761399274185080000,2.928080078125,0.43468356132507324,-0.8426709175109863,-0.18915505707263947
1761399274195152000,2.93815185546875,0.5976920127868652,-0.5410187244415283,-0.17579862475395203
1761399274205244200,2.948244140625,0.7085736989974976,-0.21655072271823883,-0.29960376024246216
1761399274215296000,2.9582958984375,0.7507413625717163,0.055007848888635635,-0.5015656352043152
1761399274225402600,2.968402587890625,0.7479768395423889,0.23551952838897705,-0.6605437994003296
1761399274235484000,2.97848388671875,0.6554310917854309,0.20675823092460632,-0.6392101645469666
1761399274245538000,2.9885380859375,0.36748507618904114,-0.008593414910137653,-0.6124306917190552
1761399274275805700,3.0188056640625,-0.6572297215461731,-0.3244846761226654,-0.6110151410102844
1761399274285855700,3.028855712890625,-0.6002733707427979,-0.29349175095558167,-0.3705160617828369
1761399274295967200,3.03896728515625,-0.2590681314468384,-0.5385206937789917,0.07041271030902863
1761399274306047700,3.0490478515625,0.184525266289711,-0.8478835821151733,0.468657523393631
1761399274316129000,3.05912890625,0.4315193295478821,-0.794491171836853,0.4798322916030884
1761399274326210000,3.0692099609375,0.28431546688079834,-0.5116912126541138,0.09391137212514877
1761399274336291000,3.079291015625,-0.17116883397102356,-0.42019468545913696,-0.4825802147388458
1761399274346370600,3.08937060546875,-0.7269595861434937,-0.5295941829681396,-1.0054295063018799
1761399274356426000,3.099426025390625,-1.188955545425415,-0.8027681708335876,-1.3519972562789917
1761399274366532600,3.10953271484375,-1.399294376373291,-1.2947578430175781,-1.5528267621994019
1761399274376591000,3.119591064453125,-1.2411322593688965,-1.8351271152496338,-1.6583791971206665
1761399274386694000,3.12969384765625,-0.7219467759132385,-2.0985751152038574,-1.6061692237854004
1761399274396752100,3.139752197265625,-0.15090103447437286,-1.8498657941818237,-1.3078144788742065
1761399274406855700,3.149855712890625,0.14415620267391205,-1.3565771579742432,-0.9087203145027161
1761399274416936200,3.159936279296875,0.2153516411781311,-0.8520137667655945,-0.6620093584060669
1761399274426979600,3.1699794921875,0.08278656005859375,-0.4591647982597351,-0.6808449625968933
1761399274437072000,3.18007177734375,-0.15221668779850006,-0.20762422680854797,-0.9495723247528076
1761399274447177700,3.190177734375,-0.3269827663898468,-0.05494123324751854,-1.3231860399246216
1761399274457233000,3.20023291015625,-0.38963475823402405,0.08253674954175949,-1.5855683088302612
1761399274467339000,3.210339111328125,-0.3643874228000641,0.16310834884643555,-1.628019094467163
1761399274477419500,3.22041943359375,-0.30959609150886536,0.1351630985736847,-1.4804322719573975
1761399274487500500,3.23050048828125,-0.27690446376800537,0.05460815504193306,-1.2088569402694702
1761399274497604400,3.240604248046875,-0.27508920431137085,0.002897779457271099,-0.8943480253219604
1761399274507661800,3.250661865234375,-0.3015022873878479,-0.01945176161825657,-0.6314994096755981
1761399274517742800,3.260742919921875,-0.35159724950790405,0.009192955680191517,-0.4638778567314148
1761399274527823000,3.270822998046875,-0.41211754083633423,0.047197166830301285,-0.3994772136211395
1761399274537904600,3.280904541015625,-0.4567166864871979,0.028328292071819305,-0.421943336725235
1761399274547989000,3.290989013671875,-0.48536139726638794,-0.07950574159622192,-0.49975037574768066
1761399274558061800,3.301061767578125,-0.4772842526435852,-0.24732713401317596,-0.604936420917511
1761399274568143600,3.3111435546875,-0.4495221972465515,-0.40324100852012634,-0.7160013318061829
1761399274578228700,3.321228759765625,-0.40943625569343567,-0.529744029045105,-0.813426673412323
1761399274588282400,3.331282470703125,-0.4098859131336212,-0.5906473994255066,-0.8793928027153015
1761399274598387500,3.341387451171875,-0.4577159285545349,-0.5833863019943237,-0.9110684990882874
1761399274608444000,3.35144384765625,-0.5201181173324585,-0.519052267074585,-0.9132168889045715
1761399274618515000,3.361514892578125,-0.5562570691108704,-0.4240250587463379,-0.9022086262702942
1761399274628606200,3.371606201171875,-0.5638346076011658,-0.3349599838256836,-0.889851450920105
1761399274638686000,3.38168603515625,-0.5774741768836975,-0.2967226207256317,-0.8845221996307373
1761399274648767000,3.39176708984375,-0.6069515347480774,-0.29618969559669495,-0.8820740580558777
1761399274658847200,3.40184716796875,-0.6444061994552612,-0.34180474281311035,-0.8815411329269409
1761399274668928800,3.4119287109375,-0.6622591614723206,-0.4107685685157776,-0.8754957914352417
1761399274678997200,3.421997314453125,-0.6768979430198669,-0.4430438280105591,-0.8664193749427795
1761399274689098500,3.432098388671875,-0.698098361492157,-0.41136810183525085,-0.8677183985710144
1761399274699179000,3.442178955078125,-0.7254440784454346,-0.3362090289592743,-0.8799090385437012
1761399274709276000,3.45227587890625,-0.7444462180137634,-0.27737078070640564,-0.9046401381492615
1761399274719357000,3.46235693359375,-0.7369685769081116,-0.2961730360984802,-0.9285884499549866
1761399274729438200,3.472438232421875,-0.6788131594657898,-0.4007095992565155,-0.9328851103782654
1761399274739514000,3.48251416015625,-0.5886988639831543,-0.5061954259872437,-0.8926326632499695
1761399274749599000,3.492598876953125,-0.49883440136909485,-0.5343905091285706,-0.7720750570297241
1761399274759679500,3.502679443359375,-0.4290878474712372,-0.4645273685455322,-0.5577059388160706
1761399274769760300,3.51276025390625,-0.3599574863910675,-0.3385239243507385,-0.2675449848175049
1761399274779840800,3.5228408203125,-0.27294084429740906,-0.23165582120418549,0.042434148490428925
1761399274789921500,3.532921630859375,-0.17739740014076233,-0.18367591500282288,0.3157247304916382
1761399274799998700,3.542998779296875,-0.10220501571893692,-0.22116385400295258,0.5185526609420776
1761399274810082800,3.553082763671875,-0.07397664338350296,-0.3099791407585144,0.6462714076042175
1761399274820164000,3.5631640625,-0.08956470340490341,-0.42059436440467834,0.6973655819892883
1761399274830202600,3.57320263671875,-0.09236255288124084,-0.629084587097168,0.6922361850738525
1761399274840325400,3.583325439453125,-0.0075775268487632275,-0.9133001565933228,0.7022285461425781
1761399274850370300,3.593370361328125,0.13754460215568542,-1.2455788850784302,0.749359130859375
1761399274860486400,3.603486328125,0.28319963812828064,-1.6670392751693726,0.8511477708816528
1761399274870563000,3.61356298828125,0.43266844749450684,-2.226194143295288,0.9946211576461792
1761399274880648000,3.62364794921875,0.5372549891471863,-2.708124876022339,1.1082507371902466
1761399274890703600,3.63370361328125,0.5796558260917664,-2.870966672897339,1.2473441362380981
1761399274900809200,3.643809326171875,0.5918131470680237,-2.7289421558380127,1.4846789836883545
1761399274910890000,3.653889892578125,0.5904974937438965,-2.375946044921875,1.8404563665390015
1761399274920970800,3.663970703125,0.6094829440116882,-1.8741638660430908,2.254488945007324
1761399274931047700,3.674047607421875,0.69077068567276,-1.3838728666305542,2.604853868484497
1761399274941107000,3.68410693359375,0.8373250365257263,-0.9999670386314392,2.812911033630371
1761399274951212500,3.694212646484375,1.0125740766525269,-0.6996638774871826,2.848533868789673
1761399274961268500,3.7042685546875,1.1893385648727417,-0.5473971962928772,2.661860227584839
1761399274971375000,3.714375,1.3573431968688965,-0.5997737050056458,2.2560877799987793
1761399274981455000,3.724455078125,1.5199851989746094,-0.7075911164283752,1.7475275993347168
1761399274991510500,3.734510498046875,1.6493860483169556,-0.6648238897323608,1.3465348482131958
1761399275001612300,3.7446123046875,1.692020058631897,-0.5580057501792908,1.1333814859390259
1761399275011697000,3.75469677734375,1.6329820156097412,-0.42046114802360535,1.079522728919983
1761399275021776600,3.764776611328125,1.5230995416641235,-0.2924592196941376,1.1417250633239746
1761399275041916400,3.78491650390625,1.4587321281433105,-0.5502283573150635,1.3255009651184082
1761399275052019700,3.795019775390625,1.4648441076278687,-0.9206944704055786,1.2350702285766602
1761399275062096400,3.805096435546875,1.5316929817199707,-1.2768715620040894,0.9618629217147827
1761399275072181000,3.815180908203125,1.6396435499191284,-1.5156718492507935,0.6245713829994202
1761399275082221800,3.825221923828125,1.6450060606002808,-1.5154221057891846,0.3870367407798767
1761399275092342500,3.835342529296875,1.61915922164917,-1.458016037940979,0.26809456944465637
1761399275102423300,3.84542333984375,1.5673489570617676,-1.4644278287887573,0.2118043601512909
1761399275112504800,3.8555048828125,1.5111253261566162,-1.4609971046447754,0.1843254119157791
1761399275122581000,3.8655810546875,1.445742130279541,-1.4103692770004272,0.16374118626117706
1761399275132641500,3.8756416015625,1.3796427249908447,-1.3187228441238403,0.13512977957725525
1761399275142747000,3.885746826171875,1.3631720542907715,-1.209006905555725,0.07387672364711761
1761399275152827000,3.895826904296875,1.3198719024658203,-1.1382777690887451,-0.025663666427135468
1761399275162908700,3.90590869140625,1.2350869178771973,-1.1320492029190063,-0.16185930371284485
1761399275172988700,3.91598876953125,1.097725510597229,-1.1765317916870117,-0.29618969559669495
1761399275183069400,3.9260693359375,1.0207844972610474,-1.213236927986145,-0.4064551889896393
1761399275193145300,3.936145263671875,0.9795493483543396,-1.2066587209701538,-0.4921894967556
1761399275203230700,3.946230712890625,0.9191123247146606,-1.1672555208206177,-0.5557241439819336
1761399275213286100,3.9562861328125,0.8487329483032227,-1.0680482387542725,-0.6126305460929871
1761399275223392300,3.966392333984375,0.7475937604904175,-0.9127505421638489,-0.6833763122558594
1761399275233473000,3.97647314453125,0.6257205009460449,-0.7477270364761353,-0.7698433995246887
1761399275243554000,3.986553955078125,0.5126238465309143,-0.5720449686050415,-0.8579758405685425
1761399275253629700,3.996629638671875,0.40552258491516113,-0.39263245463371277,-0.9415618181228638
1761399275263714000,4.006714111328125,0.2998369038105011,-0.19706565141677856,-1.002981424331665
1761399275273795300,4.01679541015625,0.18947146832942963,-0.018385911360383034,-1.0366889238357544
1761399275283872300,4.026872314453125,0.07051263004541397,0.13084973394870758,-1.0551247596740723
1761399275293957600,4.03695751953125,-0.0563734695315361,0.2470107227563858,-1.0769580602645874
1761399275304038400,4.047038330078125,-0.1786297857761383,0.3286648094654083,-1.0934287309646606
1761399275314118700,4.05711865234375,-0.2984379827976227,0.40100938081741333,-1.0999737977981567
1761399275324195600,4.067195556640625,-0.4058389961719513,0.46461063623428345,-1.1095330715179443
1761399275334280200,4.0772802734375,-0.5080606937408447,0.49195635318756104,-1.1209909915924072
1761399275344360200,4.087360107421875,-0.6185593605041504,0.4786831736564636,-1.1450059413909912
1761399275354442000,4.09744189453125,-0.7443795800209045,0.46209588646888733,-1.1782970428466797
1761399275364521700,4.107521728515625,-0.8605571985244751,0.440912127494812,-1.1865074634552002
1761399275374602500,4.1176025390625,-0.9128671288490295,0.36555320024490356,-1.114862322807312
1761399275384682800,4.127682861328125,-0.84923255443573,0.20832370221614838,-0.960847020149231
1761399275394739500,4.137739501953125,-0.6623091697692871,0.037804365158081055,-0.8179398775100708
1761399275404819200,4.147819091796875,-0.38069161772727966,-0.13797760009765625,-0.7475771307945251
1761399275414925000,4.157925048828125,-0.0568564310669899,-0.28777948021888733,-0.7035108804702759
1761399275425029000,4.168029052734375,0.24181470274925232,-0.28558117151260376,-0.588815450668335
1761399275435087000,4.178087158203125,0.4777005910873413,-0.06659896671772003,-0.39824482798576355
1761399275445142000,4.18814208984375,0.656463623046875,0.25197356939315796,-0.27607178688049316
1761399275455248000,4.198247802734375,0.7700932025909424,0.43316805362701416,-0.2893449366092682
1761399275465338400,4.20833837890625,0.8055993318557739,0.3575759828090668,-0.32167017459869385
1761399275475409400,4.218409423828125,0.7048099040985107,0.17190159857273102,-0.33222874999046326
1761399275485490700,4.22849072265625,0.4452754557132721,0.028861217200756073,-0.49903425574302673
1761399275495571700,4.23857177734375,0.09332848340272903,-0.04041902720928192,-0.5916799306869507
1761399275505652500,4.248652587890625,-0.2669121325016022,0.0020484302658587694,-0.4781336188316345
1761399275515707000,4.258706787109375,-0.4079873561859131,0.1716184914112091,-0.38110795617103577
1761399275525813200,4.268813232421875,-0.2511575520038605,0.27315735816955566,-0.33279499411582947
1761399275535870200,4.2788701171875,0.059171322733163834,0.08295310288667679,-0.11308001726865768
1761399275545949000,4.288948974609375,0.33131277561187744,-0.1636246144771576,0.1582120954990387
1761399275556054800,4.2990546875,0.40267476439476013,-0.11920864880084991,0.1654232293367386
1761399275566135600,4.309135498046875,0.14810317754745483,0.08315294981002808,-0.1448056995868683
1761399275576217600,4.319217529296875,-0.38152429461479187,0.1295507252216339,-0.5557408332824707
1761399275586297000,4.329297119140625,-0.9890920519828796,0.1009393185377121,-0.91056889295578
1761399275596378400,4.33937841796875,-1.4179134368896484,-0.12487097829580307,-1.1729345321655273
1761399275606459100,4.349459228515625,-1.4324190616607666,-0.6400595307350159,-1.4009597301483154
1761399275616539600,4.35953955078125,-1.0264967679977417,-1.2297077178955078,-1.503830909729004
1761399275626594800,4.3695947265625,-0.42345884442329407,-1.1807618141174316,-1.2730578184127808
1761399275636701200,4.379701171875,-0.014971860684454441,-0.5193520188331604,-0.8215204477310181
1761399275646774500,4.3897744140625,0.09499387443065643,-0.02538055181503296,-0.4699398875236511
1761399275656862000,4.399862060546875,-0.045448508113622665,0.2208973914384842,-0.4409621059894562
1761399275666942700,4.409942626953125,-0.2852647304534912,0.3985446095466614,-0.699813723564148
1761399275677023500,4.4200234375,-0.4297373592853546,0.5075110793113708,-1.0526766777038574
1761399275687104500,4.4301044921875,-0.41704708337783813,0.5602207183837891,-1.3148090839385986
1761399275697159700,4.44015966796875,-0.328165203332901,0.5748928189277649,-1.3822075128555298
1761399275707265800,4.450265869140625,-0.23988284170627594,0.5467476844787598,-1.2489595413208008
1761399275717346000,4.460345947265625,-0.19276894629001617,0.5095762014389038,-1.00234854221344
1761399275727426800,4.4704267578125,-0.186756893992424,0.4786831736564636,-0.7353698015213013
1761399275737508000,4.480508056640625,-0.2331213653087616,0.5056458711624146,-0.5315759778022766
1761399275747588400,4.49058837890625,-0.32013800740242004,0.5690306425094604,-0.4402792751789093
1761399275757669600,4.500669677734375,-0.43190237879753113,0.5665491819381714,-0.43961313366889954
1761399275767750000,4.51075,-0.5349234342575073,0.48198065161705017,-0.5035641193389893
1761399275777830400,4.520830322265625,-0.5705627799034119,0.3648204505443573,-0.6051695942878723
1761399275787911400,4.530911376953125,-0.5261301398277283,0.2699764370918274,-0.7023451328277588
1761399275797968600,4.54096875,-0.4510377049446106,0.1986977458000183,-0.7467444539070129
1761399275808068900,4.55106884765625,-0.4119676351547241,0.1371782124042511,-0.7174168825149536
1761399275818149400,4.5611494140625,-0.43794772028923035,0.11922530829906464,-0.6359293460845947
1761399275828230100,4.571230224609375,-0.5312595367431641,0.14555512368679047,-0.567631721496582
1761399275838315800,4.581315673828125,-0.6436900496482849,0.19933058321475983,-0.5660329461097717
1761399275848395300,4.591395263671875,-0.7120210528373718,0.21063858270645142,-0.6523001194000244
1761399275858477000,4.60147705078125,-0.7297574281692505,0.13612902164459229,-0.7786366939544678
1761399275868531500,4.611531494140625,-0.7387338876724243,0.016587289050221443,-0.8868537545204163
1761399275878637800,4.621637939453125,-0.7545384764671326,-0.0987909659743309,-0.9475238919258118
1761399275888715000,4.631715087890625,-0.7672953605651855,-0.17599846422672272,-0.9618462920188904
1761399275898799600,4.641799560546875,-0.7750227451324463,-0.19100363552570343,-0.9322023391723633
1761399275908894200,4.651894287109375,-0.7628321051597595,-0.14707063138484955,-0.861240029335022
1761399275918960600,4.661960693359375,-0.7484764456748962,-0.10338743776082993,-0.7945411205291748
1761399275929041400,4.67204150390625,-0.731173038482666,-0.08520137518644333,-0.7338709831237793
1761399275939081700,4.682081787109375,-0.7325886487960815,-0.02463112585246563,-0.6908039450645447
1761399275949203700,4.69220361328125,-0.7267264723777771,-0.006977986078709364,-0.6509678363800049
1761399275959279000,4.702279052734375,-0.6504182815551758,-0.021400267258286476,-0.5722448229789734
1761399275969363500,4.712363525390625,-0.5225995182991028,-0.053042687475681305,-0.4613298177719116
1761399275979419400,4.72241943359375,-0.3909337520599365,-0.08486829698085785,-0.34380319714546204
1761399275999606000,4.74260595703125,-0.15876168012619019,-0.10055627673864365,-0.15591385960578918
1761399276009686500,4.7526865234375,-0.07727412134408951,-0.07222798466682434,-0.0506112165749073
1761399276019750000,4.76275,-0.02617993764579296,0.08145424723625183,0.08276990801095963
1761399276029848000,4.77284814453125,-0.002448124112561345,0.29500725865364075,0.23197224736213684
1761399276039928800,4.7829287109375,0.023482006043195724,0.4411619305610657,0.3689172863960266
1761399276050036200,4.7930361328125,0.06644908338785172,0.4411286413669586,0.47205492854118347
1761399276060091000,4.8030908203125,0.13341443240642548,0.2531060576438904,0.5327250957489014
1761399276070171600,4.813171630859375,0.2399328052997589,-0.12052430957555771,0.564800500869751
1761399276080247800,4.823247802734375,0.39921075105667114,-0.5087434649467468,0.59464430809021
1761399276090333000,4.8333330078125,0.5637679696083069,-0.7210474610328674,0.6377279758453369
1761399276100413400,4.843413330078125,0.6969326138496399,-0.8384075164794922,0.7307733297348022
1761399276110493700,4.85349365234375,0.8120110630989075,-0.9723049402236938,0.8089967370033264
1761399276120575200,4.8635751953125,0.8891186714172363,-1.005795955657959,0.8545951247215271
1761399276130655500,4.873655517578125,0.9553346037864685,-0.9537191390991211,0.9317526817321777
1761399276140736800,4.88373681640625,1.0162379741668701,-0.8810082077980042,1.1394102573394775
1761399276150812400,4.8938125,1.033508062362671,-0.7845155000686646,1.5280123949050903
1761399276160897000,4.90389697265625,1.0536092519760132,-0.6472873091697693,2.0040977001190186
1761399276170952400,4.913952392578125,1.0726779699325562,-0.4180796146392822,2.4657106399536133
1761399276181058600,4.92405859375,1.0740269422531128,-0.2277088463306427,2.7891128063201904
1761399276191139000,4.93413916015625,1.0692472457885742,-0.10422013700008392,2.8537797927856445
1761399276201220600,4.944220703125,1.0886657238006592,0.05069448798894882,2.6706202030181885
1761399276211296300,4.954296142578125,1.1223899126052856,0.22502756118774414,2.321870803833008
1761399276221381600,4.964381591796875,1.1593948602676392,0.3362756371498108,1.9459089040756226
1761399276231462100,4.974462158203125,1.2286418676376343,0.3465677499771118,1.699630856513977
1761399276241543000,4.98454296875,1.3012361526489258,0.34896591305732727,1.6567304134368896
1761399276251624400,4.99462451171875,1.3186228275299072,0.3015189468860626,1.7137367725372314
1761399276261704200,5.0047041015625,1.2439134120941162,0.18810585141181946,1.7255443334579468
1761399276281861600,5.024861572265625,1.0901646614074707,-0.15896151959896088,1.3463183641433716
1761399276291922000,5.034921875,1.069313883781433,-0.3991940915584564,1.0763086080551147
1761399276302001400,5.04500146484375,1.0583889484405518,-0.6092165112495422,0.8613232970237732
1761399276312108800,5.05510888671875,1.0339577198028564,-0.8481833934783936,0.7144525051116943
1761399276322188300,5.065188232421875,1.0038474798202515,-1.0686144828796387,0.627102792263031
1761399276332269300,5.075269287109375,0.9169306755065918,-1.278686761856079,0.5331081748008728
1761399276342345700,5.085345703125,0.7718585133552551,-1.4766684770584106,0.4112681746482849
1761399276352430800,5.095430908203125,0.658178985118866,-1.5843526124954224,0.2767046391963959
1761399276362511000,5.105510986328125,0.5706626772880554,-1.5443332195281982,0.16317495703697205
1761399276372592600,5.115592529296875,0.5060288906097412,-1.4425945281982422,0.05962098017334938
1761399276382672600,5.125672607421875,0.4685909152030945,-1.2594515085220337,-0.03523966297507286
1761399276392753200,5.135753173828125,0.45037153363227844,-1.0007331371307373,-0.11446228623390198
1761399276402830300,5.145830322265625,0.4570164680480957,-0.767112135887146,-0.20682483911514282
1761399276412914700,5.155914794921875,0.4704728126525879,-0.5883158445358276,-0.3244846761226654
1761399276422996000,5.165995849609375,0.4224429428577423,-0.4642275869846344,-0.45954784750938416
1761399276433076200,5.176076171875,0.2751224935054779,-0.463344931602478,-0.5850516557693481
1761399276443132000,5.1861318359375,0.19127009809017181,-0.49002450704574585,-0.703794002532959
1761399276453216000,5.196216064453125,0.15028484165668488,-0.44927239418029785,-0.7838493585586548
1761399276463318300,5.206318359375,0.09296209365129471,-0.36025726795196533,-0.827149510383606
1761399276473395000,5.21639501953125,-0.009742534719407558,-0.2183993011713028,-0.8609235882759094
1761399276483479800,5.226479736328125,-0.15706297755241394,-0.01620424911379814,-0.8832731246948242
1761399276493560800,5.236560791015625,-0.2967892289161682,0.22497759759426117,-0.8903177380561829
1761399276503641600,5.2466416015625,-0.42892131209373474,0.421943336725235,-0.8654201626777649
1761399276513721900,5.256721923828125,-0.5682645440101624,0.4957534372806549,-0.7731408476829529
1761399276523802600,5.266802734375,-0.711071789264679,0.4383973777294159,-0.5868003368377686
1761399276533900000,5.276900146484375,-0.8081140518188477,0.23816749453544617,-0.32153692841529846
1761399276543964400,5.28696435546875,-0.7841324806213379,-0.036505360156297684,-0.10531929135322571
1761399276554044700,5.297044677734375,-0.5929123163223267,-0.2951904535293579,-0.07845654338598251
1761399276564119300,5.307119384765625,-0.2419312745332718,-0.5779570937156677,-0.11384609341621399
1761399276574206200,5.317206298828125,0.1495354175567627,-0.7712922692298889,-0.048446208238601685
1761399276584286700,5.32728662109375,0.4259069561958313,-0.7705262303352356,0.07049597799777985
1761399276594368000,5.337367919921875,0.5958267450332642,-0.6915867328643799,0.19122013449668884
1761399276604426800,5.3474267578125,0.7464613318443298,-0.4840790629386902,0.23442035913467407
1761399276614528800,5.35752880859375,0.8970625996589661,-0.1651567667722702,0.07102890312671661
1761399276624609800,5.36760986328125,0.9522369503974915,-0.0474136658012867,-0.218532532453537
1761399276634690300,5.377690185546875,0.7976720929145813,-0.05156048759818077,-0.37324732542037964
1761399276644771800,5.387771728515625,0.37304747104644775,-0.13692840933799744,-0.3885522484779358
1761399276654828300,5.397828369140625,-0.13809417188167572,-0.24581164121627808,-0.3721148371696472
1761399276664932600,5.4079326171875,-0.5903975963592529,-0.2399328052997589,-0.22148028016090393
1761399276675012900,5.418012939453125,-0.8504816293716431,-0.14513878524303436,0.045814890414476395
1761399276685094400,5.428094482421875,-0.6483198404312134,-0.18960469961166382,0.19378483295440674
1761399276695175200,5.438175048828125,-0.015271631069481373,-0.19350172579288483,0.4663759469985962
1761399276705244400,5.448244384765625,0.578540027141571,-0.10888323187828064,0.6865572333335876
1761399276715336400,5.45833642578125,0.6740834712982178,0.08486829698085785,0.5015656352043152
1761399276725416400,5.46841650390625,0.306348592042923,0.20579230785369873,0.02108384296298027
1761399276735498000,5.478498046875,-0.22717592120170593,0.10208843648433685,-0.5323253870010376
1761399276745578000,5.488577880859375,-0.7146190404891968,-0.15638016164302826,-1.0264633893966675
1761399276755658800,5.49865869140625,-1.0646175146102905,-0.5943112373352051,-1.3737972974777222
1761399276765739800,5.50873974609375,-1.2225964069366455,-1.1036375761032104,-1.5277959108352661
1761399276775797000,5.518796875,-1.086617350578308,-1.4854117631912231,-1.4814480543136597
1761399276785901300,5.5289013671875,-0.6230891942977905,-1.5018991231918335,-1.25174081325531
1761399276795981800,5.53898193359375,-0.1327316164970398,-1.130300521850586,-0.9361492991447449
1761399276806062600,5.5490625,0.12287250906229019,-0.5574061870574951,-0.630600094795227
1761399276816142600,5.559142578125,0.1770976185798645,-0.20109589397907257,-0.49517056345939636
1761399276826223600,5.5692236328125,0.036472052335739136,0.09109685570001602,-0.5884324312210083
1761399276836294100,5.579294189453125,-0.16317495703697205,0.34680092334747314,-0.8839892745018005
1761399276846385000,5.589385009765625,-0.32070425152778625,0.54511559009552,-1.2107555866241455
1761399276856441300,5.59944140625,-0.3983447551727295,0.7297574281692505,-1.4113351106643677
1761399276866546400,5.60954638671875,-0.4059222638607025,0.8474839329719543,-1.420478105545044
1761399276876628000,5.6196279296875,-0.3780269920825958,0.9045735001564026,-1.2700767517089844
1761399276886722300,5.629722412109375,-0.35346248745918274,0.9203280806541443,-1.0394535064697266
1761399276896789500,5.63978955078125,-0.35895827412605286,0.8896349668502808,-0.8144925236701965
1761399276906846200,5.64984619140625,-0.3944644033908844,0.853695809841156,-0.6628587245941162
1761399276916950000,5.659949951171875,-0.43531641364097595,0.8677683472633362,-0.6039538383483887
1761399276927031000,5.670031005859375,-0.46800804138183594,0.9177467226982117,-0.625520646572113
1761399276937112000,5.680112060546875,-0.4833795726299286,0.9314029216766357,-0.6827101707458496
1761399276947167000,5.6901669921875,-0.4821971654891968,0.8592415452003479,-0.7292911410331726
1761399276957273600,5.700273681640625,-0.46509361267089844,0.7326219081878662,-0.74256432056427
1761399276967353600,5.710353515625,-0.4410287141799927,0.598624587059021,-0.7142027020454407
1761399276977434400,5.720434326171875,-0.4239085018634796,0.4626454710960388,-0.6532660722732544
1761399276987517400,5.730517333984375,-0.43886369466781616,0.36673563718795776,-0.5773742198944092
1761399276997595600,5.740595703125,-0.48404574394226074,0.33494332432746887,-0.512607216835022
1761399277007677000,5.750677001953125,-0.5340907573699951,0.3459348976612091,-0.48149770498275757
1761399277017731800,5.76073193359375,-0.5599875450134277,0.33431047201156616,-0.4951039254665375
1761399277027838700,5.770838623046875,-0.5593547224998474,0.2676948606967926,-0.5428340435028076
1761399277037918500,5.78091845703125,-0.5543252229690552,0.15937787294387817,-0.6054360270500183
1761399277047997400,5.79099755859375,-0.5564236044883728,0.03460681438446045,-0.6652901768684387
1761399277058076000,5.801075927734375,-0.5681146383285522,-0.05457484722137451,-0.7058258056640625
1761399277068159200,5.8111591796875,-0.5833529829978943,-0.08871535211801529,-0.7104222774505615
1761399277078257200,5.821257080078125,-0.5896148681640625,-0.0774739682674408,-0.6824437379837036
1761399277088322000,5.831322021484375,-0.5937449932098389,-0.038637060672044754,-0.6425409317016602
1761399277098403600,5.841403564453125,-0.5846686363220215,0.004379977006465197,-0.5956268906593323
1761399277108479200,5.851479248046875,-0.5897480845451355,0.01916864514350891,-0.5704628825187683
1761399277118564900,5.86156494140625,-0.6039538383483887,-0.047946590930223465,-0.551027774810791
1761399277128644600,5.87164453125,-0.5907806158065796,-0.1903541386127472,-0.5354563593864441
1761399277138726100,5.88172607421875,-0.558838427066803,-0.3482997715473175,-0.5077109336853027
1761399277148806000,5.891805908203125,-0.4966694116592407,-0.3503814935684204,-0.43531641364097595
1761399277158887000,5.901886962890625,-0.46550995111465454,-0.24897587299346924,-0.35104766488075256
1761399277168964400,5.91196435546875,-0.4381808936595917,-0.1409919559955597,-0.26474711298942566
1761399277179048200,5.922048095703125,-0.38836905360221863,-0.06889720261096954,-0.18947146832942963
1761399277189129700,5.932129638671875,-0.33119621872901917,-0.025980090722441673,-0.11396267265081406
1761399277199210500,5.94221044921875,-0.27294084429740906,0.027528904378414154,-0.018885528668761253
1761399277209266400,5.952266357421875,-0.211038276553154,0.09864107519388199,0.08381910622119904
1761399277229451800,5.97245166015625,-0.06723181158304214,0.25795233249664307,0.2753223478794098
1761399277239529500,5.982529541015625,0.02576358988881111,0.2683277130126953,0.37629497051239014
1761399277249613300,5.99261328125,0.1222563162446022,0.12768548727035522,0.4452587962150574
1761399277259694000,6.002694091796875,0.23656871914863586,-0.15629689395427704,0.4490392506122589
1761399277269775400,6.012775390625,0.3503648638725281,-0.46592628955841064,0.412167489528656
1761399277279855600,6.022855712890625,0.44705742597579956,-0.7080407738685608,0.38726991415023804
1761399277289936100,6.03293603515625,0.513356626033783,-0.8921663165092468,0.36180609464645386
1761399277300003800,6.04300390625,0.6016722917556763,-1.0513609647750854,0.34048908948898315
1761399277310097700,6.05309765625,0.7819008231163025,-1.1659232378005981,0.39406469464302063
1761399277320179000,6.063178955078125,0.9870436191558838,-1.2086738348007202,0.5539588332176208
1761399277330233900,6.07323388671875,1.1381278038024902,-1.251391053199768,0.8280155062675476
1761399277340340200,6.08334033203125,1.197615623474121,-1.2201650142669678,1.1991478204727173
1761399277350420500,6.09342041015625,1.1839261054992676,-1.0513277053833008,1.6225732564926147
1761399277360497200,6.1034970703125,1.1673221588134766,-0.747643768787384,2.062819242477417
1761399277370606800,6.11360693359375,1.1644244194030762,-0.3755122423171997,2.4663100242614746
1761399277390743300,6.133743408203125,1.271142601966858,0.3670520484447479,2.773691177368164
1761399277400824000,6.143823974609375,1.3325622081756592,0.6282685399055481,2.505080461502075
1761399277410883300,6.15388330078125,1.3423713445663452,0.7062920928001404,2.0491297245025635
1761399277420985000,6.163985107421875,1.3003202676773071,0.7708926200866699,1.5956438779830933
1761399277431062300,6.174062255859375,1.2908941507339478,0.8444695472717285,1.3050665855407715
1761399277441147000,6.18414697265625,1.3377082347869873,0.9276391267776489,1.2335214614868164
1761399277451227400,6.194227294921875,1.3380579948425293,0.8935486078262329,1.2786535024642944
1761399277461283000,6.204282958984375,1.260633945465088,0.7482432723045349,1.29818856716156
1761399277471389000,6.214388916015625,1.1462550163269043,0.5275623798370361,1.1945512294769287
1761399277481448200,6.2244482421875,1.1396100521087646,0.34638455510139465,0.9593815207481384
1761399277491546400,6.23454638671875,1.2300074100494385,0.19761523604393005,0.6851749420166016
1761399277501632000,6.244632080078125,1.2589852809906006,0.027112556621432304,0.4414450526237488
1761399277511711700,6.254711669921875,1.2083073854446411,-0.27099233865737915,0.25425517559051514
1761399277521793000,6.26479296875,1.0717453956604004,-0.6835761666297913,0.0837191790342331
1761399277531873000,6.274873046875,0.9040072560310364,-0.9479236006736755,-0.025447167456150055
1761399277541929000,6.284928955078125,0.7537057995796204,-0.9759188294410706,-0.06326818466186523
1761399277552035600,6.29503564453125,0.609399676322937,-0.8389238119125366,-0.037388015538454056
1761399277562111200,6.305111328125,0.481048047542572,-0.6528830528259277,0.03981948643922806
1761399277572196600,6.315196533203125,0.4393633306026459,-0.5167706608772278,0.1417580395936966
1761399277582276900,6.32527685546875,0.39949387311935425,-0.4375147223472595,0.23202219605445862
1761399277592334000,6.335333984375,0.3087467551231384,-0.45253655314445496,0.25856852531433105
1761399277602438400,6.3454384765625,0.29758861660957336,-0.48502832651138306,0.18449196219444275
1761399277612518700,6.3555185546875,0.34949883818626404,-0.448839396238327,0.060886677354574203
1761399277622571500,6.365571533203125,0.3752957582473755,-0.31790637969970703,-0.07076244056224823
1761399277632680400,6.375680419921875,0.35526108741760254,-0.054375000298023224,-0.19555014371871948
1761399277642761000,6.385760986328125,0.2748394012451172,0.21748334169387817,-0.279485821723938
1761399277652842000,6.395842041015625,0.12139031291007996,0.451437383890152,-0.2846318781375885
1761399277662922500,6.405922607421875,-0.07735738903284073,0.6104155778884888,-0.2538055181503296
1761399277672977700,6.415977783203125,-0.2985045909881592,0.7193820476531982,-0.24158154428005219
1761399277683079700,6.42607958984375,-0.5062620639801025,0.7855979800224304,-0.27710431814193726
1761399277693164800,6.436164794921875,-0.6789963245391846,0.7712423205375671,-0.3507978618144989
1761399277703246000,6.44624609375,-0.820970892906189,0.731306254863739,-0.45115429162979126
1761399277713326000,6.456326171875,-0.9454588294029236,0.7261768579483032,-0.5729109644889832
1761399277723389000,6.466388916015625,-1.0489295721054077,0.7326719164848328,-0.7058923840522766
1761399277733487900,6.47648779296875,-1.103204607963562,0.7440798282623291,-0.818989098072052
1761399277743568000,6.48656787109375,-1.086883783340454,0.754705011844635,-0.886154294013977
1761399277753645600,6.4966455078125,-0.9799157381057739,0.7168506979942322,-0.85651034116745
1761399277763729400,6.5067294921875,-0.7697601318359375,0.5845687389373779,-0.6974655389785767
1761399277773810200,6.51681005859375,-0.48531144857406616,0.39636293053627014,-0.455151230096817
1761399277783891700,6.5268916015625,-0.18069486320018768,0.26264873147010803,-0.23225535452365875
1761399277793971700,6.5369716796875,0.07719084620475769,0.3150419294834137,-0.031092841178178787
1761399277804053000,6.547052978515625,0.20421017706394196,0.5647339224815369,0.15534763038158417
1761399277814129200,6.557129150390625,0.2664624750614166,0.7853814959526062,0.25723621249198914
1761399277824214500,6.567214599609375,0.31201091408729553,0.7612333297729492,0.2995038330554962
1761399277834294800,6.577294677734375,0.320237934589386,0.5606370568275452,0.3850216269493103
1761399277844376000,6.5873759765625,0.2699930965900421,0.34015601873397827,0.5086102485656738
1761399277854430700,6.5974306640625,0.14059226214885712,0.23392075300216675,0.5721781849861145
1761399277864536800,6.607536865234375,-0.06521669030189514,0.2243114411830902,0.5468143224716187
1761399277874617300,6.617617431640625,-0.3090798258781433,0.24279728531837463,0.4034075438976288
1761399277884674800,6.6276748046875,-0.540519118309021,0.31890562176704407,0.033924005925655365
1761399277894754000,6.637754150390625,-0.7385340929031372,0.4872766137123108,-0.47591865062713623
1761399277904834300,6.647834228515625,-0.8202880620956421,0.8806251883506775,-0.8283818960189819
1761399277914914800,6.657914794921875,-0.6630252599716187,1.4679251909255981,-1.0111085176467896
1761399277924995300,6.667995361328125,-0.18918836116790771,2.0667829513549805,-1.0946778059005737
1761399277935062500,6.6780625,0.4158979654312134,2.3686683177948,-1.0218669176101685
1761399277945145600,6.6881455078125,0.7508246302604675,2.190155029296875,-0.7098227143287659
1761399277955226400,6.698226318359375,0.6458384394645691,1.6823441982269287,-0.15916137397289276
1761399277965327600,6.70832763671875,0.27660471200942993,1.0891320705413818,0.3918164074420929
1761399277975408600,6.71840869140625,-0.17669792473316193,0.5997903943061829,0.7122042179107666
1761399277985505300,6.72850537109375,-0.6394932866096497,0.3303801715373993,0.6795792579650879
1761399277995586600,6.738586669921875,-0.9788332581520081,0.2480432540178299,0.38906851410865784
1761399278005667600,6.74866748046875,-1.0523602962493896,0.4018087685108185,0.02842821553349495
1761399278015747600,6.75874755859375,-0.8563271164894104,0.8096295595169067,-0.3133598864078522
1761399278025827800,6.768827880859375,-0.4744364321231842,1.4179800748825073,-0.6194753050804138
1761399278035866000,6.7788662109375,-0.04748028144240379,1.92973792552948,-0.8111950755119324
1761399278045982500,6.788982421875,0.17469945549964905,2.098109006881714,-0.8302137851715088
1761399278056069600,6.799069580078125,0.1620258390903473,2.2013797760009766,-0.6912369728088379
1761399278066150700,6.809150634765625,0.09577661007642746,2.3514814376831055,-0.529960572719574
1761399278076231200,6.819231201171875,0.018136102706193924,2.485978364944458,-0.41894564032554626
1761399278086312200,6.829312255859375,-0.08798258006572723,2.5112922191619873,-0.3559938669204712
1761399278096392700,6.839392822265625,-0.2818007171154022,2.5090272426605225,-0.2606002986431122
1761399278106474200,6.84947412109375,-0.43586599826812744,2.4625630378723145,-0.09332848340272903
1761399278116530000,6.859530029296875,-0.49542036652565,2.4037580490112305,0.11166442930698395
1761399278126635000,6.869635009765625,-0.47968241572380066,2.3543126583099365,0.2902775704860687
1761399278136716300,6.87971630859375,-0.4032243490219116,2.235503673553467,0.387020081281662
1761399278146760400,6.889760498046875,-0.31327658891677856,2.077824354171753,0.39311543107032776
1761399278156877600,6.899877685546875,-0.24008269608020782,1.9311867952346802,0.3171069920063019
1761399278166957800,6.909957763671875,-0.17198488116264343,1.7672457695007324,0.19516710937023163
1761399278177013500,6.920013427734375,-0.11727679520845413,1.666306495666504,0.09561006724834442
1761399278187106000,6.93010595703125,-0.08904843032360077,1.627819299697876,0.037887632846832275
1761399278197200100,6.9402001953125,-0.09174636006355286,1.642491340637207,0.005096094682812691
1761399278207281400,6.950281494140625,-0.09161312878131866,1.7588688135147095,0.0383206345140934
1761399278217361200,6.960361083984375,-0.11721017956733704,1.8381081819534302,0.0843520313501358
1761399278227442700,6.970442626953125,-0.1643240749835968,1.7900116443634033,0.12247281521558762
1761399278237523700,6.980523681640625,-0.2159012258052826,1.666922688484192,0.1540486216545105
1761399278247604500,6.9906044921875,-0.2674950063228607,1.5596715211868286,0.1918196827173233
1761399278257685800,7.000685791015625,-0.32057100534439087,1.4536694288253784,0.23407062888145447
1761399278267764700,7.0107646484375,-0.37124884128570557,1.3123277425765991,0.24321362376213074
1761399278277846500,7.020846435546875,-0.42227640748023987,1.1693872213363647,0.2056257575750351
1761399278287926800,7.0309267578125,-0.4546349346637726,1.0334913730621338,0.12665294110774994
1761399278298006300,7.04100634765625,-0.49868452548980713,0.8774276375770569,0.01866902783513069
1761399278308083700,7.051083740234375,-0.5526098608970642,0.7143526077270508,-0.09116347134113312
1761399278318167000,7.0611669921875,-0.6049864292144775,0.6051862239837646,-0.17255111038684845
1761399278328224300,7.071224365234375,-0.6151619553565979,0.5577892065048218,-0.2091064304113388
1761399278338331000,7.081330810546875,-0.6079841256141663,0.5789063572883606,-0.22094735503196716
1761399278348411100,7.0914111328125,-0.6066184639930725,0.6412752866744995,-0.23705168068408966
1761399278358493400,7.101493408203125,-0.6321489214897156,0.6218568086624146,-0.28160086274147034
1761399278368573000,7.111572998046875,-0.647270679473877,0.6392768025398254,-0.30131909251213074
1761399278378653700,7.12165380859375,-0.658795177936554,0.6579791307449341,-0.2937415838241577
1761399278388707600,7.13170751953125,-0.6833429932594299,0.7050930261611938,-0.26431411504745483
1761399278398814700,7.141814697265625,-0.6445060968399048,0.6760985851287842,-0.2188156545162201
1761399278408895500,7.1518955078125,-0.5588550567626953,0.6623091697692871,-0.1553642749786377
1761399278418976300,7.161976318359375,-0.49675267934799194,0.6539322137832642,-0.1021217480301857
1761399278429057500,7.1720576171875,-0.43268510699272156,0.6388604640960693,-0.0605369433760643
1761399278439137000,7.182136962890625,-0.36020731925964355,0.7274925112724304,-0.003414050443097949
1761399278449214700,7.192214599609375,-0.29425784945487976,0.7898447513580322,0.07029613107442856
1761399278459299000,7.202299072265625,-0.22436140477657318,0.7169672846794128,0.1516837626695633
1761399278469380000,7.212380126953125,-0.1451720893383026,0.626003623008728,0.2558705806732178
1761399278479460600,7.222460693359375,-0.05375880375504494,0.6120643019676208,0.3871533274650574
1761399278489540600,7.23254052734375,0.08060489594936371,0.5553411245346069,0.514106035232544
1761399278499622000,7.242621826171875,0.27618834376335144,0.26454728841781616,0.6240384578704834
1761399278509682400,7.252682373046875,0.5485129952430725,-0.12002468854188919,0.7438632845878601
1761399278519779000,7.262779052734375,0.8581091165542603,-0.5036640167236328,0.8690507411956787
1761399278529864000,7.272864013671875,1.147803783416748,-0.7735239267349243,0.9570832848548889
1761399278539962600,7.282962646484375,1.3548617362976074,-0.7883625626564026,1.0437668561935425
1761399278550025700,7.293025634765625,1.4490729570388794,-0.4384140372276306,1.2160015106201172
1761399278560106500,7.3031064453125,1.3512479066848755,-0.05031144618988037,1.4878098964691162
1761399278570186800,7.313186767578125,1.108683705329895,0.05785566568374634,1.9065223932266235
1761399278580263200,7.32326318359375,0.9053062796592712,0.180495023727417,2.4749701023101807
1761399278590347800,7.33334765625,0.7475937604904175,0.42802199721336365,3.064734935760498
1761399278600429000,7.343428955078125,0.627718985080719,0.7497088313102722,3.4812822341918945
1761399278610509600,7.353509521484375,0.6651236414909363,1.0142061710357666,3.573411703109741
1761399278620589600,7.363589599609375,0.6724346876144409,1.2597845792770386,3.308847665786743
1761399278630671400,7.37367138671875,0.7212972640991211,1.3965964317321777,2.790461778640747
1761399278640747500,7.38374755859375,0.8349601626396179,1.29933762550354,2.1872406005859375
1761399278650833000,7.3938330078125,0.9899747371673584,1.015338659286499,1.7647476196289062
1761399278660912600,7.40391259765625,1.1415419578552246,0.6829932928085327,1.6773812770843506
1761399278670993400,7.413993408203125,1.2425644397735596,0.4579157531261444,1.8267334699630737
1761399278681074200,7.42407421875,1.2168841361999512,0.3588416874408722,2.032275915145874
1761399278691155000,7.434155029296875,1.1400264501571655,0.13296477496623993,2.133115291595459
1761399278701235500,7.4442353515625,0.9875932335853577,-0.05465811491012573,2.0606210231781006
1761399278711312400,7.4543125,0.796822726726532,-0.21510183811187744,1.8470180034637451
1761399278721396700,7.464396728515625,0.6077176332473755,-0.39061734080314636,1.5384377241134644
1761399278731477500,7.4744775390625,0.47830015420913696,-0.4915233552455902,1.2345706224441528
1761399278741558500,7.48455859375,0.39839470386505127,-0.4504714608192444,1.0214506387710571
1761399278751639800,7.494639892578125,0.3113114535808563,-0.38545462489128113,0.9196119904518127
1761399278761719800,7.5047197265625,0.2009127140045166,-0.3261500597000122,0.9029747247695923
1761399278771776000,7.51477587890625,0.1087833046913147,-0.21440237760543823,0.9061389565467834
1761399278781881600,7.524881591796875,0.06816443055868149,-0.06510011106729507,0.882923424243927
1761399278791962000,7.534962158203125,0.10178866982460022,0.06358461081981659,0.812810480594635
1761399278802042400,7.54504248046875,0.19833135604858398,0.15215007960796356,0.7076576948165894
1761399278812081200,7.5550810546875,0.25975096225738525,0.19691577553749084,0.5975087881088257
1761399278822204700,7.56520458984375,0.21376952528953552,0.1813277155160904,0.4777838885784149
1761399278832284700,7.57528466796875,0.11767648905515671,0.11999138444662094,0.3358759582042694
1761399278842361600,7.585361572265625,0.027062594890594482,0.08681680262088776,0.17441634833812714
1761399278852446200,7.5954462890625,-0.043599922209978104,0.10924961417913437,0.020967265591025352
1761399278862527000,7.60552685546875,-0.10485298186540604,0.15754593908786774,-0.10348736494779587
1761399278872607500,7.615607421875,-0.17166845500469208,0.2100057452917099,-0.1793125867843628
1761399278882688000,7.62568798828125,-0.2383340299129486,0.2788196802139282,-0.2012624442577362
1761399278892769000,7.63576904296875,-0.3251674771308899,0.4009760618209839,-0.19776512682437897
1761399278902845700,7.645845703125,-0.4388970136642456,0.5307599306106567,-0.2044599950313568
1761399278912930600,7.6559306640625,-0.5492624640464783,0.6702364087104797,-0.25313934683799744
1761399278923011300,7.66601123046875,-0.6286682486534119,0.8095462918281555,-0.3296807110309601
1761399278933078300,7.676078369140625,-0.6822271943092346,0.916747510433197,-0.398411363363266
1761399278943172900,7.6861728515625,-0.7279921174049377,0.9568667411804199,-0.46336159110069275
1761399278953228300,7.696228271484375,-0.781467854976654,0.9438933730125427,-0.5621525645256042
1761399278963315000,7.70631494140625,-0.7987712621688843,0.8918831944465637,-0.7038106918334961
1761399278973414700,7.71641455078125,-0.745778501033783,0.7897948026657104,-0.8401228785514832
1761399278983495400,7.726495361328125,-0.6222898364067078,0.6354131102561951,-0.9027582406997681
1761399278993576200,7.736576171875,-0.4073711633682251,0.4606803059577942,-0.8583922386169434
1761399279003646000,7.74664599609375,-0.0997568890452385,0.2962230145931244,-0.689055323600769
1761399279013738000,7.756738037109375,0.21268701553344727,0.1826433688402176,-0.4261900782585144
1761399279023818800,7.76681884765625,0.4401460587978363,0.146004781126976,-0.12342208623886108
1761399279033879000,7.776879150390625,0.532708466053009,0.257053017616272,0.10951607674360275
1761399279043979500,7.7869794921875,0.5614031553268433,0.34561848640441895,0.14124177396297455
1761399279054060300,7.797060302734375,0.5850350260734558,0.28979459404945374,0.07022951543331146
1761399279064167700,7.807167724609375,0.5822038650512695,-0.015171707607805729,0.1318323165178299
1761399279074221800,7.817221923828125,0.42162689566612244,-0.26551321148872375,0.1925191432237625
1761399279084302600,7.827302490234375,0.09607637673616409,-0.2742065489292145,0.002847817726433277
1761399279094383600,7.837383544921875,-0.3127436637878418,-0.22732579708099365,-0.17534896731376648
1761399279104464100,7.847464111328125,-0.7839992046356201,0.24962538480758667,-0.21891558170318604
1761399279114544600,7.857544677734375,-0.9057892560958862,0.6351799368858337,-0.2177165001630783
1761399279124625200,7.867625244140625,-0.5969758629798889,0.9012260437011719,-0.2004963606595993
1761399279134706700,7.877706787109375,-0.055923812091350555,1.2428642511367798,-0.0969090685248375
1761399279144786700,7.88778662109375,0.4440097510814667,1.4150989055633545,0.09279555827379227
1761399279154844000,7.897843994140625,0.744546115398407,0.9481068253517151,0.39358171820640564
1761399279164948700,7.90794873046875,0.8382243514060974,0.5289613008499146,0.6815943717956543
1761399279175029500,7.918029541015625,0.685957670211792,0.4862273931503296,0.7095896005630493
1761399279185110300,7.9281103515625,0.21113820374011993,0.5381209850311279,0.3970790505409241
1761399279195214300,7.93821435546875,-0.4906739890575409,0.6192588210105896,-0.06904708594083786
1761399279205271000,7.94827099609375,-1.0861676931381226,0.5460315942764282,-0.46517688035964966
1761399279215326500,7.958326416015625,-1.331113338470459,0.40477314591407776,-0.7144691944122314
1761399279225432600,7.9684326171875,-1.1527832746505737,0.4264732003211975,-0.8460350036621094
1761399279235513600,7.978513671875,-0.6126305460929871,0.8029513955116272,-0.8156582713127136
1761399279245593900,7.98859375,-0.020967265591025352,1.2423146963119507,-0.5848018527030945
1761399279255674600,7.998674560546875,0.25189030170440674,1.5074948072433472,-0.25663667917251587
1761399279265755400,8.00875537109375,0.1699530929327011,1.737934947013855,-0.05815543606877327
1761399279275826200,8.018826171875,-0.04349999874830246,1.914716124534607,-0.09089701622724533
1761399279285917000,8.0289169921875,-0.23580263555049896,1.9731879234313965,-0.29507389664649963
1761399279295997400,8.03899755859375,-0.35484474897384644,1.8824241161346436,-0.5233656167984009
1761399279306079000,8.049078857421875,-0.39914414286613464,1.8034347295761108,-0.6507013440132141
1761399279316140500,8.059140625,-0.4120842218399048,1.8278826475143433,-0.6200914978981018
1761399279326239500,8.069239501953126,-0.42379191517829895,1.8481504917144775,-0.46522682905197144
1761399279336320800,8.07932080078125,-0.44835641980171204,1.8200719356536865,-0.2473604530096054
1761399279346401000,8.089401123046875,-0.4615130126476288,1.7426645755767822,-0.0325583852827549
1761399279356482300,8.099482421875,-0.47530245780944824,1.6334482431411743,0.12911772727966309
1761399279366562800,8.109562744140625,-0.4900411367416382,1.487610101699829,0.1894548237323761
1761399279376643000,8.11964306640625,-0.497402161359787,1.3460018634796143,0.13344773650169373
1761399279386723800,8.129723876953125,-0.489208459854126,1.226826548576355,-0.016603942960500717
1761399279396804600,8.1398046875,-0.46351146697998047,1.123589038848877,-0.20774081349372864
1761399279406886000,8.149885986328124,-0.44039586186408997,1.0350735187530518,-0.37935930490493774
1761399279416966400,8.15996630859375,-0.4472073018550873,0.940545916557312,-0.49064069986343384
1761399279427047200,8.170047119140625,-0.4813977777957916,0.8932821750640869,-0.5157381296157837
1761399279437115000,8.180114990234374,-0.5146889090538025,0.921210765838623,-0.4869435131549835
1761399279447208200,8.190208251953125,-0.5309264659881592,0.9996006488800049,-0.45127084851264954
1761399279457277200,8.200277099609375,-0.5463313460350037,1.0597546100616455,-0.42405837774276733
1761399279467369700,8.21036962890625,-0.583119809627533,1.1008564233779907,-0.41842934489250183
1761399279477425200,8.220425048828124,-0.6225229501724243,1.1089003086090088,-0.42442476749420166
1761399279487530800,8.23053076171875,-0.6304002404212952,1.0985914468765259,-0.41733020544052124
1761399279497611800,8.24061181640625,-0.6734839081764221,1.1008896827697754,-0.3686341941356659
1761399279507692500,8.250692626953125,-0.7577360272407532,1.0347903966903687,-0.3211372494697571
1761399279517773300,8.260773193359375,-0.8413885831832886,0.946724534034729,-0.299553781747818
1761399279527853600,8.270853515625,-0.8579925298690796,0.9093531370162964,-0.30751433968544006
1761399279537935000,8.28093505859375,-0.8480668067932129,0.9008596539497375,-0.331146240234375
1761399279548012500,8.291012451171875,-0.8282319903373718,0.907820999622345,-0.33602583408355713
1761399279558091800,8.301091796875,-0.7346203923225403,0.8805752396583557,-0.3219033181667328
1761399279568173800,8.311173828125,-0.6020386815071106,0.8642377257347107,-0.26329824328422546
1761399279578232800,8.32123291015625,-0.4417947828769684,0.7812846302986145,-0.1388436108827591
1761399279588338200,8.331338134765625,-0.31209418177604675,0.9211441278457642,0.022366194054484367
1761399279598393600,8.3413935546875,-0.3104454278945923,1.1268365383148193,0.14762021601200104
1761399279608499500,8.35149951171875,-0.2417314350605011,1.2029114961624146,0.2125038206577301
1761399279618556200,8.36155615234375,-0.09605972468852997,1.1557143926620483,0.20852354168891907
1761399279628661200,8.3716611328125,0.026163283735513687,0.9956536889076233,0.20460987091064453
1761399279638741800,8.38174169921875,0.0717117115855217,0.8225030303001404,0.2690271735191345
1761399279648822300,8.391822265625,0.10949942469596863,0.7287415862083435,0.3974953889846802
1761399279658903000,8.401903076171875,0.15789566934108734,0.7712756395339966,0.5259969234466553
1761399279668979700,8.411979736328124,0.19047071039676666,0.8817743062973022,0.6139128804206848
1761399279679064600,8.422064697265625,0.23460355401039124,0.9241917729377747,0.6823437809944153
1761399279699200500,8.442200439453124,0.49843472242355347,0.6575794219970703,0.8446194529533386
1761399279709307000,8.452306884765624,0.6919697523117065,0.4360991418361664,0.9351000785827637
1761399279729464000,8.472464111328126,1.0869004726409912,-0.33422720432281494,1.1082674264907837
1761399279739549400,8.482549560546875,1.231689453125,-0.6551146507263184,1.1702033281326294
1761399279749604000,8.49260400390625,1.3050999641418457,-0.664490818977356,1.315741777420044
1761399279759711000,8.5027109375,1.223129391670227,-0.48855894804000854,1.5771580934524536
1761399279769791000,8.512791015625,1.1140962839126587,-0.3985612392425537,1.9872105121612549
1761399279779872500,8.52287255859375,1.0483633279800415,-0.23105627298355103,2.473987579345703
1761399279789953000,8.532953125,1.0122909545898438,0.06453388184309006,2.9172146320343018
1761399279810089000,8.5530888671875,0.8590583801269531,0.8636382222175598,3.4125516414642334
1761399279820208000,8.5632080078125,0.7581689953804016,1.446008563041687,3.362706422805786
1761399279830275800,8.57327587890625,0.7320723533630371,1.7453958988189697,3.0508620738983154
1761399279840331300,8.583331298828124,0.7425310015678406,1.588166356086731,2.571462869644165
1761399279850436400,8.593436279296874,0.7584521174430847,1.2736573219299316,2.1915040016174316
1761399279860513300,8.60351318359375,0.8001368641853333,1.0682979822158813,2.0813050270080566
1761399279870598100,8.61359814453125,0.8241850733757019,1.062302589416504,2.1529335975646973
1761399279880679000,8.623678955078125,0.7984215021133423,0.9859944581985474,2.1894888877868652
1761399279890751200,8.633751220703125,0.7009295225143433,0.6971657872200012,2.0906479358673096
1761399279900840200,8.643840087890625,0.5468143224716187,0.30356737971305847,1.849116325378418
1761399279910920700,8.653920654296876,0.4856112003326416,0.03735470771789551,1.5372387170791626
1761399279920997600,8.66399755859375,0.5114414095878601,-0.08871535211801529,1.2918100357055664
1761399279931082000,8.67408203125,0.5046299695968628,-0.16792131960391998,1.1434237957000732
1761399279941163000,8.6841630859375,0.43391749262809753,-0.25780245661735535,1.0307601690292358
1761399279951246600,8.69424658203125,0.30195194482803345,-0.31340983510017395,0.9278889894485474
1761399279961299000,8.704298828125,0.13036677241325378,-0.3166240453720093,0.8349268436431885
1761399279971405000,8.714405029296875,-0.02488093450665474,-0.3753123879432678,0.6983814835548401
1761399279981460700,8.724460693359376,-0.1119808554649353,-0.3519136607646942,0.5566234588623047
1761399279991562800,8.734562744140625,-0.1365620195865631,-0.13984283804893494,0.4799322187900543
1761399280001647000,8.744647216796874,-0.11726014316082001,0.10023985058069229,0.46281200647354126
1761399280011728100,8.75472802734375,-0.09887423366308212,0.3060987591743469,0.45879843831062317
1761399280021808600,8.76480859375,-0.07547549903392792,0.4884590208530426,0.43783116340637207
1761399280031889400,8.774889404296875,-0.04246745631098747,0.6337310671806335,0.3849716782569885
1761399280041970200,8.78497021484375,-0.07209475338459015,0.7913269400596619,0.30416691303253174
1761399280052046600,8.795046630859375,-0.17608173191547394,0.9805319309234619,0.1958499252796173
1761399280062131700,8.805131591796876,-0.2846985161304474,1.1320658922195435,0.08060489594936371
1761399280072212200,8.815212158203124,-0.3813244700431824,1.214469313621521,-0.0009326186846010387
1761399280082272300,8.825272216796876,-0.4640111029148102,1.2546885013580322,-0.02709590271115303
1761399280092373500,8.83537353515625,-0.5335245132446289,1.2628655433654785,-0.03302469477057457
1761399280102454300,8.845454345703125,-0.5893317461013794,1.2823840379714966,-0.07877296954393387
1761399280112509700,8.855509765625,-0.651117742061615,1.3316795825958252,-0.18101128935813904
1761399280122594800,8.8655947265625,-0.7354530692100525,1.4145992994308472,-0.33387747406959534
1761399280132709600,8.875709716796875,-0.8357595801353455,1.496503233909607,-0.4862940311431885
1761399280142777600,8.885777587890624,-0.9246414303779602,1.5330919027328491,-0.600822925567627
1761399280152857900,8.89585791015625,-0.9696236252784729,1.5082942247390747,-0.6739668846130371
1761399280162939400,8.905939453125,-0.9317860007286072,1.4042073488235474,-0.6931855082511902
1761399280173019400,8.916019287109375,-0.7739402651786804,1.2068917751312256,-0.611864447593689
1761399280183096300,8.926096435546874,-0.48822587728500366,0.9314196109771729,-0.42718932032585144
1761399280193181200,8.93618115234375,-0.0980914980173111,0.6321655511856079,-0.16865409910678864
1761399280203253200,8.946253173828126,0.2501915991306305,0.4018087685108185,0.12693606317043304
1761399280213342000,8.956342041015626,0.46565982699394226,0.3437865674495697,0.39055073261260986
1761399280223423000,8.966423095703124,0.5701630711555481,0.3687840700149536,0.46884071826934814
1761399280233504300,8.976504150390625,0.5770078301429749,0.28105130791664124,0.36505359411239624
1761399280243583000,8.9865830078125,0.543749988079071,0.020434340462088585,0.24734379351139069
1761399280253664800,8.996664794921875,0.47335392236709595,-0.3335610628128052,0.2247277945280075
1761399280263746000,9.00674609375,0.3182894289493561,-0.5307766199111938,0.24507886171340942
1761399280273826300,9.016826416015626,0.03737136349081993,-0.3494155704975128,0.15726281702518463
1761399280283907000,9.026906982421876,-0.3056657612323761,-0.027145864441990852,-0.06225229799747467
1761399280293987800,9.03698779296875,-0.6319157481193542,0.2635313868522644,-0.2547048330307007
1761399280304053800,9.0470537109375,-0.8189224600791931,0.5827701091766357,-0.35098105669021606
1761399280324230100,9.067230224609375,-0.38838571310043335,1.9713060855865479,-0.7138862609863281
1761399280334304000,9.077303955078126,0.17498257756233215,1.9494560956954956,-0.5502449870109558
1761399280344391700,9.0873916015625,0.5336743593215942,1.4109021425247192,-0.08646707236766815
1761399280354472000,9.097471923828126,0.5089932680130005,1.1616098880767822,0.32215312123298645
1761399280364553500,9.107553466796874,0.2545049786567688,1.0499787330627441,0.4588317275047302
1761399280374608400,9.1176083984375,-0.17393338680267334,0.8156749606132507,0.3531627058982849
1761399280384714200,9.12771435546875,-0.6615930199623108,0.545731782913208,0.09784168750047684
1761399280394794800,9.137794677734375,-0.9722049832344055,0.39381489157676697,-0.1814776062965393
1761399280404875500,9.14787548828125,-0.9620794057846069,0.3390568494796753,-0.42287594079971313
1761399280414956300,9.157956298828125,-0.6998470425605774,0.43939661979675293,-0.5946609973907471
1761399280425037000,9.168037109375,-0.3465011417865753,0.8766782283782959,-0.6015390157699585
1761399280435118300,9.178118408203124,-0.05377545952796936,1.3379913568496704,-0.4303368926048279
1761399280445198800,9.18819873046875,0.04320022836327553,1.4836797714233398,-0.22852487862110138
1761399280455280400,9.1982802734375,-0.036172281950712204,1.472771406173706,-0.14782005548477173
1761399280465334800,9.208334716796875,-0.14220769703388214,1.5183531045913696,-0.23498660326004028
1761399280475415300,9.218415283203125,-0.20675823092460632,1.571229338645935,-0.4321022033691406
1761399280485521000,9.22852099609375,-0.2643474340438843,1.6094833612442017,-0.6054527163505554
1761399280495602200,9.238602294921876,-0.3251175284385681,1.64035964012146,-0.6338809132575989
1761399280505683200,9.24868310546875,-0.37219810485839844,1.6424247026443481,-0.5210840106010437
1761399280515763500,9.258763427734374,-0.39386484026908875,1.644273281097412,-0.32140371203422546
1761399280525844700,9.2688447265625,-0.38109129667282104,1.5913971662521362,-0.12367189675569534
1761399280535919600,9.278919677734375,-0.37844333052635193,1.5345574617385864,0.01970157027244568
1761399280546006000,9.289006103515625,-0.37153196334838867,1.448490023612976,0.07772377133369446
1761399280556086500,9.29908642578125,-0.3614729940891266,1.3561440706253052,0.05703962221741676
1761399280566167300,9.309167236328125,-0.34055569767951965,1.2472609281539917,-0.01698698289692402
1761399280576247800,9.319247802734376,-0.30771419405937195,1.0908974409103394,-0.11421247571706772
1761399280586305000,9.329304931640625,-0.28777948021888733,0.913999617099762,-0.20192860066890717
1761399280596409000,9.3394091796875,-0.28974464535713196,0.7436134815216064,-0.2552710473537445
1761399280606489900,9.34948974609375,-0.30258479714393616,0.6595612168312073,-0.25565409660339355
1761399280616570600,9.359570556640625,-0.3262833058834076,0.6811780333518982,-0.21223735809326172
1761399280626652000,9.36965185546875,-0.3649370074272156,0.7382676005363464,-0.18540792167186737
1761399280636732700,9.379732666015625,-0.4116012454032898,0.7993707656860352,-0.20957273244857788
1761399280646813400,9.3898134765625,-0.46331164240837097,0.8360093832015991,-0.2638644576072693
1761399280656894000,9.39989404296875,-0.5037306547164917,0.8024351000785828,-0.30744773149490356
1761399280666997500,9.40999755859375,-0.5342239737510681,0.7322555184364319,-0.3066483438014984
1761399280677055000,9.420054931640625,-0.5512775778770447,0.639859676361084,-0.2590348422527313
1761399280687135700,9.4301357421875,-0.5656498670578003,0.5895316004753113,-0.18450860679149628
1761399280697216300,9.44021630859375,-0.582237184047699,0.5478968024253845,-0.12945079803466797
1761399280707297000,9.450297119140625,-0.6073679327964783,0.5211672782897949,-0.11389605700969696
1761399280717377800,9.460377685546876,-0.6429406404495239,0.5152052044868469,-0.1472538262605667
1761399280727458300,9.470458251953126,-0.6796125769615173,0.5157381296157837,-0.21421918272972107
1761399280737502000,9.480501953125,-0.6993973851203918,0.4884090721607208,-0.28098466992378235
1761399280747619600,9.49061962890625,-0.688922107219696,0.44425955414772034,-0.3285648822784424
1761399280757701000,9.500701171875,-0.6894550323486328,0.4463912546634674,-0.3467009961605072
1761399280767780900,9.51078076171875,-0.6372283697128296,0.40817055106163025,-0.3377411961555481
1761399280777836800,9.5208369140625,-0.5805717706680298,0.3866703510284424,-0.29460757970809937
1761399280787943700,9.530943603515626,-0.4960865080356598,0.46988993883132935,-0.19838131964206696
1761399280798019600,9.54101953125,-0.38886868953704834,0.6219400763511658,-0.1223229318857193
1761399280808100600,9.5511005859375,-0.26806125044822693,0.6564802527427673,-0.06558308005332947
1761399280818181400,9.561181396484375,-0.19401799142360687,0.5880493521690369,-0.02050095610320568
1761399280828265500,9.571265380859375,-0.18017859756946564,0.4692404270172119,0.03460681438446045
1761399280838346200,9.58134619140625,-0.17743070423603058,0.40089279413223267,0.12112385034561157
1761399280848427500,9.591427490234375,-0.14562174677848816,0.4458916485309601,0.23150593042373657
1761399280858507800,9.6015078125,-0.10785068571567535,0.5561738014221191,0.3334444761276245
1761399280868589000,9.611589111328126,-0.0766412690281868,0.6079508066177368,0.4044400751590729
1761399280878665000,9.6216650390625,-0.009592649526894093,0.507794201374054,0.4370151162147522
1761399280888750300,9.631750244140624,0.12318893522024155,0.26384782791137695,0.45203694701194763
1761399280898830800,9.641830810546875,0.30459991097450256,-0.07141194492578506,0.47223812341690063
1761399280908911600,9.65191162109375,0.48084819316864014,-0.3453020751476288,0.49786847829818726
1761399280918988300,9.66198828125,0.6465212106704712,-0.5968426465988159,0.4936050772666931
1761399280929073200,9.6720732421875,0.8189557790756226,-0.8378080129623413,0.5166540741920471
1761399280939153400,9.6821533203125,0.944259762763977,-0.8809582591056824,0.5985913276672363
1761399280949212200,9.692212158203125,0.8815245032310486,-0.7339542508125305,0.6868903040885925
1761399280959315000,9.70231494140625,0.7314228415489197,-0.6668723225593567,0.8414718508720398
1761399280969370400,9.712370361328125,0.6193587183952332,-0.6092497706413269,1.1031047105789185
1761399280979476500,9.7224765625,0.563168466091156,-0.480048805475235,1.485045313835144
1761399280989557000,9.732556884765625,0.5531927347183228,-0.2936416566371918,1.9677754640579224
1761399280999637800,9.7426376953125,0.5713621377944946,-0.09907408058643341,2.445925712585449
1761399281009715000,9.75271484375,0.5860509276390076,0.04363323003053665,2.7949581146240234
1761399281019799000,9.762799072265626,0.6123640537261963,0.1059354916214943,2.927873134613037
1761399281029855700,9.772855712890625,0.6714354753494263,0.11337978392839432,2.8265674114227295
1761399281039960300,9.782960205078124,0.7621825933456421,0.05457484722137451,2.5237326622009277
1761399281050041000,9.793041015625,0.81863933801651,-0.10418682545423508,2.13364839553833
1761399281060121900,9.803121826171875,0.8370252847671509,-0.2800687253475189,1.8133105039596558
1761399281070177500,9.813177490234375,0.8699833154678345,-0.34362003207206726,1.6570968627929688
1761399281080279300,9.823279296875,0.9042737483978271,-0.35331258177757263,1.6470378637313843
1761399281090364700,9.83336474609375,0.8692672252655029,-0.4705560803413391,1.6743502616882324
1761399281100444400,9.8434443359375,0.7722082734107971,-0.6805118322372437,1.6488198041915894
1761399281110526200,9.853526123046874,0.7039272785186768,-0.8133100867271423,1.5436004400253296
1761399281120607000,9.86360693359375,0.7048099040985107,-0.7717419266700745,1.3669025897979736
1761399281130687500,9.8736875,0.7430306077003479,-0.6647073030471802,1.1914536952972412
1761399281140763600,9.883763671875,0.774256706237793,-0.5938282608985901,1.06027090549469
1761399281150823000,9.893822998046875,0.7813345789909363,-0.6143125891685486,0.978683352470398
1761399281160903000,9.90390283203125,0.75730299949646,-0.6680047512054443,0.9213939309120178
1761399281170984000,9.91398388671875,0.7181829810142517,-0.7457451820373535,0.8526133298873901
1761399281181065200,9.924065185546874,0.684592068195343,-0.8185893893241882,0.7607503533363342
1761399281191146000,9.93414599609375,0.6719184517860413,-0.8472174406051636,0.6628920435905457
1761399281201215000,9.944215087890624,0.693718433380127,-0.8962465524673462,0.564534068107605
1761399281211295700,9.954295654296875,0.7008962631225586,-0.9836129546165466,0.4624789357185364
1761399281221380600,9.964380615234376,0.6763150691986084,-1.051827311515808,0.3714820146560669
1761399281231477800,9.974477783203126,0.6425076723098755,-1.1369454860687256,0.2788862884044647
1761399281241549000,9.984549072265626,0.6021219491958618,-1.1991311311721802,0.17278426885604858
1761399281251655400,9.994655517578124,0.5551912188529968,-1.2392504215240479,0.043816424906253815
1761399281261736200,10.004736083984374,0.4894915819168091,-1.2476439476013184,-0.10850019007921219
1761399281271812900,10.014812744140626,0.4100691080093384,-1.2356364727020264,-0.2850648760795593
1761399281281897700,10.024897705078125,0.30729785561561584,-1.1805620193481445,-0.4778338372707367
1761399281291978200,10.034978271484375,0.19421783089637756,-1.0985748767852783,-0.6678715348243713
1761399281302059000,10.04505908203125,0.09875765442848206,-1.0098261833190918,-0.8419714570045471
1761399281312139500,10.055139404296876,0.03437365964055061,-0.9408457279205322,-0.9847620725631714
1761399281322220300,10.06522021484375,-0.011424578726291656,-0.9204779863357544,-1.0830034017562866
1761399281332297000,10.075296875,-0.048113130033016205,-0.9784335494041443,-1.131532907485962
1761399281342381800,10.0853818359375,-0.07316060364246368,-1.0899314880371094,-1.1402429342269897
1761399281352441600,10.095441650390624,-0.09096362441778183,-1.2223799228668213,-1.1209410429000854
1761399281362543000,10.105543212890625,-0.12880130112171173,-1.3414220809936523,-1.1001403331756592
1761399281372624000,10.115623779296875,-0.1896546632051468,-1.468441367149353,-1.1093999147415161
1761399281382704600,10.12570458984375,-0.24489566683769226,-1.650185465812683,-1.18312668800354
1761399281392786000,10.135785888671874,-0.2886621356010437,-1.9463084936141968,-1.2501087188720703
1761399281402842600,10.145842529296875,-0.26509684324264526,-2.1609606742858887,-1.202545166015625
1761399281412946700,10.15594677734375,-0.2294408529996872,-2.1361963748931885,-1.153699278831482
1761399281423028000,10.166028076171875,-0.3280819356441498,-2.0909810066223145,-1.2230294942855835
1761399281433108000,10.17610791015625,-0.5014157891273499,-2.00681209564209,-1.2844491004943848
1761399281443189200,10.186189208984375,-0.5164209604263306,-1.6402430534362793,-1.1780972480773926
1761399281453244700,10.19624462890625,-0.259900838136673,-1.1380778551101685,-0.9242584109306335
1761399281463346400,10.206346435546875,0.14254076778888702,-0.6780304312705994,-0.6460549235343933
1761399281473403000,10.21640283203125,0.5121908187866211,-0.40565580129623413,-0.36285528540611267
1761399281483512300,10.22651220703125,0.7676118016242981,-0.36527010798454285,-0.07860643416643143
1761399281493593000,10.236593017578125,0.8895683288574219,-0.4302036762237549,0.05272626131772995
1761399281503673000,10.246673095703125,0.948573112487793,-0.5056125521659851,-0.173566997051239
1761399281513753600,10.256753662109375,0.9496889114379883,-0.4652601480484009,-0.2880459427833557
1761399281523830800,10.266830810546875,1.0246315002441406,-0.2253439873456955,0.08546783775091171
1761399281533897700,10.276897705078126,1.348183512687683,-0.04914567247033119,0.24516212940216064
1761399281543995600,10.28699560546875,1.2613667249679565,-0.2581188678741455,0.09456086903810501
1761399281554076700,10.29707666015625,0.5518604516983032,-0.582503616809845,0.31505855917930603
1761399281564157700,10.30715771484375,0.0814375951886177,-0.6473206281661987,0.36220577359199524
1761399281574238000,10.317238037109375,-0.12360528111457825,-0.5992740988731384,-0.07002966850996017
1761399281584319500,10.327319580078125,-0.23743471503257751,-0.7777706384658813,-0.6842923164367676
1761399281594397700,10.337397705078125,-0.3974287807941437,-1.1041371822357178,-1.2198152542114258
1761399281604433700,10.34743359375,-0.5682811737060547,-1.2351535558700562,-1.6209079027175903
1761399281614561300,10.357561279296876,-0.627985417842865,-1.2923097610473633,-1.8894354104995728
1761399281624641300,10.367641357421874,-0.5297607183456421,-1.417680263519287,-2.0123746395111084
1761399281634723300,10.377723388671875,-0.2665124535560608,-1.5153387784957886,-1.9624961614608765
1761399281644803000,10.387802978515625,0.09286217391490936,-1.5044804811477661,-1.8378416299819946
1761399281654884000,10.397884033203125,0.32763227820396423,-1.4345173835754395,-1.7291250228881836
1761399281664965000,10.407965087890625,0.3402392864227295,-1.3304804563522339,-1.6125143766403198
1761399281675044900,10.418044921875,0.2582687437534332,-1.2107388973236084,-1.5296778678894043
1761399281685126400,10.42812646484375,0.14593817293643951,-1.0311098098754883,-1.5411690473556519
1761399281695207000,10.43820703125,0.039186637848615646,-0.9069050550460815,-1.622256875038147
1761399281705287400,10.448287353515624,-0.024614471942186356,-0.8683512806892395,-1.6272863149642944
1761399281715369000,10.458368896484375,-0.03435700386762619,-0.8681347370147705,-1.4695571660995483
1761399281725423900,10.468423828125,-0.010958269238471985,-0.8506481647491455,-1.2244950532913208
1761399281735529500,10.478529541015625,0.005978751927614212,-0.7888787984848022,-1.0178200006484985
1761399281745610500,10.488610595703125,-0.010908307507634163,-0.6959000825881958,-0.9348669648170471
1761399281755690800,10.498690673828126,-0.05743931606411934,-0.5795725584030151,-0.9446761012077332
1761399281765771800,10.508771728515624,-0.113229900598526,-0.5545916557312012,-0.9706228971481323
1761399281775844000,10.518843994140624,-0.1666223108768463,-0.702078640460968,-0.959481418132782
1761399281785932800,10.528932861328125,-0.21441902220249176,-0.9816311001777649,-0.9271395206451416
1761399281796013800,10.539013916015625,-0.24008269608020782,-1.2422147989273071,-0.9293878078460693
1761399281806094300,10.54909423828125,-0.2525731325149536,-1.383323311805725,-1.0227329730987549
1761399281816177400,10.559177490234376,-0.23998276889324188,-1.4571001529693604,-1.1909373998641968
1761399281826256400,10.56925634765625,-0.2084069699048996,-1.5757758617401123,-1.3420382738113403
1761399281836337400,10.57933740234375,-0.16732178628444672,-1.7001471519470215,-1.4129838943481445
1761399281846418000,10.58941796875,-0.14395634829998016,-1.7529067993164062,-1.4040074348449707
1761399281856498400,10.59949853515625,-0.14040906727313995,-1.7421983480453491,-1.337824821472168
1761399281866578700,10.60957861328125,-0.15583059191703796,-1.713220477104187,-1.2372852563858032
1761399281876659500,10.619659423828125,-0.18061159551143646,-1.7234126329421997,-1.1393935680389404
1761399281886740700,10.62974072265625,-0.19161982834339142,-1.7489930391311646,-1.0622693300247192
1761399281896821000,10.639821044921876,-0.17819678783416748,-1.7976558208465576,-1.0010162591934204
1761399281906902300,10.64990234375,-0.15351569652557373,-1.8702335357666016,-0.9314528703689575
1761399281916978200,10.659978271484375,-0.131066232919693,-1.950388789176941,-0.8338277339935303
1761399281927040300,10.670040283203125,-0.10050631314516068,-1.9877434968948364,-0.7064253091812134
1761399281937144300,10.680144287109375,-0.06348468363285065,-1.9827306270599365,-0.5752425193786621
1761399281947198700,10.69019873046875,-0.0210005734115839,-1.975769281387329,-0.4743864834308624
1761399281957305600,10.7003056640625,0.02612997591495514,-2.0053133964538574,-0.41283366084098816
1761399281967386000,10.71038623046875,0.08794926851987839,-2.0369558334350586,-0.3807915449142456
1761399281977467600,10.720467529296876,0.15719620883464813,-2.0448496341705322,-0.369050532579422
1761399281987547100,10.730547119140626,0.1841089129447937,-2.029061794281006,-0.37449637055397034
1761399281997627600,10.740627685546874,0.1809946447610855,-2.017054319381714,-0.40483978390693665
1761399282007708400,10.75070849609375,0.1566799432039261,-2.0039310455322266,-0.45032158493995667
1761399282017789200,10.7607890625,0.12595348060131073,-1.9838131666183472,-0.4881758987903595
1761399282027870000,10.770869873046875,0.10934954136610031,-1.923642635345459,-0.4989509880542755
1761399282037912600,10.78091259765625,0.09924061596393585,-1.815725326538086,-0.49585336446762085
1761399282048028200,10.791028076171875,0.08991443365812302,-1.7237790822982788,-0.4968026280403137
1761399282058108200,10.801108154296875,0.07799023389816284,-1.684675693511963,-0.5032809972763062
1761399282068192800,10.81119287109375,0.0651167705655098,-1.678763508796692,-0.5156381726264954
1761399282078273500,10.8212734375,0.046531010419130325,-1.700863242149353,-0.5192188024520874
1761399282088354300,10.831354248046875,0.024914242327213287,-1.7219138145446777,-0.5039305090904236
1761399282098431000,10.841430908203124,0.018385911360383034,-1.7161848545074463,-0.48003214597702026
1761399282108495000,10.8514951171875,0.020817380398511887,-1.7038443088531494,-0.46344485878944397
1761399282118596400,10.861596435546875,0.025247320532798767,-1.6848089694976807,-0.45363572239875793
1761399282128677000,10.871677001953126,0.02859475463628769,-1.6568470001220703,-0.4345170259475708
1761399282138758400,10.88175830078125,0.038303982466459274,-1.6404762268066406,-0.38672032952308655
1761399282148838700,10.891838623046874,0.0717783272266388,-1.631250023841858,-0.2990874648094177
1761399282158916000,10.901916015625,0.12691940367221832,-1.6212077140808105,-0.17616499960422516
1761399282168974300,10.911974365234375,0.1890384703874588,-1.6176104545593262,-0.036888398230075836
1761399282179055000,10.92205517578125,0.24148161709308624,-1.6480704545974731,0.09830799698829651
1761399282189162000,10.932161865234375,0.2790195345878601,-1.7234792709350586,0.2318056970834732
1761399282199242800,10.94224267578125,0.2992706596851349,-1.8194557428359985,0.3598242700099945
1761399282209322800,10.95232275390625,0.2985711991786957,-1.875329613685608,0.49903425574302673
1761399282219403500,10.962403564453124,0.2937415838241577,-1.8954474925994873,0.6511010527610779
1761399282229479000,10.97247900390625,0.29667267203330994,-1.9126343727111816,0.8055493831634521
1761399282239565300,10.9825654296875,0.31597453355789185,-1.9489065408706665,0.9633950591087341
1761399282249645600,10.9926455078125,0.3590582013130188,-2.004147529602051,1.1382777690887451
1761399282259726300,11.002726318359375,0.4348001480102539,-2.0606541633605957,1.335443377494812
1761399282269806800,11.012806884765626,0.5502783060073853,-2.06829833984375,1.548696517944336
1761399282279887600,11.0228876953125,0.6936184763908386,-2.0197689533233643,1.7411324977874756
1761399282289964500,11.032964599609375,0.8629220724105835,-1.8778777122497559,1.846035361289978
1761399282300025900,11.04302587890625,1.0642844438552856,-1.646005392074585,1.803368091583252
1761399282310098700,11.0530986328125,1.2600011825561523,-1.4380813837051392,1.6099995374679565
1761399282320210700,11.063210693359375,1.371582269668579,-1.3257840871810913,1.3045003414154053
1761399282330298600,11.073298583984375,1.4183131456375122,-1.3160581588745117,0.9758521914482117
1761399282340372000,11.0833720703125,1.4138332605361938,-1.3229196071624756,0.6857578158378601
1761399282350453200,11.093453369140626,1.3895518779754639,-1.295973539352417,0.4504215121269226
1761399282360529400,11.103529296875,1.3890188932418823,-1.2721917629241943,0.2604837119579315
1761399282370614300,11.1136142578125,1.427706003189087,-1.2885125875473022,0.05244314670562744
1761399282380694800,11.12369482421875,1.4846123456954956,-1.3670191764831543,-0.19768184423446655
1761399282390750500,11.13375048828125,1.545365810394287,-1.4046403169631958,-0.45508459210395813
1761399282400856000,11.14385595703125,1.5918468236923218,-1.3721485137939453,-0.6857911348342896
1761399282410936800,11.153936767578125,1.6177936792373657,-1.3794761896133423,-0.9044902324676514
1761399282421014000,11.164013916015625,1.6286852359771729,-1.4360495805740356,-1.1202082633972168
1761399282431098400,11.174098388671876,1.5981420278549194,-1.4359996318817139,-1.2958569526672363
1761399282441153800,11.18415380859375,1.5260971784591675,-1.4102360010147095,-1.4268399477005005
1761399282451260700,11.1942607421875,1.4358996152877808,-1.3974125385284424,-1.5162214040756226
1761399282461341000,11.2043408203125,1.351880669593811,-1.3856881856918335,-1.5778576135635376
1761399282471396000,11.21439599609375,1.3019523620605469,-1.3560941219329834,-1.615195631980896
1761399282481497900,11.224497802734374,1.2758889198303223,-1.33914053440094,-1.6431574821472168
1761399282491582500,11.23458251953125,1.2945579290390015,-1.3176403045654297,-1.656630516052246
1761399282501663500,11.24466357421875,1.3216205835342407,-1.3393902778625488,-1.6733677387237549
1761399282511719400,11.254719482421875,1.3772945404052734,-1.4361162185668945,-1.6943349838256836
1761399282521799400,11.26479931640625,1.4514544010162354,-1.6021389961242676,-1.6940186023712158
1761399282531905800,11.27490576171875,1.514622688293457,-1.8296478986740112,-1.683110237121582
1761399282541986300,11.284986328125,1.6245883703231812,-2.0825042724609375,-1.664041519165039
1761399282552063200,11.295063232421874,1.6884561777114868,-2.272841691970825,-1.6398433446884155
1761399282562148400,11.3051484375,1.6408592462539673,-2.3632891178131104,-1.616161584854126
1761399282572229000,11.31522900390625,1.588016390800476,-2.3181068897247314,-1.5786902904510498
1761399282582309000,11.32530908203125,1.4911073446273804,-2.2043607234954834,-1.5648674964904785
1761399282592372700,11.335372802734375,1.3361927270889282,-2.0703635215759277,-1.5609371662139893
1761399282602445000,11.345445068359375,1.1928691864013672,-1.975019931793213,-1.5847855806350708
1761399282612547300,11.35554736328125,1.1337978839874268,-1.89186692237854,-1.5480470657348633
1761399282622632000,11.3656318359375,1.0489795207977295,-1.8673356771469116,-1.4633619785308838
1761399282632673500,11.375673583984375,0.9567002058029175,-1.8804256916046143,-1.346118450164795
1761399282642793200,11.385793212890626,0.8725313544273376,-1.8918336629867554,-1.22196364402771
1761399282652874000,11.3958740234375,0.8063987493515015,-1.8629558086395264,-1.1106655597686768
1761399282662924800,11.4059248046875,0.7607337236404419,-1.820588231086731,-1.020451307296753
1761399282673035500,11.416035400390625,0.7262768149375916,-1.77016019821167,-0.9677584171295166
1761399282683112000,11.42611181640625,0.6753824353218079,-1.7047436237335205,-0.950971245765686
1761399282693197300,11.436197265625,0.6272193789482117,-1.6146126985549927,-0.9368321299552917
1761399282703277300,11.44627734375,0.5814211368560791,-1.499267816543579,-0.9031079411506653
1761399282713358000,11.456358154296876,0.5326418280601501,-1.347434163093567,-0.8562605381011963
1761399282723439000,11.466439208984376,0.4835960865020752,-1.1620761156082153,-0.816790759563446
1761399282733516300,11.476516357421875,0.4145157039165497,-0.9460916519165039,-0.8047499656677246
1761399282743575800,11.486575927734375,0.3311295807361603,-0.7290912866592407,-0.8299307227134705
1761399282753681200,11.49668115234375,0.2408987283706665,-0.5185193419456482,-0.8868870735168457
1761399282763761700,11.50676171875,0.14667093753814697,-0.35264644026756287,-0.9544186592102051
1761399282773817900,11.51681787109375,0.05211006850004196,-0.24119850993156433,-1.0121077299118042
1761399282783924000,11.526924072265626,-0.03687174618244171,-0.16747166216373444,-1.0612201690673828
1761399282793978400,11.536978271484376,-0.12372186034917831,-0.13168242573738098,-1.1092499494552612
1761399282804080400,11.547080322265625,-0.20455990731716156,-0.13821075856685638,-1.161576509475708
1761399282814136000,11.557135986328126,-0.2978883981704712,-0.13987614214420319,-1.2009797096252441
1761399282824246300,11.567246337890625,-0.3946642279624939,-0.1925191432237625,-1.2220635414123535
1761399282834301700,11.5773017578125,-0.47168853878974915,-0.2647304832935333,-1.1862410306930542
1761399282844407300,11.5874072265625,-0.5184193849563599,-0.3623723089694977,-1.0945112705230713
1761399282854488300,11.59748828125,-0.5174368023872375,-0.46356144547462463,-0.9800822734832764
1761399282864543500,11.60754345703125,-0.4568499028682709,-0.5564069747924805,-0.8608736395835876
1761399282874650000,11.617650146484374,-0.34202125668525696,-0.628335177898407,-0.7412153482437134
1761399282884730000,11.627730224609374,-0.22844161093235016,-0.6458883881568909,-0.613862931728363
1761399282894811000,11.637810791015625,-0.15816213190555573,-0.5589383244514465,-0.4945043921470642
1761399282904891600,11.6478916015625,-0.143773153424263,-0.4156481623649597,-0.4254240095615387
1761399282914947800,11.65794775390625,-0.19478407502174377,-0.22337882220745087,-0.4043068587779999
1761399282925053400,11.668053466796875,-0.2979050576686859,-0.050294794142246246,-0.40024328231811523
1761399282935134500,11.678134521484376,-0.4635947346687317,0.10433671623468399,-0.42692285776138306
1761399282945214500,11.68821435546875,-0.7709758877754211,0.20469313859939575,-0.6051695942878723
1761399282955295200,11.698295166015624,-1.1709860563278198,0.34868279099464417,-0.8230359554290771
1761399282965377000,11.708376953125,-1.4477572441101074,0.41498199105262756,-0.9758022427558899
1761399282975431400,11.718431396484375,-1.354711890220642,0.1382274031639099,-0.96640944480896
1761399282985538300,11.728538330078125,-0.9851617217063904,-0.2678447365760803,-0.7703096866607666
1761399282995592700,11.7385927734375,-0.5098759531974792,-0.5600541830062866,-0.4462580382823944
1761399283005691100,11.748691162109376,-0.15526434779167175,-0.8695170283317566,-0.10412020981311798
1761399283015779800,11.75877978515625,-0.07214471697807312,-1.0922629833221436,-0.04463246464729309
1761399283025860000,11.768860107421874,-0.11306335777044296,-0.9764517545700073,-0.23477008938789368
1761399283035920100,11.778920166015626,-0.29077717661857605,-0.7621326446533203,-0.6194586157798767
1761399283046021600,11.789021728515625,-0.5269295573234558,-0.6722848415374756,-1.012440800666809
1761399283056102100,11.79910205078125,-0.766362726688385,-0.847250759601593,-1.2311066389083862
1761399283066181600,11.809181640625,-0.9753692150115967,-1.2803188562393188,-1.1713523864746094
1761399283076262000,11.819261962890625,-1.0870170593261719,-1.8544455766677856,-0.9400129914283752
1761399283086343200,11.82934326171875,-1.1133302450180054,-2.3104794025421143,-0.6999136805534363
1761399283096425700,11.83942578125,-1.0525600910186768,-2.540736436843872,-0.5678815245628357
1761399283106481700,11.849481689453125,-0.8903177380561829,-2.5394372940063477,-0.5849517583847046
1761399283116586500,11.85958642578125,-0.6944844722747803,-2.308697462081909,-0.7582855820655823
1761399283126671600,11.869671630859376,-0.5416849255561829,-1.830130934715271,-0.9949375987052917
1761399283136748300,11.879748291015625,-0.41469889879226685,-1.4182465076446533,-1.2269264459609985
1761399283146828800,11.889828857421875,-0.35228005051612854,-1.129617691040039,-1.3370088338851929
1761399283156909800,11.899909912109376,-0.37484610080718994,-0.994188129901886,-1.3172239065170288
1761399283166992600,11.90999267578125,-0.5040137767791748,-0.9746531248092651,-1.251391053199768
1761399283177071400,11.9200712890625,-0.5637013912200928,-1.0202515125274658,-1.1371285915374756
1761399283187136800,11.93013671875,-0.5125072598457336,-1.1558642387390137,-0.9832298755645752
1761399283197232600,11.940232666015625,-0.3371749520301819,-1.348799705505371,-0.8520804047584534
1761399283207313400,11.9503134765625,-0.11957503855228424,-1.399644136428833,-0.7568866610527039
1761399283217394000,11.960393798828125,0.026746170595288277,-1.3360095024108887,-0.6757321953773499
1761399283227474700,11.970474609375,0.09849119186401367,-1.2514077425003052,-0.5838026404380798
1761399283237555700,11.9805556640625,0.14042572677135468,-1.1197086572647095,-0.47578540444374084
1761399283247623000,11.990622802734375,0.15233327448368073,-1.0181697607040405,-0.378210186958313
1761399283257716700,12.000716796875,0.04413284733891487,-1.073976993560791,-0.2918596863746643
1761399283267797800,12.0107978515625,-0.03923660144209862,-1.2554047107696533,-0.1829930990934372
1761399283277878500,12.02087841796875,-0.028611408546566963,-1.3707163333892822,-0.16160948574543
1761399283287959000,12.030958984375,-0.008227028883993626,-1.4105358123779297,-0.2672951817512512
1761399283298028000,12.041028076171875,-0.04624789208173752,-1.418096661567688,-0.44489240646362305
1761399283308119000,12.051119140625,-0.12495424598455429,-1.4598313570022583,-0.6121642589569092
1761399283318198800,12.06119873046875,-0.20627526938915253,-1.4959369897842407,-0.7345870733261108
1761399283328274700,12.071274658203125,-0.24890926480293274,-1.4402962923049927,-0.8472174406051636
1761399283338350300,12.081350341796876,-0.2622823417186737,-1.309912919998169,-0.9697901606559753
1761399283348443600,12.091443603515625,-0.2899944484233856,-1.1852917671203613,-1.076525092124939
1761399283358512600,12.1015126953125,-0.33409398794174194,-1.0836862325668335,-1.1442065238952637
1761399283368604400,12.1116044921875,-0.3802919089794159,-0.9731542468070984,-1.1830767393112183
1761399283378670600,12.121670654296874,-0.4184959828853607,-0.8654701113700867,-1.2147858142852783
1761399283388757200,12.13175732421875,-0.46640926599502563,-0.7665792107582092,-1.2617831230163574
1761399283398846700,12.1418466796875,-0.5316759347915649,-0.7252775430679321,-1.2999038696289062
1761399283408915200,12.151915283203126,-0.6070848107337952,-0.7111716866493225,-1.3103458881378174
1761399283419008300,12.16200830078125,-0.6785134077072144,-0.6381610035896301,-1.28961181640625
1761399283429075200,12.1720751953125,-0.7487761974334717,-0.4606303572654724,-1.2438302040100098
1761399283439167700,12.182167724609375,-0.7819674611091614,-0.2882291376590729,-1.1719518899917603
1761399283449237000,12.192237060546875,-0.7592681646347046,-0.20724119246006012,-1.0856513977050781
1761399283459330800,12.202330810546876,-0.6913036108016968,-0.22509418427944183,-0.9915735125541687
1761399283469411800,12.212411865234374,-0.6051029562950134,-0.3228359520435333,-0.8641045093536377
1761399283479479600,12.2224794921875,-0.5375547409057617,-0.39303216338157654,-0.6846587061882019
1761399283489570000,12.232570068359376,-0.46119657158851624,-0.47267112135887146,-0.44356009364128113
1761399283499654000,12.24265380859375,-0.3636546730995178,-0.4704728126525879,-0.22096401453018188
1761399283509719600,12.252719482421876,-0.2624322175979614,-0.44282734394073486,-0.06676550209522247
1761399283519815200,12.262815185546875,-0.20176205039024353,-0.4646605849266052,0.02712921053171158
1761399283529879300,12.27287939453125,-0.17115217447280884,-0.5369385480880737,0.08443529903888702
1761399283539976700,12.282976806640624,-0.15306603908538818,-0.5941946506500244,0.12032446265220642
1761399283550057000,12.293056884765624,-0.10601875931024551,-0.6845587491989136,0.14463916420936584
1761399283560138200,12.30313818359375,-0.0020650841761380434,-0.8307467103004456,0.18187730014324188
1761399283570204400,12.313204345703125,0.14552181959152222,-1.054641842842102,0.2199314683675766
1761399283580299000,12.323299072265625,0.28759628534317017,-1.3092633485794067,0.2604837119579315
1761399283590380300,12.33338037109375,0.4321022033691406,-1.5976589918136597,0.3012191653251648
1761399283600471800,12.343471923828124,0.6333146691322327,-1.9239757061004639,0.37368032336235046
1761399283610539800,12.353539794921875,0.8899013996124268,-2.1501524448394775,0.5554743409156799
1761399283620620000,12.3636201171875,1.0656501054763794,-2.2163681983947754,0.7755057215690613
1761399283630685400,12.373685546875,1.1203081607818604,-2.222630023956299,1.0037142038345337
1761399283640779800,12.38377978515625,1.1282187700271606,-2.1380615234375,1.240599274635315
1761399283650864600,12.39386474609375,1.141075611114502,-1.9897252321243286,1.5479137897491455
1761399283660945200,12.403945068359375,1.1407924890518188,-1.790477991104126,1.8988949060440063
1761399283671026400,12.4140263671875,1.110615611076355,-1.5453990697860718,2.1844427585601807
1761399283681108200,12.424108154296874,1.086067795753479,-1.2495092153549194,2.3183400630950928
1761399283691187000,12.43418701171875,1.1223399639129639,-0.9475572109222412,2.2805356979370117
1761399283701245700,12.44424560546875,1.2217304706573486,-0.6547149419784546,2.0971763134002686
1761399283711348500,12.454348388671875,1.3352934122085571,-0.36019065976142883,1.8328121900558472
1761399283721429000,12.464428955078125,1.4132837057113647,-0.11631087213754654,1.5730279684066772
1761399283731497200,12.474497314453124,1.483613133430481,-0.02629651501774788,1.4196454286575317
1761399283741579500,12.48457958984375,1.5479804277420044,-0.07152852416038513,1.4008265733718872
1761399283751671000,12.494671142578126,1.5530599355697632,-0.20074616372585297,1.4596813917160034
1761399283761750300,12.504750244140626,1.479283094406128,-0.30604881048202515,1.4581992626190186
1761399283771823400,12.5148232421875,1.3796427249908447,-0.3337109386920929,1.3220535516738892
1761399283781913900,12.524913818359375,1.316024899482727,-0.3612231910228729,1.0773078203201294
1761399283791981800,12.53498193359375,1.3126274347305298,-0.5088600516319275,0.7838659882545471
1761399283802075000,12.545074951171875,1.3150089979171753,-0.7023118138313293,0.5344904065132141
1761399283812145400,12.5551455078125,1.2826837301254272,-0.9189624786376953,0.38893529772758484
1761399283822236200,12.565236083984376,1.2106889486312866,-1.1973657608032227,0.29452431201934814
1761399283832302600,12.575302490234375,1.1144460439682007,-1.5179535150527954,0.19075383245944977
1761399283842397700,12.585397705078124,1.0155051946640015,-1.8173739910125732,0.05374215170741081
1761399283852478700,12.595478759765625,0.9143493175506592,-1.9370156526565552,-0.08510145545005798
1761399283862559200,12.605559326171875,0.8203380703926086,-1.8884029388427734,-0.19283556938171387
1761399283872643000,12.61564306640625,0.7328051328659058,-1.7143529653549194,-0.2404157668352127
1761399283882707700,12.625707763671874,0.642740786075592,-1.5530599355697632,-0.2650468945503235
1761399283892799500,12.635799560546875,0.5647172331809998,-1.399977207183838,-0.2933252155780792
1761399283902869800,12.645869873046875,0.5107752680778503,-1.162192702293396,-0.2946408987045288
1761399283912942800,12.65594287109375,0.4931720793247223,-0.9366489052772522,-0.30078616738319397
1761399283923043600,12.666043701171875,0.5027980208396912,-0.8168906569480896,-0.3558772802352905
1761399283933102800,12.676102783203126,0.5115579962730408,-0.8090633749961853,-0.45251989364624023
1761399283943205400,12.686205322265625,0.4969858229160309,-0.862755537033081,-0.5667656660079956
1761399283953281800,12.69628173828125,0.4835794270038605,-0.8611401319503784,-0.6508179306983948
1761399283983515100,12.72651513671875,0.1446724683046341,-0.3676516115665436,-0.573244035243988
