time,seconds_elapsed,z,y,x
1761399271375058400,0.118058349609375,-0.010998363606631756,-9.560047149658203,-2.1092169284820557
1761399271385139500,0.128139404296875,-0.022595278918743134,-9.592144966125488,-2.1295676231384277
1761399271395220200,0.13822021484375,-0.04489128291606903,-9.594987869262695,-2.1122844219207764
1761399271405304000,0.148303955078125,-0.06501753628253937,-9.586234092712402,-2.0738275051116943
1761399271415405000,0.158405029296875,-0.09023147821426392,-9.564910888671875,-2.052578926086426
1761399271425486800,0.16848681640625,-0.08978256583213806,-9.519794464111328,-2.062978744506836
1761399271435537000,0.178536865234375,-0.09434650838375092,-9.493982315063477,-2.1115362644195557
1761399271445648400,0.1886484375,-0.0983867272734642,-9.495478630065918,-2.1740100383758545
1761399271455717000,0.198717041015625,-0.09891045838594437,-9.492036819458008,-2.226757287979126
1761399271465810200,0.20881005859375,-0.10901099443435669,-9.486051559448242,-2.240074872970581
1761399271475873000,0.218873046875,-0.14776714146137238,-9.487847328186035,-2.1973533630371094
1761399271485969700,0.2289697265625,-0.16153380274772644,-9.496601104736328,-2.1837363243103027
1761399271496053000,0.239052978515625,-0.17702129483222961,-9.50041675567627,-2.18306303024292
1761399271506120200,0.2491201171875,-0.18136078119277954,-9.493159294128418,-2.196380853652954
1761399271516213800,0.2592138671875,-0.16407763957977295,-9.453879356384277,-2.2007951736450195
1761399271526294300,0.269294189453125,-0.13534721732139587,-9.443255424499512,-2.1939117908477783
1761399271536351700,0.279351806640625,-0.13347674906253815,-9.453579902648926,-2.1609914302825928
1761399271546454300,0.289454345703125,-0.1488146036863327,-9.49113941192627,-2.1325602531433105
1761399271556524000,0.29952392578125,-0.12247838079929352,-9.505130767822266,-2.116025447845459
1761399271566617600,0.30961767578125,-0.09270049631595612,-9.51193904876709,-2.112434148788452
1761399271576693800,0.31969384765625,-0.09442132711410522,-9.547253608703613,-2.1368250846862793
1761399271586778600,0.329778564453125,-0.07826046645641327,-9.537227630615234,-2.1640591621398926
1761399271596857600,0.339857666015625,-0.08237550407648087,-9.483283042907715,-2.186504602432251
1761399271606933000,0.34993310546875,-0.10392332077026367,-9.478046417236328,-2.2002713680267334
1761399271617021700,0.360021728515625,-0.11342530697584152,-9.487098693847656,-2.1896471977233887
1761399271627091500,0.370091552734375,-0.12517185509204865,-9.479841232299805,-2.1856815814971924
1761399271637182700,0.3801826171875,-0.0999579206109047,-9.456198692321777,-2.2058827877044678
1761399271647263200,0.39026318359375,-0.0909048467874527,-9.488744735717773,-2.256460189819336
1761399271657331000,0.4003310546875,-0.0867898091673851,-9.4775972366333,-2.325218677520752
1761399271667422700,0.410422607421875,-0.10527005791664124,-9.415796279907227,-2.3315036296844482
1761399271677492700,0.42049267578125,-0.12509703636169434,-9.386242866516113,-2.2664859294891357
1761399271687574500,0.430574462890625,-0.09703999012708664,-9.44520092010498,-2.2085013389587402
1761399271697666600,0.44066650390625,-0.08895955979824066,-9.516427993774414,-2.2131402492523193
1761399271707751400,0.45075146484375,-0.08095394819974899,-9.519645690917969,-2.3122003078460693
1761399271717827800,0.460827880859375,-0.07915829122066498,-9.492935180664062,-2.442908763885498
1761399271727893800,0.470893798828125,-0.08215104788541794,-9.536478996276855,-2.598457098007202
1761399271737978600,0.480978515625,-0.06314706802368164,-9.551518440246582,-2.767622232437134
1761399271748059400,0.491059326171875,-0.019452888518571854,-9.524882316589355,-2.832265853881836
1761399271758151000,0.50115087890625,0.02528875507414341,-9.45919132232666,-2.830395221710205
1761399271768229000,0.51122900390625,0.04504092037677765,-9.436745643615723,-2.7871501445770264
1761399271778312200,0.521312255859375,0.015188217163085938,-9.465102195739746,-2.7397148609161377
1761399271788393000,0.53139306640625,-0.03396773710846901,-9.493234634399414,-2.6686370372772217
1761399271798459000,0.541458984375,-0.08821137249469757,-9.503035545349121,-2.6094553470611572
1761399271808551200,0.55155126953125,-0.12666822969913483,-9.5031099319458,-2.561272144317627
1761399271818622000,0.5616220703125,-0.1735047996044159,-9.534309387207031,-2.5288007259368896
1761399271828715500,0.571715576171875,-0.23089082539081573,-9.5531644821167,-2.4770262241363525
1761399271838797000,0.581797119140625,-0.2949357330799103,-9.52129077911377,-2.438868522644043
1761399271848869000,0.591869140625,-0.32359132170677185,-9.45792007446289,-2.3511807918548584
1761399271858955500,0.60195556640625,-0.3176058232784271,-9.403825759887695,-2.269179582595825
1761399271869025500,0.612025634765625,-0.314912348985672,-9.381155967712402,-2.2165069580078125
1761399271879112000,0.62211181640625,-0.29403790831565857,-9.382277488708496,-2.22660756111145
1761399271889199400,0.632199462890625,-0.3001730442047119,-9.380107879638672,-2.3401825428009033
1761399271899280400,0.6422802734375,-0.3304746448993683,-9.37980842590332,-2.5182511806488037
1761399271909348400,0.652348388671875,-0.38898295164108276,-9.343297004699707,-2.7077672481536865
1761399271919427800,0.662427734375,-0.41127896308898926,-9.273042678833008,-2.847304344177246
1761399271929509600,0.672509521484375,-0.42841246724128723,-9.235109329223633,-2.9210758209228516
1761399271939590700,0.682590576171875,-0.4636521339416504,-9.214683532714844,-2.963348388671875
1761399271949684200,0.692684326171875,-0.5165489912033081,-9.20899772644043,-2.9543700218200684
1761399271959744300,0.702744140625,-0.5454290509223938,-9.195829391479492,-2.913668632507324
1761399271969847300,0.712847412109375,-0.5630114674568176,-9.226056098937988,-2.8547115325927734
1761399271979926300,0.72292626953125,-0.5716904997825623,-9.254712104797363,-2.850820779800415
1761399271989991000,0.732990966796875,-0.5842600464820862,-9.241244316101074,-2.855534553527832
1761399272000074800,0.74307470703125,-0.5823895931243896,-9.222764015197754,-2.821866035461426
1761399272010155500,0.753155517578125,-0.5998971462249756,-9.273266792297363,-2.695272445678711
1761399272020248800,0.763248779296875,-0.6225672364234924,-9.326687812805176,-2.532092809677124
1761399272030318000,0.773318115234375,-0.6238391995429993,-9.374571800231934,-2.3859715461730957
1761399272040388400,0.783388427734375,-0.6370820999145508,-9.421632766723633,-2.282572031021118
1761399272050490000,0.793489990234375,-0.6774842739105225,-9.465551376342773,-2.2252607345581055
1761399272060569600,0.803569580078125,-0.716090738773346,-9.472285270690918,-2.199373483657837
1761399272070659600,0.81365966796875,-0.747963547706604,-9.468170166015625,-2.1939117908477783
1761399272080732200,0.823732177734375,-0.7839514017105103,-9.484854698181152,-2.2036383152008057
1761399272090802200,0.83380224609375,-0.7995885610580444,-9.44759464263916,-2.237231969833374
1761399272100882700,0.843882568359375,-0.7814075946807861,-9.430685997009277,-2.3157167434692383
1761399272110975200,0.853975341796875,-0.7745990753173828,-9.416918754577637,-2.4553287029266357
1761399272121043500,0.86404345703125,-0.7946504950523376,-9.369558334350586,-2.6030209064483643
1761399272131123700,0.874123779296875,-0.7950994372367859,-9.32421875,-2.729689121246338
1761399272141217300,0.88421728515625,-0.7959972620010376,-9.305214881896973,-2.8330140113830566
1761399272151304200,0.89430419921875,-0.8173205852508545,-9.33237361907959,-2.8692262172698975
1761399272161378300,0.90437841796875,-0.8338555693626404,-9.381230354309082,-2.8073511123657227
1761399272171446800,0.91444677734375,-0.770858108997345,-9.397391319274902,-2.6628761291503906
1761399272181536000,0.924535888671875,-0.7291092276573181,-9.374346733093262,-2.608407974243164
1761399272191621000,0.93462109375,-0.7053917050361633,-9.413103103637695,-2.598083019256592
1761399272201689000,0.944689208984375,-0.6989572644233704,-9.426870346069336,-2.596811056137085
1761399272211770000,0.95477001953125,-0.6397007703781128,-9.329904556274414,-2.566958427429199
1761399272221862700,0.964862548828125,-0.5796960592269897,-9.223137855529785,-2.5346364974975586
1761399272231943700,0.974943603515625,-0.5655553340911865,-9.199944496154785,-2.6051158905029297
1761399272242022400,0.9850224609375,-0.5562778115272522,-9.240795135498047,-2.740238666534424
1761399272252092700,0.9950927734375,-0.557250440120697,-9.368810653686523,-2.8954129219055176
1761399272262178000,1.005177978515625,-0.614486813545227,-9.418265342712402,-2.953322649002075
1761399272272276000,1.01527587890625,-0.6631938815116882,-9.3921537399292,-2.9409027099609375
1761399272282347000,1.025346923828125,-0.6913257241249084,-9.44991397857666,-2.9087305068969727
1761399272292416300,1.035416259765625,-0.7068880796432495,-9.558775901794434,-2.8849382400512695
1761399272302490000,1.045489990234375,-0.7453449368476868,-9.606734275817871,-2.9135937690734863
1761399272312587300,1.055587158203125,-0.7509563565254211,-9.616311073303223,-2.940603494644165
1761399272322658000,1.065657958984375,-0.7197569012641907,-9.621996879577637,-3.035473585128784
1761399272332742100,1.0757421875,-0.7161656022071838,-9.658733367919922,-3.220350980758667
1761399272342830600,1.08583056640625,-0.8070704340934753,-9.648483276367188,-3.5072062015533447
1761399272352912600,1.09591259765625,-0.8773252964019775,-9.650802612304688,-3.750142812728882
1761399272362980000,1.10597998046875,-0.8723872303962708,-9.841365814208984,-4.023231506347656
1761399272373072000,1.11607177734375,-0.844704270362854,-10.336517333984375,-4.315473556518555
1761399272383142100,1.12614208984375,-0.6017676591873169,-10.779219627380371,-4.210577964782715
1761399272393225000,1.136224853515625,-0.21719898283481598,-10.874987602233887,-4.0816650390625
1761399272403316000,1.14631591796875,0.17470189929008484,-10.62344741821289,-4.094234466552734
1761399272413385700,1.1563857421875,0.4561702311038971,-10.28361988067627,-4.294748783111572
1761399272423477500,1.1664775390625,0.6448632478713989,-10.003947257995605,-4.494739532470703
1761399272433542100,1.176542236328125,0.7888146638870239,-9.952771186828613,-4.757204055786133
1761399272443624000,1.1866240234375,1.0814310312271118,-10.02684211730957,-4.790273666381836
1761399272453719300,1.19671923828125,1.530643105506897,-9.9139404296875,-4.647669315338135
1761399272463799300,1.20679931640625,1.7510592937469482,-9.758466720581055,-4.4654107093811035
1761399272473880300,1.21688037109375,1.5310919284820557,-9.71821403503418,-4.326322555541992
1761399272483956700,1.226956787109375,0.8541314601898193,-9.60636043548584,-4.175263404846191
1761399272494041600,1.23704150390625,1.0878653526306152,-9.337311744689941,-3.341557502746582
1761399272504107800,1.247107666015625,1.741856575012207,-9.359981536865234,-2.943970203399658
1761399272514178000,1.257177978515625,2.355071544647217,-9.591845512390137,-2.297161817550659
1761399272524275000,1.26727490234375,2.381632089614868,-10.06971263885498,-1.6801310777664185
1761399272534365000,1.277364990234375,2.0614075660705566,-10.666093826293945,-0.7870938181877136
1761399272544445700,1.28744580078125,1.7755249738693237,-10.988188743591309,-0.16901567578315735
1761399272554513700,1.297513671875,1.5147066116333008,-11.24870777130127,-0.1298106163740158
1761399272564594200,1.30759423828125,1.5238345861434937,-11.540276527404785,-0.6417208909988403
1761399272574700500,1.317700439453125,1.616834282875061,-11.681609153747559,-1.6231939792633057
1761399272584768300,1.327768310546875,1.6710779666900635,-11.668665885925293,-2.5026142597198486
1761399272594836200,1.337836181640625,1.8037316799163818,-11.621679306030273,-3.109469413757324
1761399272604929800,1.3479296875,1.7609353065490723,-10.835783004760742,-2.9740474224090576
1761399272615010600,1.358010498046875,1.2172271013259888,-9.450213432312012,-2.3662195205688477
1761399272625085400,1.36808544921875,0.5676502585411072,-8.352770805358887,-2.1041293144226074
1761399272635169800,1.378169677734375,0.09861118346452713,-8.004714012145996,-2.011578321456909
1761399272645260000,1.388260009765625,0.1396867036819458,-8.019977569580078,-1.9340660572052002
1761399272655333000,1.3983330078125,0.4899883270263672,-8.452205657958984,-2.1036055088043213
1761399272665414000,1.408413818359375,1.1290905475616455,-9.084199905395508,-2.1797709465026855
1761399272675481900,1.41848193359375,1.8556559085845947,-9.666664123535156,-2.1413140296936035
1761399272685573000,1.428572998046875,2.2135891914367676,-9.88154411315918,-2.009408712387085
1761399272695641300,1.438641357421875,2.266411066055298,-9.830068588256836,-1.787346363067627
1761399272705736700,1.44873681640625,2.3942017555236816,-9.455451011657715,-1.241917371749878
1761399272715817500,1.4588173828125,2.459144353866577,-8.851438522338867,-1.1709142923355103
1761399272725898000,1.46889794921875,2.0697126388549805,-8.565855026245117,-0.8022072315216064
1761399272735979000,1.47897900390625,1.5285481214523315,-8.28199291229248,-0.4373907148838043
1761399272746051800,1.4890517578125,1.1649287939071655,-8.091504096984863,-0.571391224861145
1761399272756138200,1.49913818359375,1.2440871000289917,-7.893533229827881,-0.8670750856399536
1761399272766219000,1.509218994140625,1.43764328956604,-7.601964473724365,-1.1067945957183838
1761399272776300800,1.51930078125,1.6283564567565918,-7.2801690101623535,-1.6677111387252808
1761399272786369500,1.52936962890625,1.7840543985366821,-7.189114570617676,-1.6219968795776367
1761399272796450300,1.5394501953125,1.965714454650879,-6.896872043609619,-1.974692702293396
1761399272806544100,1.549544189453125,2.154407501220703,-6.6000657081604,-2.26977801322937
1761399272816622600,1.55962255859375,2.195183753967285,-6.464344501495361,-2.4129064083099365
1761399272826711300,1.569711181640625,2.5497500896453857,-6.338499546051025,-2.3798365592956543
1761399272836773400,1.5797734375,2.9170355796813965,-6.013411521911621,-2.543091058731079
1761399272846857700,1.589857666015625,3.144110679626465,-5.809979438781738,-2.4758291244506836
1761399272856947200,1.599947265625,3.2317233085632324,-5.614851951599121,-2.3756465911865234
1761399272867015000,1.610014892578125,3.3127522468566895,-5.479878902435303,-2.3440730571746826
1761399272877096400,1.620096435546875,3.442338228225708,-5.516390323638916,-2.364274263381958
1761399272887189800,1.630189697265625,3.5907788276672363,-5.8086323738098145,-2.54496169090271
1761399272897259000,1.640259033203125,3.91092848777771,-6.31141471862793,-2.915090322494507
1761399272907332600,1.65033251953125,4.350489139556885,-6.919018268585205,-3.377694845199585
1761399272917405700,1.66040576171875,4.848483085632324,-7.741426944732666,-3.972728729248047
1761399272927499800,1.670499755859375,5.280935764312744,-8.822932243347168,-4.55848503112793
1761399272937575000,1.680574951171875,5.525967121124268,-10.152313232421875,-5.305251598358154
1761399272947671600,1.690671630859375,5.599514007568359,-11.561824798583984,-6.301089763641357
1761399272957754600,1.700754638671875,5.528136730194092,-12.545167922973633,-7.18088436126709
1761399272967821300,1.7108212890625,5.309890270233154,-12.446331977844238,-7.407585144042969
1761399272977890600,1.720890625,5.175291538238525,-11.10842227935791,-6.614730358123779
1761399272987979000,1.73097900390625,5.13503885269165,-9.54658031463623,-5.447482109069824
1761399272998077400,1.741077392578125,5.041515350341797,-8.284760475158691,-4.3733086585998535
1761399273008155600,1.75115576171875,5.020267009735107,-7.105018138885498,-3.381884813308716
1761399273018213000,1.761213134765625,5.3226094245910645,-6.429479122161865,-2.640430450439453
1761399273028309500,1.7713095703125,4.785336017608643,-8.39145278930664,-2.6482114791870117
1761399273038388500,1.781388427734375,3.9066638946533203,-13.200430870056152,-3.607762575149536
1761399273048480500,1.79148046875,4.247912406921387,-16.684518814086914,-3.662081241607666
1761399273058561300,1.801561279296875,3.9403321743011475,-17.224037170410156,-2.8651859760284424
1761399273068623400,1.811623291015625,1.3306523561477661,-14.594380378723145,-2.718092203140259
1761399273078708000,1.8217080078125,0.6200982332229614,-10.486977577209473,-2.4788217544555664
1761399273088790000,1.8317900390625,0.8824129700660706,-6.694936275482178,-2.161590099334717
1761399273098874400,1.841874267578125,-0.24286183714866638,-4.840028285980225,-1.8480992317199707
1761399273108955100,1.851955078125,-1.1409868001937866,-4.803890705108643,-1.876455545425415
1761399273119032800,1.86203271484375,-1.172784686088562,-6.024035930633545,-1.4814122915267944
1761399273129126000,1.8721259765625,-1.6790087223052979,-7.060500621795654,-0.8590695261955261
1761399273139201000,1.882200927734375,-2.2263083457946777,-7.841010570526123,-0.8902689218521118
1761399273149287700,1.89228759765625,-2.1722891330718994,-9.243788719177246,-1.7391630411148071
1761399273159368000,1.902367919921875,-2.144007682800293,-11.731364250183105,-3.2158617973327637
1761399273169441000,1.91244091796875,-2.2129905223846436,-13.664831161499023,-4.628291130065918
1761399273179529200,1.922529296875,-1.537002682685852,-12.994604110717773,-4.580631732940674
1761399273189598000,1.932597900390625,-0.8081178665161133,-10.461539268493652,-3.706897497177124
1761399273199688700,1.942688720703125,-0.4412812888622284,-8.650176048278809,-3.051260471343994
1761399273209752300,1.95275244140625,0.021024083718657494,-7.968502044677734,-2.703502655029297
1761399273219839500,1.962839599609375,0.43267714977264404,-7.830685615539551,-2.1169979572296143
1761399273229912000,1.972912109375,0.7623288035392761,-8.15981388092041,-1.8539351224899292
1761399273240013600,1.983013671875,0.7627776861190796,-8.921693801879883,-1.8605191707611084
1761399273250094600,1.993094482421875,0.5952584147453308,-9.526453971862793,-1.7484406232833862
1761399273260173300,2.00317333984375,0.4614075720310211,-9.696666717529297,-1.3808557987213135
1761399273270264000,2.01326416015625,0.4692635238170624,-9.566706657409668,-1.1353753805160522
1761399273280321800,2.02332177734375,0.3440916836261749,-9.287332534790039,-1.098190426826477
1761399273290417400,2.03341748046875,0.15824176371097565,-8.992621421813965,-1.2085480690002441
1761399273300497000,2.043496826171875,0.08417115360498428,-8.734122276306152,-1.4330044984817505
1761399273310564900,2.05356494140625,0.1554734706878662,-8.562638282775879,-1.6407015323638916
1761399273320645400,2.063645263671875,0.23508067429065704,-8.393397331237793,-1.886705756187439
1761399273330725600,2.0737255859375,0.16572365164756775,-8.381277084350586,-2.286238193511963
1761399273340809500,2.0838095703125,0.06471826136112213,-8.483180046081543,-2.676118850708008
1761399273350890500,2.093890380859375,-0.023044191300868988,-8.759486198425293,-3.289034605026245
1761399273360982300,2.103982177734375,-0.08207622915506363,-8.89453411102295,-3.7853825092315674
1761399273371062500,2.1140625,-0.05544073134660721,-8.840964317321777,-4.029366493225098
1761399273381130800,2.124130859375,0.14664486050605774,-8.670676231384277,-4.2031707763671875
1761399273391211800,2.134211669921875,0.386139839887619,-8.576704025268555,-4.334028720855713
1761399273401301000,2.144301025390625,0.5197662115097046,-8.562638282775879,-4.344578266143799
1761399273411385600,2.154385498046875,0.599223792552948,-8.582465171813965,-4.241029262542725
1761399273421454000,2.1644541015625,0.554781436920166,-8.531289100646973,-4.053832530975342
1761399273431534800,2.174534912109375,0.295833557844162,-8.446294784545898,-3.8867619037628174
1761399273441615000,2.184614990234375,0.0627729743719101,-8.340874671936035,-3.7440078258514404
1761399273451708700,2.194708740234375,-0.15480010211467743,-8.284611701965332,-3.6652984619140625
1761399273461786400,2.204786376953125,0.17978958785533905,-8.871489524841309,-3.84269380569458
1761399273471857200,2.214857177734375,0.0727238729596138,-8.947356224060059,-3.4748096466064453
1761399273481951000,2.224950927734375,0.08334814757108688,-9.459566116333008,-3.518728256225586
1761399273492008700,2.2350087890625,-0.6288520693778992,-9.688960075378418,-3.318213939666748
1761399273502111700,2.24511181640625,-0.851138710975647,-9.540295600891113,-2.9274353981018066
1761399273512193300,2.255193359375,-0.75581955909729,-9.699958801269531,-2.8197710514068604
1761399273522261000,2.265260986328125,-0.5219359993934631,-10.002001762390137,-2.719813108444214
1761399273532341500,2.275341552734375,-0.2397942692041397,-10.062979698181152,-2.6728270053863525
1761399273542434300,2.285434326171875,0.2445826679468155,-10.159345626831055,-2.693551778793335
1761399273552503300,2.29550341796875,0.14267945289611816,-10.09941577911377,-2.927734613418579
1761399273562586600,2.305586669921875,-0.22049100697040558,-9.95284652709961,-3.3185131549835205
1761399273572661500,2.31566162109375,-0.3406500220298767,-9.99220085144043,-3.701211452484131
1761399273582747000,2.325746826171875,-0.3811269700527191,-10.183587074279785,-3.8367083072662354
1761399273592825600,2.33582568359375,-0.26485857367515564,-10.289680480957031,-3.8150856494903564
1761399273602918700,2.345918701171875,0.017732055857777596,-10.235286712646484,-3.8593783378601074
1761399273612988700,2.35598876953125,0.37080198526382446,-10.11213493347168,-4.004900932312012
1761399273623062300,2.366062255859375,0.6771101951599121,-9.844433784484863,-4.139350414276123
1761399273633147100,2.376147216796875,0.5944353938102722,-9.342249870300293,-4.343156814575195
1761399273643229000,2.38622900390625,0.05529109388589859,-8.827047348022461,-4.779275417327881
1761399273653320700,2.39632080078125,-0.6820482015609741,-8.732925415039062,-5.43491268157959
1761399273663403800,2.40640380859375,-1.3836989402770996,-9.04791259765625,-6.248043537139893
1761399273673473000,2.41647314453125,-1.394547700881958,-9.266907691955566,-6.900313854217529
1761399273683564500,2.426564453125,-0.711227536201477,-9.655516624450684,-7.29730224609375
1761399273693645600,2.4366455078125,-0.11499650031328201,-10.024746894836426,-7.035810470581055
1761399273703713500,2.446713623046875,0.7173627018928528,-11.217358589172363,-6.3972320556640625
1761399273713806800,2.456806884765625,1.6131682395935059,-11.83491325378418,-4.617517471313477
1761399273723885800,2.4668857421875,2.558803081512451,-12.33013916015625,-2.841992139816284
1761399273733956000,2.4769560546875,2.7462990283966064,-12.758476257324219,-1.4435540437698364
1761399273744049000,2.487048828125,2.4542064666748047,-13.411495208740234,-0.47996261715888977
1761399273754130000,2.4971298828125,1.2795511484146118,-13.821950912475586,0.28236615657806396
1761399273764210700,2.507210693359375,0.0065092360600829124,-13.754539489746094,0.8999953866004944
1761399273774278400,2.5172783203125,-1.1097124814987183,-13.38515853881836,0.7251438498497009
1761399273784359000,2.52735888671875,-1.8524386882781982,-12.344204902648926,-0.32209494709968567
1761399273794452500,2.537452392578125,-1.7038486003875732,-10.98048210144043,-2.1289689540863037
1761399273804540000,2.547539794921875,-0.4651485085487366,-10.360084533691406,-4.084134101867676
1761399273814613800,2.55761376953125,0.9306710958480835,-10.274492263793945,-5.250035285949707
1761399273824704300,2.567704345703125,1.7398364543914795,-10.264242172241211,-5.566967964172363
1761399273834762500,2.577762451171875,2.077643394470215,-10.157699584960938,-5.750722885131836
1761399273844854000,2.58785400390625,1.7036241292953491,-9.639430046081543,-5.540556907653809
1761399273854921500,2.59792138671875,1.4480431079864502,-8.854880332946777,-5.20521879196167
1761399273865007000,2.608007080078125,1.0948983430862427,-8.7298583984375,-3.997194528579712
1761399273875109600,2.618109619140625,0.8008604645729065,-8.51490306854248,-3.3984196186065674
1761399273885178400,2.628178466796875,0.4455459713935852,-8.076539993286133,-2.9174845218658447
1761399273895260200,2.63826025390625,0.2215384691953659,-7.628150939941406,-2.423007011413574
1761399273905327000,2.6483271484375,-0.22505496442317963,-7.247547626495361,-1.9987095594406128
1761399273915419000,2.6584189453125,-0.4247463345527649,-7.021295547485352,-1.4570213556289673
1761399273925471000,2.668470947265625,-0.26328736543655396,-6.934281349182129,-1.01521635055542
1761399273935570000,2.67856982421875,0.04085106775164604,-6.883629322052002,-0.7246949076652527
1761399273945661700,2.68866162109375,0.3777601420879364,-6.843900203704834,-0.7128735780715942
1761399273955742700,2.69874267578125,0.833331823348999,-6.628796100616455,-1.2650363445281982
1761399273965822200,2.708822265625,1.3085060119628906,-7.031171798706055,-0.798840343952179
1761399273975892200,2.718892333984375,1.6850690841674805,-7.24021577835083,-0.7879916429519653
1761399273985985800,2.72898583984375,1.6064344644546509,-7.563432693481445,-0.6801777482032776
1761399273996066600,2.739066650390625,1.771933674812317,-7.764695167541504,-0.6537666916847229
1761399274006134300,2.74913427734375,2.1657798290252686,-7.639298915863037,-0.5490952134132385
1761399274016214800,2.75921484375,2.367266893386841,-7.201534271240234,-0.8581717014312744
1761399274026295600,2.769295654296875,2.414851665496826,-6.573729515075684,-1.0225485563278198
1761399274036378600,2.779378662109375,2.4467244148254395,-6.049549102783203,-0.7327753305435181
1761399274046467800,2.7894677734375,2.5375545024871826,-5.708375453948975,-0.48130935430526733
1761399274056548900,2.799548828125,2.7563247680664062,-5.559485912322998,-0.6167314052581787
1761399274066620400,2.809620361328125,3.07879376411438,-5.695356845855713,-1.0959458351135254
1761399274076725000,2.81972509765625,3.3040730953216553,-5.98954439163208,-1.9422212839126587
1761399274086781200,2.82978125,3.4992005825042725,-6.390498638153076,-2.9425487518310547
1761399274096871200,2.83987109375,3.4745852947235107,-6.937049865722656,-3.951555013656616
1761399274106954800,2.849954833984375,3.48311448097229,-7.72623872756958,-4.950460910797119
1761399274117034800,2.86003466796875,4.049867153167725,-8.84403133392334,-5.948917865753174
1761399274127104800,2.870104736328125,4.329838752746582,-10.072481155395508,-6.550086975097656
1761399274137184000,2.88018408203125,4.81593656539917,-11.01160717010498,-7.044863700866699
1761399274147265500,2.890265625,5.515417575836182,-11.410989761352539,-7.727210998535156
1761399274157355800,2.900355712890625,5.999719619750977,-11.078121185302734,-8.15876579284668
1761399274167426800,2.9104267578125,5.6466498374938965,-10.300827980041504,-7.870489120483398
1761399274177519000,2.92051904296875,5.0178728103637695,-9.479018211364746,-7.0964884757995605
1761399274187600000,2.930599853515625,4.769773483276367,-8.775123596191406,-6.217517375946045
1761399274197676300,2.94067626953125,4.407276630401611,-7.98256778717041,-5.483619689941406
1761399274207762700,2.9507626953125,4.090643405914307,-7.019425392150879,-4.910507678985596
1761399274217816300,2.96081640625,3.922675132751465,-5.888688564300537,-4.557138442993164
1761399274227921000,2.9709208984375,4.422240257263184,-5.107954502105713,-4.488604545593262
1761399274238003500,2.98100341796875,4.651185512542725,-6.512303352355957,-4.642207622528076
1761399274248058400,2.991058349609375,3.706972360610962,-11.326594352722168,-5.909637928009033
1761399274278325800,3.02132568359375,-0.35568860173225403,-19.538930892944336,-4.774636745452881
1761399274288378400,3.03137841796875,-0.5943605899810791,-15.318177223205566,-3.6221280097961426
1761399274298487600,3.041487548828125,1.0586860179901123,-10.067768096923828,-1.8163012266159058
1761399274308567800,3.05156787109375,1.1199626922607422,-5.571083068847656,-0.006284779403358698
1761399274318644500,3.06164453125,0.01189618930220604,-2.8208184242248535,1.1861025094985962
1761399274328729900,3.071729736328125,-1.4517840147018433,-2.223839282989502,1.6339678764343262
1761399274338798000,3.081798095703125,-2.6081833839416504,-3.0983214378356934,0.9675567746162415
1761399274348878000,3.091878173828125,-3.18593430519104,-4.816984176635742,-0.237250417470932
1761399274358957000,3.10195703125,-3.7470004558563232,-7.8838067054748535,-1.807771921157837
1761399274369040000,3.112039794921875,-3.933748245239258,-12.270657539367676,-3.5995326042175293
1761399274379122200,3.1221220703125,-3.1535377502441406,-16.092178344726562,-5.4467339515686035
1761399274389201400,3.132201416015625,-1.2547861337661743,-17.0505313873291,-5.924975872039795
1761399274399283200,3.142283203125,0.2166004329919815,-13.321712493896484,-4.307243824005127
1761399274409375200,3.152375244140625,0.5538088083267212,-9.470788955688477,-2.9391069412231445
1761399274419454000,3.162453857421875,0.8500912189483643,-7.43953275680542,-1.5884032249450684
1761399274429505500,3.172505615234375,0.9944915175437927,-6.761674404144287,-0.6295254230499268
1761399274439605000,3.18260498046875,0.7481880187988281,-7.259518623352051,-0.5653308629989624
1761399274449698300,3.1926982421875,0.7896376252174377,-8.45362663269043,-0.7651718854904175
1761399274459765800,3.202765869140625,0.9489268660545349,-9.637933731079102,-1.0016741752624512
1761399274469859300,3.212859375,0.8103624582290649,-10.453084945678711,-1.2246341705322266
1761399274479938000,3.22293798828125,0.5874024033546448,-10.479196548461914,-1.4613608121871948
1761399274490007800,3.2330078125,0.5439326763153076,-10.133907318115234,-1.746794581413269
1761399274500113200,3.243113037109375,0.47637131810188293,-9.652149200439453,-2.078166961669922
1761399274510182100,3.25318212890625,0.5556792616844177,-9.121833801269531,-2.213364601135254
1761399274520248000,3.263248046875,0.6548141837120056,-8.562338829040527,-2.252943754196167
1761399274530343400,3.273343505859375,0.6015431880950928,-8.12442398071289,-2.324021577835083
1761399274540412000,3.283411865234375,0.3801543414592743,-7.908796310424805,-2.4410383701324463
1761399274550505000,3.2935048828125,0.0950198769569397,-7.984512805938721,-2.856731653213501
1761399274560572700,3.30357275390625,-0.08170213550329208,-8.214879989624023,-3.4264018535614014
1761399274570665000,3.3136650390625,-0.13602058589458466,-8.420332908630371,-4.124087333679199
1761399274580747800,3.323747802734375,-0.018480245023965836,-8.359953880310059,-4.4077253341674805
1761399274590804500,3.333804443359375,0.18315643072128296,-8.129437446594238,-4.510002613067627
1761399274600900600,3.343900634765625,0.38890814781188965,-7.8867998123168945,-4.521225452423096
1761399274610962000,3.3539619140625,0.4676923453807831,-7.8372697830200195,-4.3815388679504395
1761399274621033000,3.364032958984375,0.49155953526496887,-8.02768325805664,-4.086004257202148
1761399274631125500,3.37412548828125,0.44659343361854553,-8.337657928466797,-3.703381061553955
1761399274641206000,3.3842060546875,0.36010289192199707,-8.696863174438477,-3.396998167037964
1761399274651287000,3.394287109375,0.23762452602386475,-8.91653060913086,-3.159672975540161
1761399274661367300,3.4043671875,0.07556699216365814,-8.975189208984375,-3.1593735218048096
1761399274671442700,3.414442626953125,0.017582418397068977,-8.920271873474121,-3.1768064498901367
1761399274681527800,3.42452783203125,-0.05768529698252678,-8.831985473632812,-3.120093822479248
1761399274691618600,3.43461865234375,-0.04115034267306328,-8.770110130310059,-2.966789960861206
1761399274701699300,3.44469921875,-0.006359598133713007,-8.961197853088379,-2.8507461547851562
1761399274711796000,3.4547958984375,-0.07796119153499603,-9.329306602478027,-2.8028619289398193
1761399274721877000,3.464876953125,-0.2305167317390442,-9.817573547363281,-3.1245827674865723
1761399274731946200,3.4749462890625,-0.47719433903694153,-10.265888214111328,-3.6115036010742188
1761399274742036700,3.48503662109375,-0.5419126152992249,-10.449044227600098,-4.099920749664307
1761399274752119300,3.495119384765625,-0.22011691331863403,-10.455778121948242,-4.473715305328369
1761399274762187300,3.505187255859375,0.29291561245918274,-10.597859382629395,-4.656722068786621
1761399274772280600,3.515280517578125,0.6210708618164062,-10.937910079956055,-4.575618743896484
1761399274782360800,3.52536083984375,0.7161656022071838,-11.233593940734863,-4.315548419952393
1761399274792442000,3.535442138671875,0.7628524899482727,-11.314698219299316,-4.206313133239746
1761399274802520600,3.5455205078125,0.8369231224060059,-11.172542572021484,-4.491447448730469
1761399274812603000,3.555602783203125,0.9538649320602417,-10.77996826171875,-4.984354019165039
1761399274822684200,3.56568408203125,0.6446388363838196,-10.215459823608398,-5.729474067687988
1761399274832731400,3.5757314453125,0.19108721613883972,-10.027889251708984,-6.778957843780518
1761399274842845400,3.585845458984375,-0.3999813199043274,-10.293196678161621,-7.593510150909424
1761399274852908000,3.595907958984375,-0.83714759349823,-10.264690399169922,-7.607276439666748
1761399274863007000,3.606007080078125,-1.1491420269012451,-10.041207313537598,-7.71471643447876
1761399274873085700,3.616085693359375,-1.741856575012207,-9.539397239685059,-7.638102054595947
1761399274883168500,3.62616845703125,-1.2840403318405151,-9.117568969726562,-6.677204132080078
1761399274893236200,3.636236328125,0.0934486836194992,-9.816750526428223,-4.963554382324219
1761399274903329500,3.64632958984375,1.5491981506347656,-11.351808547973633,-2.83174204826355
1761399274913410600,3.65641064453125,2.483086347579956,-13.013833045959473,-1.0082582235336304
1761399274923490800,3.66649072265625,2.360234022140503,-14.307150840759277,-0.02925415150821209
1761399274933557500,3.6765576171875,1.590348482131958,-14.460229873657227,0.4298340380191803
1761399274943640000,3.68664013671875,1.1536310911178589,-13.554248809814453,0.6441150903701782
1761399274953733400,3.6967333984375,0.7686135768890381,-12.35445499420166,0.5376479029655457
1761399274963801000,3.706801025390625,0.6180781126022339,-11.301230430603027,0.04601356387138367
1761399274973895000,3.71689501953125,0.7190086841583252,-10.707992553710938,-0.8343793153762817
1761399274983960300,3.726960205078125,1.0069862604141235,-10.539949417114258,-2.0708348751068115
1761399274994043100,3.737043212890625,1.0854711532592773,-10.420014381408691,-3.1377508640289307
1761399275004121900,3.747121826171875,0.7749731540679932,-10.320056915283203,-3.740266799926758
1761399275014217500,3.757217529296875,0.4861725866794586,-10.173860549926758,-3.9041199684143066
1761399275034379800,3.7773798828125,0.9794529676437378,-10.190694808959961,-4.088623046875
1761399275044447700,3.78744775390625,1.2081739902496338,-10.146102905273438,-3.734879732131958
1761399275054540300,3.797540283203125,1.3410521745681763,-9.833884239196777,-3.142913579940796
1761399275064614100,3.8076142578125,1.374197006225586,-9.24259090423584,-3.296591281890869
1761399275074701300,3.817701416015625,1.7625813484191895,-8.576105117797852,-2.840869903564453
1761399275084761900,3.827761962890625,1.7417817115783691,-7.961094856262207,-2.6262147426605225
1761399275094863000,3.837863037109375,1.226354956626892,-7.537321090698242,-2.2682816982269287
1761399275104943900,3.84794384765625,0.8299649953842163,-7.472228527069092,-2.06933856010437
1761399275115036700,3.85803662109375,0.7782651782035828,-7.521309852600098,-1.7711855173110962
1761399275125102800,3.868102783203125,0.9716718196868896,-7.559018611907959,-1.515454888343811
1761399275135174000,3.878173828125,1.2678794860839844,-7.561263084411621,-1.5286977291107178
1761399275145254700,3.888254638671875,1.583016276359558,-7.547122478485107,-1.449315071105957
1761399275155347000,3.898346923828125,1.7163434028625488,-7.610344409942627,-1.2687023878097534
1761399275165428700,3.9084287109375,1.7080384492874146,-8.10362434387207,-0.8309376239776611
1761399275175507000,3.9185068359375,1.6848446130752563,-8.122777938842773,-0.741678774356842
1761399275185574100,3.92857421875,1.706018328666687,-7.939696788787842,-0.689530074596405
1761399275195666400,3.93866650390625,1.762207269668579,-7.589020729064941,-0.20545242726802826
1761399275205751300,3.948751220703125,1.8439842462539673,-7.169063091278076,0.2712181508541107
1761399275215818800,3.95881884765625,1.9753659963607788,-6.695384979248047,0.7059902548789978
1761399275225912300,3.968912353515625,2.028562307357788,-6.34605598449707,0.941594660282135
1761399275235993300,3.978993408203125,1.9290531873703003,-6.193126201629639,0.7824550271034241
1761399275246071800,3.98907177734375,1.7732056379318237,-6.174496650695801,0.4357447028160095
1761399275256130000,3.999130126953125,1.749413251876831,-6.218639850616455,0.031124621629714966
1761399275266234600,4.009234619140625,1.80919349193573,-6.206444263458252,-0.3833715617656708
1761399275276315600,4.019315673828125,1.9089269638061523,-6.171952724456787,-0.6845172047615051
1761399275286394000,4.02939404296875,2.0422539710998535,-6.163049221038818,-0.8599673509597778
1761399275296477200,4.039477294921875,2.2584803104400635,-6.349048614501953,-1.247977614402771
1761399275306558000,4.049557861328125,2.572420120239258,-6.726210594177246,-1.7298855781555176
1761399275316636400,4.059636474609375,2.9326727390289307,-7.049203395843506,-2.2562358379364014
1761399275326718200,4.06971826171875,3.488351821899414,-7.08414363861084,-2.8022634983062744
1761399275336800000,4.079800048828125,4.045228004455566,-6.938022613525391,-3.314772367477417
1761399275346880800,4.089880859375,4.3948564529418945,-6.6956095695495605,-3.8709752559661865
1761399275356966000,4.0999658203125,4.514791011810303,-6.666654586791992,-4.579209804534912
1761399275367042000,4.1100419921875,4.573374271392822,-7.194576263427734,-5.539509296417236
1761399275377120500,4.12012060546875,5.018321514129639,-8.396016120910645,-6.686331748962402
1761399275387190500,4.1301904296875,5.5254435539245605,-9.939678192138672,-7.751377582550049
1761399275397272000,4.14027197265625,5.780201435089111,-11.634398460388184,-8.653468132019043
1761399275407352000,4.15035205078125,5.827412128448486,-13.192276000976562,-9.436671257019043
1761399275417445400,4.1604453125,5.52469539642334,-13.721768379211426,-9.75173282623291
1761399275427538200,4.1705380859375,5.160327434539795,-12.460248947143555,-9.183484077453613
1761399275437605000,4.180605224609375,4.611382007598877,-10.666243553161621,-8.022296905517578
1761399275447675400,4.19067529296875,4.192770957946777,-9.103278160095215,-6.5365447998046875
1761399275457755600,4.200755615234375,4.722937107086182,-7.819088459014893,-5.174992084503174
1761399275467853600,4.210853515625,6.229862689971924,-7.484274387359619,-4.270283222198486
1761399275477929500,4.220929443359375,5.713388442993164,-10.25466537475586,-5.047126770019531
1761399275488010800,4.2310107421875,4.592078685760498,-14.15137767791748,-6.925527572631836
1761399275498091300,4.24109130859375,4.034529209136963,-16.581119537353516,-6.355632781982422
1761399275508170200,4.251170166015625,1.454253077507019,-16.283414840698242,-4.829853057861328
1761399275518239500,4.261239501953125,-2.382829189300537,-13.073163986206055,-3.3977463245391846
1761399275528346000,4.27134619140625,-1.8314146995544434,-9.164031028747559,-1.5985037088394165
1761399275538402000,4.281402099609375,0.7630021572113037,-6.112621307373047,0.889445960521698
1761399275548469200,4.29146923828125,1.1458499431610107,-4.039766311645508,2.2905027866363525
1761399275558575600,4.30157568359375,-0.3737199306488037,-3.551798105239868,2.2973861694335938
1761399275568653800,4.31165380859375,-1.5539116859436035,-4.555342674255371,1.895684003829956
1761399275578725000,4.32172509765625,-2.009333848953247,-6.093019008636475,1.418414831161499
1761399275588817700,4.331817626953125,-2.4159739017486572,-8.294486999511719,0.22430677711963654
1761399275598898200,4.341898193359375,-3.451840400695801,-11.897012710571289,-2.0574421882629395
1761399275608979000,4.35197900390625,-4.297891139984131,-14.939294815063477,-4.095431804656982
1761399275619059700,4.362059814453125,-2.578181028366089,-15.807268142700195,-5.167510509490967
1761399275629127400,4.37212744140625,-0.04481646418571472,-13.408427238464355,-4.90339994430542
1761399275639219500,4.382219482421875,0.3984849452972412,-9.128717422485352,-3.757550001144409
1761399275649288400,4.392288330078125,0.22281040251255035,-7.319149494171143,-2.660781145095825
1761399275659382000,4.402382080078125,0.2801964282989502,-7.269844055175781,-1.7021278142929077
1761399275669450500,4.412450439453125,0.5345803499221802,-8.086565971374512,-1.1703904867172241
1761399275679544000,4.4225439453125,0.5683984756469727,-9.184906005859375,-1.3370120525360107
1761399275689624800,4.432624755859375,0.6866121292114258,-9.910049438476562,-1.3649194240570068
1761399275699690500,4.4426904296875,0.6034884452819824,-10.076372146606445,-1.646013617515564
1761399275709786000,4.4527861328125,0.44666826725006104,-9.828048706054688,-1.8249053955078125
1761399275719866600,4.46286669921875,0.24241292476654053,-9.53618049621582,-2.1826140880584717
1761399275729936000,4.472935791015625,0.15113398432731628,-9.164405822753906,-2.361356258392334
1761399275740028400,4.4830283203125,0.07586626708507538,-8.719308853149414,-2.2964882850646973
1761399275750108400,4.4931083984375,-0.2156277894973755,-8.305335998535156,-2.09904146194458
1761399275760188000,4.50318798828125,-0.680626630783081,-7.973814010620117,-1.8876783847808838
1761399275770270000,4.51327001953125,-1.0893617868423462,-7.992069721221924,-2.098517894744873
1761399275780350700,4.523350830078125,-1.2676550149917603,-8.294337272644043,-2.792462110519409
1761399275790431700,4.533431640625,-1.0868927240371704,-8.538620948791504,-3.5883846282958984
1761399275800500500,4.54350048828125,-0.6020669341087341,-8.568399429321289,-4.214094161987305
1761399275810590700,4.5535908203125,0.03292027488350868,-8.489540100097656,-4.706551551818848
1761399275820671500,4.56367138671875,0.4902127981185913,-8.289400100708008,-4.846911907196045
1761399275830750500,4.57375048828125,0.768538773059845,-8.14253044128418,-4.834716320037842
1761399275840835300,4.58383544921875,0.759635329246521,-8.15996265411377,-4.560879230499268
1761399275850915600,4.59391552734375,0.5778256058692932,-8.216301918029785,-4.208931922912598
1761399275871051800,4.6140517578125,-0.0243909303098917,-8.158317565917969,-3.656918525695801
1761399275881157600,4.62415771484375,-0.2899976670742035,-8.292542457580566,-3.6321535110473633
1761399275891224000,4.63422412109375,-0.35576340556144714,-8.451830863952637,-3.491419553756714
1761399275901319400,4.6443193359375,-0.06733692437410355,-8.783428192138672,-3.304147958755493
1761399275911407000,4.654406982421875,0.08057985454797745,-9.350629806518555,-3.154959201812744
1761399275921480700,4.664480712890625,-0.29231706261634827,-9.424699783325195,-2.794407367706299
1761399275931549000,4.674548828125,-0.18966566026210785,-9.788843154907227,-2.907458782196045
1761399275941609200,4.684609130859375,-0.3255366086959839,-9.78525161743164,-2.9168858528137207
1761399275951723300,4.69472314453125,-0.3321206569671631,-9.75405216217041,-3.2283565998077393
1761399275961799400,4.70479931640625,-0.36810851097106934,-9.605387687683105,-3.443610191345215
1761399275971884300,4.71488427734375,-0.17874212563037872,-9.476175308227539,-3.131241798400879
1761399275981952300,4.7249521484375,0.10190320760011673,-9.747169494628906,-2.94696307182312
1761399275992045600,4.735045654296875,-0.31610944867134094,-10.123433113098145,-3.4688241481781006
1761399276002129200,4.745129150390625,-0.828244149684906,-10.26394271850586,-3.9885904788970947
1761399276012207000,4.75520703125,-0.9501239657402039,-10.304045677185059,-4.214992046356201
1761399276022279000,4.76527880859375,-0.6530185341835022,-10.38148307800293,-4.154613494873047
1761399276032368000,4.7753681640625,-0.1387888789176941,-10.487576484680176,-3.8010196685791016
1761399276042448600,4.78544873046875,0.2985270321369171,-10.474183082580566,-3.4728643894195557
1761399276052543000,4.79554296875,0.3577086925506592,-10.212841033935547,-3.8743419647216797
1761399276062610200,4.805610107421875,-0.20552724599838257,-9.86889934539795,-5.109076976776123
1761399276072691500,4.81569140625,-0.7514052391052246,-9.6942720413208,-6.610690116882324
1761399276082770000,4.82577001953125,-0.6601263284683228,-9.546430587768555,-7.822455406188965
1761399276092852700,4.835852783203125,-0.2347813993692398,-9.126472473144531,-8.34416675567627
1761399276102921200,4.845921142578125,-0.5600935816764832,-8.873510360717773,-8.580070495605469
1761399276113014000,4.856013916015625,-1.127594232559204,-8.841038703918457,-8.041375160217285
1761399276123105800,4.866105712890625,-0.7386112213134766,-9.322497367858887,-6.799158573150635
1761399276133175800,4.87617578125,0.4661959707736969,-10.532841682434082,-5.023035049438477
1761399276143243800,4.886243896484375,1.9457378387451172,-11.6552734375,-2.8813469409942627
1761399276153334800,4.896334716796875,2.630479574203491,-12.89950942993164,-1.3796586990356445
1761399276163417300,4.906417236328125,2.4343793392181396,-13.915773391723633,-0.18465280532836914
1761399276173485300,4.9164853515625,1.866280198097229,-14.432846069335938,0.8078934550285339
1761399276183579000,4.926578857421875,0.6648398637771606,-14.278345108032227,1.3943980932235718
1761399276193659400,4.936659423828125,-0.38546648621559143,-14.007801055908203,1.2895020246505737
1761399276203740400,4.946740478515625,-0.8521861433982849,-13.13533878326416,0.6217442750930786
1761399276213819400,4.9568193359375,-0.9145850539207458,-11.669938087463379,-0.7190086841583252
1761399276223897300,4.9668974609375,-0.3097498416900635,-10.690858840942383,-2.6396822929382324
1761399276233982700,4.976982666015625,1.0869675874710083,-10.619107246398926,-4.281356334686279
1761399276244063000,4.98706298828125,1.9666870832443237,-10.7041015625,-5.323657035827637
1761399276254157600,4.997157470703125,1.9283050298690796,-10.526107788085938,-5.738302707672119
1761399276264211500,5.00721142578125,1.6850690841674805,-9.899275779724121,-5.647622585296631
1761399276274303700,5.0173037109375,1.2713210582733154,-9.051728248596191,-5.316624164581299
1761399276284384300,5.02738427734375,1.1447277069091797,-8.713622093200684,-4.741791248321533
1761399276294454300,5.037454345703125,1.1210849285125732,-8.395418167114258,-3.951031446456909
1761399276304534500,5.047534423828125,0.8631097078323364,-8.076016426086426,-3.1950621604919434
1761399276314628900,5.05762890625,0.6430675983428955,-7.773224830627441,-2.373626470565796
1761399276324708600,5.06770849609375,0.2948608994483948,-7.476044654846191,-1.7606360912322998
1761399276334790000,5.077789794921875,0.02454056777060032,-7.486444473266602,-0.9437643885612488
1761399276344867800,5.087867919921875,-0.08544307202100754,-7.214552879333496,-0.905756413936615
1761399276354951200,5.097951171875,0.15180735290050507,-6.878017902374268,-0.7712322473526001
1761399276365031200,5.10803125,0.4348468780517578,-6.639345645904541,-0.6495020389556885
1761399276375112400,5.118112548828125,0.6565349698066711,-6.529062747955322,-0.6315455436706543
1761399276385184000,5.12818408203125,1.1991957426071167,-6.45357084274292,-0.6218190789222717
1761399276395274000,5.13827392578125,1.6606781482696533,-6.3115644454956055,-0.6034136414527893
1761399276405339600,5.148339599609375,2.0544495582580566,-6.075361728668213,-0.6395511031150818
1761399276415435300,5.158435302734375,2.384550094604492,-5.846640586853027,-0.7522282600402832
1761399276425515000,5.168514892578125,2.5050084590911865,-6.12369441986084,-0.386813223361969
1761399276435594800,5.1785947265625,2.2801778316497803,-5.944204330444336,-0.8966285586357117
1761399276445652500,5.188652587890625,2.0294599533081055,-5.678747177124023,-1.2856862545013428
1761399276455734800,5.19873486328125,1.8828151226043701,-5.36129093170166,-1.236605167388916
1761399276465836800,5.2088369140625,1.7846529483795166,-5.037774562835693,-1.0861445665359497
1761399276475917300,5.218917236328125,1.8981530666351318,-4.728174209594727,-0.9118167757987976
1761399276486000000,5.229000244140625,2.2560861110687256,-4.642731189727783,-1.1365724802017212
1761399276496084200,5.239084228515625,2.6687867641448975,-4.9455976486206055,-1.8430116176605225
1761399276506162000,5.249161865234375,3.1972320079803467,-5.523498058319092,-2.8173768520355225
1761399276516242000,5.259241943359375,3.7502176761627197,-6.433594226837158,-3.9665937423706055
1761399276526321000,5.26932080078125,4.461071014404297,-7.912761688232422,-5.257966041564941
1761399276536411600,5.27941162109375,5.169530391693115,-9.949928283691406,-6.540060997009277
1761399276546484500,5.289484375,5.430572986602783,-12.135834693908691,-7.6810479164123535
1761399276556565200,5.299565185546875,6.02463436126709,-14.175918579101562,-9.194258689880371
1761399276566642400,5.309642333984375,6.862679958343506,-15.084742546081543,-10.547057151794434
1761399276576726500,5.3197265625,6.752920627593994,-13.479355812072754,-10.2869873046875
1761399276586807300,5.329807373046875,6.206967830657959,-11.248408317565918,-9.090559005737305
1761399276596886500,5.339886474609375,5.739724636077881,-9.459864616394043,-7.775394439697266
1761399276606957800,5.349957763671875,4.760869979858398,-7.451952934265137,-6.5260701179504395
1761399276617049300,5.36004931640625,3.4346320629119873,-5.3256025314331055,-5.183446884155273
1761399276627113500,5.370113525390625,3.282226085662842,-3.6198084354400635,-4.002806186676025
1761399276637210600,5.380210693359375,3.9479637145996094,-4.236689567565918,-2.9250411987304688
1761399276647291400,5.39029150390625,3.8061821460723877,-9.209221839904785,-3.4139819145202637
1761399276657352000,5.40035205078125,4.237362861633301,-15.938275337219238,-3.6973955631256104
1761399276667452700,5.41045263671875,4.409820079803467,-21.121047973632812,-2.8273277282714844
1761399276677533200,5.420533203125,1.0958709716796875,-21.540557861328125,-3.1814451217651367
1761399276687614500,5.430614501953125,1.0095300674438477,-16.036663055419922,-3.146430015563965
1761399276697695000,5.440695068359375,2.6723780632019043,-8.548646926879883,-2.6559178829193115
1761399276707769900,5.450769775390625,1.246780514717102,-3.770568370819092,-1.128491997718811
1761399276717854500,5.4608544921875,-0.6698527336120605,-1.9424457550048828,0.31603461503982544
1761399276727937000,5.47093701171875,-1.9233670234680176,-2.471938371658325,0.1388636976480484
1761399276738018300,5.481018310546875,-2.562469244003296,-4.445284366607666,-0.8645312786102295
1761399276748098000,5.49109814453125,-2.8296470642089844,-6.774169445037842,-1.8387469053268433
1761399276758178800,5.5011787109375,-2.423830032348633,-9.520243644714355,-2.695347309112549
1761399276768259800,5.511259765625,-1.3967922925949097,-12.722039222717285,-3.868880271911621
1761399276778307600,5.5213076171875,0.06853402405977249,-15.217247009277344,-5.336825370788574
1761399276788419600,5.531419677734375,0.6119430065155029,-14.935105323791504,-5.518784523010254
1761399276798502000,5.541501953125,0.7272387742996216,-11.708768844604492,-4.1495256423950195
1761399276808560000,5.55156005859375,0.56233811378479,-8.966509819030762,-3.2986862659454346
1761399276818663000,5.561662841796875,0.8554033637046814,-7.642965316772461,-2.217255115509033
1761399276828743700,5.57174365234375,0.969427227973938,-7.227346897125244,-1.3917794227600098
1761399276838806800,5.581806884765625,0.8763526678085327,-7.699153900146484,-1.1672481298446655
1761399276848903200,5.591903076171875,0.8874258399009705,-8.707860946655273,-1.168146014213562
1761399276858973700,5.6019736328125,0.9920225143432617,-9.612569808959961,-1.327210783958435
1761399276869066500,5.61206640625,1.0001777410507202,-10.042628288269043,-1.4202853441238403
1761399276879139300,5.622139404296875,0.8930372595787048,-9.938481330871582,-1.4193874597549438
1761399276889235200,5.632235107421875,0.7445219159126282,-9.457021713256836,-1.3961188793182373
1761399276899309600,5.6423095703125,0.6249614357948303,-8.90957260131836,-1.4745290279388428
1761399276909378300,5.65237841796875,0.578798234462738,-8.578200340270996,-1.7295114994049072
1761399276919468300,5.66246826171875,0.5474491715431213,-8.399682998657227,-2.1034557819366455
1761399276929551400,5.67255126953125,0.40462008118629456,-8.23814868927002,-2.4892964363098145
1761399276939632400,5.68263232421875,0.1702127754688263,-8.155174255371094,-2.881646156311035
1761399276949687800,5.692687744140625,-0.12128128111362457,-8.244433403015137,-3.4705450534820557
1761399276959794000,5.7027939453125,-0.2668038606643677,-8.417638778686523,-4.186934947967529
1761399276969874200,5.712874267578125,-0.26657938957214355,-8.487968444824219,-4.914547920227051
1761399276979953000,5.722952880859375,-0.06299743056297302,-8.387337684631348,-5.39518404006958
1761399276990036200,5.7330361328125,0.2552069425582886,-8.221763610839844,-5.591882705688477
1761399277000115700,5.74311572265625,0.5413888692855835,-8.053346633911133,-5.619041919708252
1761399277010184200,5.75318408203125,0.745644211769104,-7.915455341339111,-5.486388206481934
1761399277020264400,5.763264404296875,0.820687472820282,-7.8838067054748535,-5.261931419372559
1761399277030367700,5.77336767578125,0.8204630017280579,-7.959149360656738,-4.953827857971191
1761399277040436700,5.783436767578125,0.7133972644805908,-8.063820838928223,-4.565817356109619
1761399277050505700,5.793505615234375,0.5112369060516357,-8.15300464630127,-4.21005392074585
1761399277060598000,5.803597900390625,0.35486558079719543,-8.140660285949707,-3.8110454082489014
1761399277070680000,5.81368017578125,0.2667290270328522,-8.250643730163574,-3.4302923679351807
1761399277080769500,5.82376953125,0.1885433793067932,-8.51258373260498,-3.0121302604675293
1761399277090841900,5.833841796875,0.24944588541984558,-8.830938339233398,-2.6000282764434814
1761399277100923400,5.84392333984375,0.3006967604160309,-9.321150779724121,-2.3127987384796143
1761399277110999600,5.85399951171875,0.30960020422935486,-9.391256332397461,-2.2787563800811768
1761399277121085200,5.864085205078125,0.0014215572737157345,-9.337087631225586,-2.9118731021881104
1761399277131154000,5.87415380859375,-0.8450035452842712,-8.926556587219238,-3.5226187705993652
1761399277141240800,5.88424072265625,-1.1563246250152588,-8.782829284667969,-4.078148365020752
1761399277151314000,5.89431396484375,-1.431283712387085,-8.84971809387207,-4.135010719299316
1761399277161407500,5.904407470703125,-1.4024784564971924,-9.1708402633667,-3.9857473373413086
1761399277171474000,5.914473876953125,-1.3608791828155518,-9.59132194519043,-3.8180034160614014
1761399277181555000,5.924554931640625,-1.3275848627090454,-9.889100074768066,-3.6756980419158936
1761399277191649500,5.9346494140625,-1.0887632369995117,-10.064326286315918,-3.607313871383667
1761399277201730600,5.94473046875,-0.7065139412879944,-10.137872695922852,-3.643376350402832
1761399277221885000,5.964885009765625,0.18382979929447174,-9.92434024810791,-3.9846997261047363
1761399277231959300,5.974959228515625,0.6628198027610779,-9.780313491821289,-4.383783340454102
1761399277242049300,5.98504931640625,0.8908674716949463,-9.713201522827148,-4.909235954284668
1761399277252133600,5.995133544921875,0.5812672972679138,-9.795876502990723,-5.700145244598389
1761399277262215400,6.00521533203125,0.2057517021894455,-9.896806716918945,-6.566023349761963
1761399277272295700,6.015295654296875,0.2719663381576538,-9.749862670898438,-7.312191486358643
1761399277282375700,6.025375732421875,0.3849427402019501,-9.244087219238281,-7.688754081726074
1761399277292456700,6.035456787109375,0.186074361205101,-8.519542694091797,-7.726537704467773
1761399277302530600,6.045530517578125,0.31221887469291687,-8.236577987670898,-7.342866897583008
1761399277312618000,6.055617919921875,0.7927800416946411,-8.741679191589355,-6.252682209014893
1761399277322699300,6.06569921875,1.3666402101516724,-9.737069129943848,-4.738424301147461
1761399277332766700,6.0757666015625,1.9488801956176758,-10.93416976928711,-3.201571464538574
1761399277342860500,6.085860595703125,2.2509236335754395,-11.911901473999023,-1.7120038270950317
1761399277352941000,6.095941162109375,2.23199462890625,-12.722563743591309,-0.811634361743927
1761399277363019500,6.10601953125,2.2059576511383057,-13.274202346801758,-0.0644938051700592
1761399277373115000,6.116114990234375,2.0091841220855713,-13.831153869628906,0.46080902218818665
1761399277383182800,6.126182861328125,1.6326210498809814,-14.630292892456055,0.6555623412132263
1761399277393250800,6.136250732421875,0.7070376873016357,-14.414291381835938,0.8424597382545471
1761399277403344600,6.1463447265625,-0.06224924325942993,-12.9834566116333,0.44165539741516113
1761399277413401600,6.156401611328125,0.32216978073120117,-11.395801544189453,-0.7039701342582703
1761399277423505700,6.166505615234375,1.487248182296753,-10.761113166809082,-2.475679397583008
1761399277433571800,6.17657177734375,2.6443209648132324,-11.018789291381836,-4.383933067321777
1761399277443667500,6.18666748046875,2.979658842086792,-11.030685424804688,-5.178284168243408
1761399277453743900,6.196743896484375,2.433481454849243,-10.520795822143555,-5.401693344116211
1761399277463816400,6.20681640625,1.7216554880142212,-9.692851066589355,-5.14349365234375
1761399277473909200,6.2169091796875,1.0544214248657227,-8.948179244995117,-5.062913417816162
1761399277483979000,6.22697900390625,0.8824129700660706,-8.344017028808594,-5.073537826538086
1761399277494068700,6.23706884765625,0.8702923059463501,-8.041450500488281,-4.230404853820801
1761399277504151800,6.24715185546875,0.8961796164512634,-7.809362411499023,-3.458648920059204
1761399277514231800,6.257231689453125,0.4272901713848114,-7.835399150848389,-2.731260299682617
1761399277524300300,6.26730029296875,0.37559038400650024,-7.812055587768555,-2.2421698570251465
1761399277534393900,6.277393798828125,0.7581389546394348,-7.588197708129883,-1.8885762691497803
1761399277544461800,6.2874619140625,1.215955138206482,-7.4164886474609375,-1.4069676399230957
1761399277554546400,6.29754638671875,1.7152210474014282,-7.336058616638184,-0.950348436832428
1761399277564633600,6.307633544921875,2.2987329959869385,-7.260865688323975,-0.7800608277320862
1761399277574716400,6.31771630859375,2.6360909938812256,-7.346682548522949,-0.5321861505508423
1761399277584797200,6.327797119140625,2.6978912353515625,-7.727360725402832,0.35980361700057983
1761399277594866000,6.337865966796875,2.262146472930908,-7.487491607666016,0.36481648683547974
1761399277604958500,6.34795849609375,1.8981530666351318,-6.85908842086792,0.2502689063549042
1761399277615039200,6.358039306640625,1.712153434753418,-6.1169610023498535,0.47988781332969666
1761399277625105700,6.368105712890625,1.49622642993927,-5.284078121185303,0.44180503487586975
1761399277635200500,6.378200439453125,1.258452296257019,-4.6547770500183105,0.24405893683433533
1761399277645281500,6.388281494140625,1.3666402101516724,-4.364779472351074,-0.011447276920080185
1761399277655362000,6.398362060546875,1.4340519905090332,-4.288763523101807,-0.5174468159675598
1761399277665450000,6.408449951171875,1.3967922925949097,-4.452242374420166,-1.2431892156600952
1761399277675500000,6.4185,1.374122142791748,-4.8285813331604,-1.9824738502502441
1761399277685599700,6.428599853515625,1.4672715663909912,-5.3214874267578125,-2.6354174613952637
1761399277695684400,6.438684326171875,1.670479416847229,-5.849932670593262,-3.1470284461975098
1761399277705766000,6.448765869140625,1.98726224899292,-6.366556644439697,-3.794286012649536
1761399277715846000,6.458845947265625,2.294393301010132,-6.909740924835205,-4.673556327819824
1761399277725918000,6.46891796875,2.7561750411987305,-7.50230598449707,-5.526715278625488
1761399277736008200,6.47900830078125,3.2421979904174805,-8.092327117919922,-6.246547222137451
1761399277746086100,6.489086181640625,4.140397548675537,-8.825326919555664,-6.708328723907471
1761399277756154600,6.499154541015625,5.377676486968994,-10.007463455200195,-7.2218852043151855
1761399277766249700,6.509249755859375,6.624157428741455,-11.628039360046387,-8.008529663085938
1761399277776330200,6.519330322265625,6.831480503082275,-13.311686515808105,-8.776769638061523
1761399277786409200,6.5294091796875,6.472724437713623,-13.804368019104004,-8.961421966552734
1761399277796492300,6.5394921875,6.009222030639648,-12.545167922973633,-7.928024768829346
1761399277806571000,6.549571044921875,5.248688697814941,-10.907085418701172,-6.82048225402832
1761399277816651000,6.559651123046875,4.546813488006592,-9.654318809509277,-6.108431339263916
1761399277826734300,6.569734375,4.4443864822387695,-8.69753646850586,-5.549460411071777
1761399277836814800,6.57981494140625,4.754585266113281,-7.660472869873047,-5.021164894104004
1761399277846895900,6.589895751953125,4.697423934936523,-6.575824737548828,-4.406154155731201
1761399277856963600,6.599963623046875,4.379518508911133,-5.484218120574951,-3.663203477859497
1761399277867057200,6.61005712890625,4.636221885681152,-5.332710266113281,-2.782735824584961
1761399277877124600,6.62012451171875,4.216189384460449,-7.720402717590332,-2.568679094314575
1761399277887193900,6.63019384765625,3.247734546661377,-11.730541229248047,-3.0452749729156494
1761399277897273900,6.64027392578125,3.6192848682403564,-14.726360321044922,-3.1292216777801514
1761399277907354600,6.650354736328125,3.314098834991455,-15.580267906188965,-2.646415948867798
1761399277917435600,6.660435546875,0.403273344039917,-14.792724609375,-2.547804594039917
1761399277927515600,6.670515625,-2.2001216411590576,-12.591630935668945,-2.69415020942688
1761399277937583900,6.680583984375,-3.6064159870147705,-9.9000244140625,-2.076521158218384
1761399277947666000,6.690666015625,-2.7473464012145996,-8.244882583618164,-0.9091981053352356
1761399277957756700,6.700756591796875,-1.3283330202102661,-7.9698486328125,-0.4596867263317108
1761399277967847700,6.71084765625,-0.15831658244132996,-8.514080047607422,-0.4413561224937439
1761399277977928700,6.7209287109375,-0.0967407152056694,-8.913164138793945,-0.3049614429473877
1761399277988025300,6.731025390625,-0.8622866868972778,-8.541539192199707,-0.1842787116765976
1761399277998104600,6.7411044921875,-1.5580267906188965,-8.263287544250488,-0.5956324934959412
1761399278008187400,6.7511875,-1.8100165128707886,-8.902240753173828,-1.3384336233139038
1761399278018257200,6.761257080078125,-2.07165789604187,-10.305242538452148,-2.2881834506988525
1761399278028348000,6.771347900390625,-2.132410764694214,-11.53309440612793,-3.835810422897339
1761399278038408000,6.781407958984375,-1.8338088989257812,-11.73817253112793,-4.737975597381592
1761399278048493600,6.79149365234375,-0.791508138179779,-11.000458717346191,-4.7241339683532715
1761399278058590200,6.801590087890625,0.3470095992088318,-10.061258316040039,-4.72959566116333
1761399278068667400,6.81166748046875,0.9403226971626282,-9.461286544799805,-4.390741348266602
1761399278078742500,6.821742431640625,0.8476970195770264,-8.999654769897461,-3.3424551486968994
1761399278088832500,6.83183251953125,0.30294132232666016,-8.474875450134277,-1.8422633409500122
1761399278098913300,6.841913330078125,-0.24779987335205078,-8.632668495178223,-1.0324246883392334
1761399278108994600,6.85199462890625,-0.7667431235313416,-8.682272911071777,-0.7229741215705872
1761399278119062300,6.862062255859375,-1.1706898212432861,-8.88405990600586,-0.8845826983451843
1761399278129153300,6.8721533203125,-1.722628116607666,-8.747963905334473,-1.4038251638412476
1761399278139236600,6.882236572265625,-2.3581390380859375,-8.473978042602539,-2.3026235103607178
1761399278149298700,6.892298583984375,-2.81707763671875,-8.111405372619629,-3.1185972690582275
1761399278159398000,6.90239794921875,-3.0928597450256348,-7.883657455444336,-4.35108757019043
1761399278169478400,6.912478515625,-2.610802173614502,-7.982492923736572,-5.62727165222168
1761399278179546400,6.92254638671875,-1.8567782640457153,-7.848492622375488,-6.401795864105225
1761399278189632800,6.9326328125,-1.2177507877349854,-7.566500186920166,-6.944830894470215
1761399278199718000,6.9427177734375,-0.40686464309692383,-7.565677165985107,-6.817564010620117
1761399278209790000,6.9527900390625,0.297778844833374,-8.15412712097168,-6.55726957321167
1761399278219882000,6.962882080078125,0.4604349136352539,-8.616731643676758,-5.781174182891846
1761399278229962500,6.97296240234375,0.4448726177215576,-8.982745170593262,-5.131073474884033
1761399278240043300,6.983043212890625,0.28550854325294495,-9.141510963439941,-4.810250282287598
1761399278250111500,6.993111572265625,0.03284545615315437,-9.109114646911621,-4.704531669616699
1761399278260203500,7.00320361328125,-0.38314709067344666,-9.022923469543457,-4.825289249420166
1761399278270285300,7.013285400390625,-0.6192004084587097,-8.866701126098633,-4.866364479064941
1761399278280366300,7.023366455078125,-0.5252280235290527,-8.659677505493164,-4.928763389587402
1761399278290446600,7.033446533203125,-0.3496282696723938,-8.29321575164795,-4.927491664886475
1761399278300515800,7.043515869140625,-0.23029227554798126,-7.9771809577941895,-4.959962844848633
1761399278310606000,7.053606201171875,-0.13983634114265442,-7.645583629608154,-4.890905380249023
1761399278320695800,7.06369580078125,0.0013467384269461036,-7.446042060852051,-5.022810935974121
1761399278330756900,7.0737568359375,0.005312134977430105,-7.50118350982666,-4.927042484283447
1761399278340850400,7.083850341796875,-0.16811785101890564,-7.825597763061523,-4.9502363204956055
1761399278350931200,7.09393115234375,-0.7427262663841248,-7.791031837463379,-4.475810527801514
1761399278360996400,7.103996337890625,-0.7618798613548279,-8.092850685119629,-4.4741644859313965
1761399278371092700,7.1140927734375,-0.5042787194252014,-8.316259384155273,-4.12019681930542
1761399278381173200,7.12417333984375,-0.1405097097158432,-8.693645477294922,-3.7724387645721436
1761399278391238700,7.13423876953125,0.12846387922763824,-8.994417190551758,-3.6639516353607178
1761399278401334500,7.14433447265625,0.3191021978855133,-9.726593971252441,-3.8971617221832275
1761399278411404800,7.15440478515625,0.05192425101995468,-9.64803409576416,-3.7549312114715576
1761399278421496000,7.16449609375,-0.3232920467853546,-9.468618392944336,-3.867832899093628
1761399278431564500,7.174564453125,-0.11357494443655014,-9.696516990661621,-3.8114194869995117
1761399278441644500,7.18464453125,0.4578910768032074,-9.874136924743652,-3.5074305534362793
1761399278451724500,7.194724609375,0.31618425250053406,-9.955389976501465,-3.5334675312042236
1761399278461819100,7.204819091796875,-0.26074352860450745,-9.969305992126465,-3.8016180992126465
1761399278471890000,7.214889892578125,-0.3671358525753021,-9.919102668762207,-4.154014587402344
1761399278481980400,7.22498046875,-0.3315969407558441,-10.057891845703125,-4.579958438873291
1761399278492061000,7.23506103515625,-0.9358335733413696,-10.519598960876465,-5.114987373352051
1761399278502141700,7.2451416015625,-1.413476824760437,-10.948983192443848,-5.946673393249512
1761399278512212500,7.25521240234375,-0.9624691009521484,-10.42547607421875,-6.735263347625732
1761399278522299100,7.265299072265625,-0.7179612517356873,-10.569502830505371,-7.645134925842285
1761399278532384000,7.275384033203125,-1.0054150819778442,-11.082386016845703,-7.898022651672363
1761399278542473500,7.285473388671875,-0.35583823919296265,-12.026374816894531,-7.470433235168457
1761399278552545500,7.295545654296875,0.5475988388061523,-12.913800239562988,-6.187066078186035
1761399278562626300,7.305626220703125,1.196053385734558,-12.094758987426758,-3.655048131942749
1761399278572684000,7.31568408203125,1.952770709991455,-11.484685897827148,-2.1178958415985107
1761399278582785500,7.32578564453125,2.3680899143218994,-11.606341361999512,-1.3506290912628174
1761399278592867800,7.335867919921875,2.2515971660614014,-11.404106140136719,0.10115502029657364
1761399278602940400,7.3459404296875,1.5591490268707275,-12.390966415405273,-0.43679216504096985
1761399278613026600,7.356026611328125,0.5349544286727905,-13.171775817871094,0.2091185599565506
1761399278623109600,7.366109619140625,-0.03778349608182907,-12.312705993652344,-0.16415245831012726
1761399278633191700,7.376191650390625,-0.6451625227928162,-10.764630317687988,-1.792808175086975
1761399278643270000,7.386269775390625,-0.8143278360366821,-9.907805442810059,-3.88818359375
1761399278653353000,7.39635302734375,-0.190189391374588,-9.962721824645996,-5.6611647605896
1761399278663433000,7.406432861328125,0.605658233165741,-10.090587615966797,-6.69216775894165
1761399278673491700,7.41649169921875,0.8743325471878052,-10.106374740600586,-6.845396518707275
1761399278683594200,7.42659423828125,0.8402151465415955,-10.179697036743164,-6.890138626098633
1761399278693675300,7.43667529296875,0.9700257778167725,-9.922245025634766,-6.061370372772217
1761399278703755800,7.446755859375,1.4906150102615356,-9.551816940307617,-4.93729305267334
1761399278713834500,7.45683447265625,1.6198270320892334,-9.16769790649414,-3.7195420265197754
1761399278723919000,7.466919189453125,1.4716858863830566,-8.53764820098877,-2.765078544616699
1761399278733985500,7.476985595703125,1.1953799724578857,-7.884555339813232,-2.2310218811035156
1761399278744078800,7.487078857421875,0.9278279542922974,-7.454347133636475,-1.7507599592208862
1761399278754159600,7.49715966796875,0.7796867489814758,-7.276352882385254,-1.2942156791687012
1761399278764240100,7.507240234375,0.7144447565078735,-7.2399163246154785,-0.9841665625572205
1761399278774308400,7.517308349609375,0.6884077787399292,-7.342941761016846,-0.8702923059463501
1761399278784402000,7.52740185546875,0.7184101343154907,-7.462053298950195,-0.9935188889503479
1761399278794469600,7.5374697265625,0.9192986488342285,-7.575179576873779,-1.3214497566223145
1761399278804563000,7.54756298828125,1.2778303623199463,-7.502904415130615,-1.464727759361267
1761399278814622500,7.55762255859375,1.5081225633621216,-7.108384609222412,-1.4975731372833252
1761399278824724700,7.567724853515625,1.5288474559783936,-6.6222124099731445,-1.5844378471374512
1761399278834805500,7.577805419921875,1.4422820806503296,-6.1449432373046875,-1.5925930738449097
1761399278844884500,7.587884521484375,1.3626748323440552,-5.587019443511963,-1.4330044984817505
1761399278854966500,7.597966552734375,1.156474232673645,-5.049895286560059,-1.291372537612915
1761399278865035000,7.608034912109375,0.9636662006378174,-4.604872703552246,-1.216478943824768
1761399278875128000,7.618128173828125,0.8928875923156738,-4.207509994506836,-1.20368492603302
1761399278885208800,7.628208740234375,0.9803507924079895,-4.106803894042969,-1.3886369466781616
1761399278895289000,7.6382890625,1.149815320968628,-4.099172592163086,-1.6650176048278809
1761399278905368300,7.648368408203125,1.3658920526504517,-4.248435974121094,-2.089315176010132
1761399278915451600,7.65845166015625,1.6494553089141846,-4.526462554931641,-2.5817723274230957
1761399278925529600,7.668529541015625,1.9060838222503662,-4.829254627227783,-3.058218479156494
1761399278935592700,7.6785927734375,2.1431846618652344,-5.177984714508057,-3.5737202167510986
1761399278945681200,7.68868115234375,2.4735844135284424,-5.6245036125183105,-4.150947093963623
1761399278955759400,7.69875927734375,3.1774048805236816,-6.227692604064941,-4.826486110687256
1761399278965844500,7.708844482421875,4.0909423828125,-7.123722553253174,-5.606996059417725
1761399278975935200,7.718935302734375,5.14932918548584,-8.305560111999512,-6.6361284255981445
1761399278986015500,7.729015380859375,6.0213422775268555,-9.716418266296387,-8.089632987976074
1761399278996096800,7.7390966796875,6.454842567443848,-11.07138729095459,-9.692925453186035
1761399279006171600,7.749171630859375,6.315155982971191,-12.371438980102539,-10.857555389404297
1761399279016258000,7.759258056640625,5.6140289306640625,-12.862025260925293,-11.223942756652832
1761399279026336800,7.769336669921875,4.871377468109131,-11.774609565734863,-10.50373649597168
1761399279036409600,7.77940966796875,3.834014654159546,-10.334571838378906,-9.27917766571045
1761399279046500000,7.7895,3.4751088619232178,-9.322497367858887,-8.155623435974121
1761399279056580600,7.79958056640625,4.885219097137451,-8.335488319396973,-7.268496990203857
1761399279066675000,7.809675048828125,7.075464725494385,-8.377461433410645,-6.156091213226318
1761399279076742400,7.819742431640625,6.403367042541504,-11.236138343811035,-5.9835591316223145
1761399279086821000,7.829821044921875,5.93365478515625,-15.26834774017334,-6.614880084991455
1761399279096904000,7.839904052734375,6.1344685554504395,-18.721012115478516,-4.739546775817871
1761399279106973400,7.849973388671875,4.4779052734375,-18.80989646911621,-2.8378772735595703
1761399279117065000,7.86006494140625,1.5447089672088623,-15.223979949951172,-1.3163620233535767
1761399279127145700,7.870145751953125,-1.3402292728424072,-9.845630645751953,0.07953238487243652
1761399279137216000,7.880216064453125,-3.624671697616577,-5.572279930114746,1.3011738061904907
1761399279147307300,7.890307373046875,-3.757624864578247,-3.6320788860321045,2.29252290725708
1761399279157374000,7.9003740234375,-1.7107319831848145,-3.1168017387390137,2.497825860977173
1761399279167468800,7.91046875,-0.5041291117668152,-3.357194423675537,1.7405846118927002
1761399279177536800,7.920536865234375,-1.2809727191925049,-4.062885284423828,1.2336872816085815
1761399279187632000,7.930632080078125,-2.2287025451660156,-5.56749153137207,0.914659857749939
1761399279197722600,7.94072265625,-2.3131728172302246,-8.091504096984863,-0.2909703254699707
1761399279207791900,7.9507919921875,-1.8324620723724365,-11.484162330627441,-2.254589796066284
1761399279217857300,7.960857177734375,-1.6723499298095703,-14.541482925415039,-4.128127574920654
1761399279227953200,7.970953125,-1.5188965797424316,-15.902063369750977,-5.7654619216918945
1761399279238034000,7.981033935546875,-0.5285200476646423,-15.123948097229004,-6.910863399505615
1761399279248101400,7.991101318359375,-0.13377602398395538,-11.30063247680664,-5.992163181304932
1761399279258195000,8.00119482421875,-0.0463128387928009,-9.180042266845703,-4.522347927093506
1761399279268276000,8.01127587890625,-0.19026421010494232,-8.474276542663574,-3.4066498279571533
1761399279278341400,8.02134130859375,-0.24996961653232574,-8.441132545471191,-2.5457847118377686
1761399279288437200,8.031437255859375,-0.18951602280139923,-8.664765357971191,-1.9648914337158203
1761399279298517500,8.041517578125,-0.023867197334766388,-9.108964920043945,-1.9226936101913452
1761399279308599300,8.051599365234376,0.2977040112018585,-9.500940322875977,-2.0189855098724365
1761399279318657300,8.0616572265625,0.16108489036560059,-9.701081275939941,-2.212167501449585
1761399279328760000,8.071760009765624,-0.1784428507089615,-9.566556930541992,-2.3515548706054688
1761399279338841000,8.081841064453124,-0.6281786561012268,-9.5316162109375,-2.6339211463928223
1761399279348919000,8.0919189453125,-0.9721955060958862,-9.208474159240723,-2.6933271884918213
1761399279359002400,8.10200244140625,-1.3410521745681763,-8.74609375,-2.7055976390838623
1761399279369083000,8.112082763671875,-1.763179898262024,-8.26822566986084,-2.754080057144165
1761399279379163600,8.12216357421875,-2.194585084915161,-7.938948154449463,-2.990657091140747
1761399279389244000,8.132243896484376,-2.4915409088134766,-7.720252990722656,-3.4129345417022705
1761399279399325200,8.1423251953125,-2.3644237518310547,-7.722198486328125,-3.825709819793701
1761399279409403600,8.152403564453126,-2.036642551422119,-7.692420482635498,-4.190825462341309
1761399279419486500,8.162486572265625,-1.1575217247009277,-7.6856865882873535,-4.410643100738525
1761399279429567500,8.1725673828125,-0.31872808933258057,-7.805995464324951,-4.537835121154785
1761399279439641300,8.182641357421875,0.18637363612651825,-7.964237213134766,-4.520028114318848
1761399279449729000,8.19272900390625,0.4490624666213989,-8.138415336608887,-4.3925371170043945
1761399279459803600,8.2028037109375,0.433874249458313,-8.234333038330078,-3.9699604511260986
1761399279469890300,8.212890380859376,0.32022446393966675,-8.506149291992188,-3.7988498210906982
1761399279479956200,8.222956298828125,0.07152677327394485,-8.984540939331055,-3.8108208179473877
1761399279490051600,8.233051513671874,0.23201310634613037,-9.17128849029541,-3.4804959297180176
1761399279500132000,8.243132080078125,0.039055414497852325,-9.183110237121582,-3.1266028881073
1761399279510213000,8.253213134765625,-0.11260230094194412,-9.274763107299805,-3.040935516357422
1761399279520293400,8.26329345703125,-0.10362404584884644,-9.182886123657227,-3.2444424629211426
1761399279530373600,8.27337353515625,-0.015412673354148865,-9.080159187316895,-3.597288131713867
1761399279540442400,8.2834423828125,0.2736123502254486,-8.510937690734863,-3.5201499462127686
1761399279550521600,8.293521484375,0.16736966371536255,-8.366762161254883,-4.2934770584106445
1761399279560614400,8.303614501953126,-0.22662615776062012,-8.388983726501465,-5.141922473907471
1761399279570676500,8.313676513671876,-0.9796773791313171,-8.167145729064941,-5.272181987762451
1761399279580765200,8.32376513671875,-0.5461024641990662,-8.77272891998291,-6.4234185218811035
1761399279590840600,8.333840576171875,-0.2503437101840973,-8.695291519165039,-5.512050628662109
1761399279600924400,8.34392431640625,0.2651578485965729,-9.111733436584473,-5.100771903991699
1761399279611019800,8.354019775390626,0.33025020360946655,-9.460613250732422,-4.650213241577148
1761399279621088800,8.3640888671875,-0.10137947648763657,-9.656189918518066,-4.592527866363525
1761399279631168500,8.37416845703125,-0.6226420998573303,-9.582568168640137,-4.866888523101807
1761399279641261800,8.38426171875,-0.7873930931091309,-9.48193645477295,-5.491550445556641
1761399279651342800,8.3943427734375,-0.4688146114349365,-9.448118209838867,-5.656002044677734
1761399279661410600,8.40441064453125,-0.07698854804039001,-9.424924850463867,-5.229684829711914
1761399279671500000,8.4145,0.1528548151254654,-9.46959114074707,-4.591031551361084
1761399279691665400,8.43466552734375,-0.6257844567298889,-10.050110816955566,-4.842347621917725
1761399279701725400,8.444725341796875,-0.7675660848617554,-10.201094627380371,-5.395258903503418
1761399279711826700,8.45482666015625,-0.16744448244571686,-10.001104354858398,-6.000842094421387
1761399279721908000,8.464907958984375,-0.3885340392589569,-9.9656400680542,-6.621688365936279
1761399279731974700,8.474974609375,-0.9678560495376587,-10.173860549926758,-6.958897113800049
1761399279742074400,8.485074462890625,-0.33369186520576477,-10.536433219909668,-6.638148784637451
1761399279752136700,8.49513671875,0.9974842667579651,-11.442338943481445,-5.3133320808410645
1761399279762230800,8.505230712890626,1.7616087198257446,-11.658939361572266,-3.4047045707702637
1761399279772311300,8.515311279296874,1.7743278741836548,-11.5297269821167,-2.0853497982025146
1761399279782392000,8.52539208984375,1.2961609363555908,-11.736900329589844,-1.0387842655181885
1761399279792460300,8.535460205078126,1.0568156242370605,-12.74022102355957,-0.03075052797794342
1761399279812621800,8.555621826171874,1.9221699237823486,-15.317953109741211,1.1412111520767212
1761399279822711300,8.565711181640625,1.6118215322494507,-14.9136323928833,0.599373459815979
1761399279832796000,8.5757958984375,0.5794716477394104,-13.056479454040527,-0.8224831223487854
1761399279842863600,8.585863525390625,0.058957215398550034,-11.219304084777832,-2.4078187942504883
1761399279852957000,8.59595703125,0.6311714053153992,-10.3125,-4.120795249938965
1761399279863036000,8.606035888671874,1.6919524669647217,-10.149544715881348,-5.108029365539551
1761399279873119200,8.616119140625,1.885807991027832,-10.10053825378418,-5.712714672088623
1761399279883199500,8.626199462890625,1.5806968212127686,-9.684171676635742,-6.177414417266846
1761399279893275400,8.636275390625,1.4488661289215088,-9.234885215759277,-5.717129230499268
1761399279903360800,8.64636083984375,1.450437307357788,-8.72993278503418,-4.98046350479126
1761399279913441300,8.656441162109376,1.6041151285171509,-8.154875755310059,-4.333430290222168
1761399279923504400,8.66650439453125,1.5592238903045654,-7.541286468505859,-3.3727567195892334
1761399279933590500,8.676590576171876,1.091456651687622,-6.972139835357666,-2.5211691856384277
1761399279943683300,8.686683349609375,0.6083517074584961,-6.483797550201416,-1.7209073305130005
1761399279953768000,8.696767822265626,0.47726914286613464,-6.143820762634277,-1.0409539937973022
1761399279963832600,8.70683251953125,0.15390227735042572,-5.956923484802246,-0.8440309166908264
1761399279973925600,8.716925537109375,0.03247135877609253,-6.028749465942383,-0.9715969562530518
1761399279983993900,8.726993896484375,0.7833528518676758,-6.538265705108643,-1.0616787672042847
1761399279994084900,8.7370849609375,1.5398458242416382,-6.941090106964111,-0.9427168965339661
1761399280004168000,8.74716796875,2.0016274452209473,-7.109058380126953,-0.512808084487915
1761399280014235600,8.757235595703126,2.320505142211914,-7.059004306793213,-0.021697452291846275
1761399280024329200,8.7673291015625,2.5416696071624756,-6.761973857879639,0.33608606457710266
1761399280034410000,8.777409912109375,2.762983560562134,-6.273182392120361,0.4926818311214447
1761399280044490200,8.787490234375,2.773233652114868,-5.737255573272705,0.3157353401184082
1761399280054569500,8.797569580078125,2.35148024559021,-5.336451053619385,-0.17170915007591248
1761399280064651800,8.80765185546875,1.7408839464187622,-5.234847068786621,-0.6857143044471741
1761399280074732800,8.81773291015625,1.2908488512039185,-5.424737453460693,-1.2153565883636475
1761399280084802800,8.827802734375,1.0439467430114746,-5.533224582672119,-1.8010382652282715
1761399280094893800,8.837893798828125,0.909721851348877,-5.546841621398926,-2.397418975830078
1761399280104974800,8.847974853515625,1.1519103050231934,-5.467084884643555,-2.9227216243743896
1761399280115042600,8.85804248046875,1.5689502954483032,-5.235744953155518,-3.4625394344329834
1761399280125125000,8.868125,2.028038501739502,-5.1116204261779785,-4.126855373382568
1761399280135223600,8.8782236328125,2.557157039642334,-5.354706764221191,-5.000589370727539
1761399280145297700,8.888297607421874,3.2073323726654053,-5.997774600982666,-6.054412364959717
1761399280155378200,8.898378173828124,4.078298091888428,-7.043442249298096,-7.242684364318848
1761399280165461500,8.90846142578125,5.137208461761475,-8.62316608428955,-8.518794059753418
1761399280175537400,8.918537353515624,6.048651218414307,-10.57040023803711,-9.952397346496582
1761399280185616400,8.928616455078124,6.607772350311279,-12.390592575073242,-11.540800094604492
1761399280195705300,8.938705322265625,6.495993137359619,-13.337947845458984,-12.328941345214844
1761399280205765000,8.94876513671875,6.4986114501953125,-11.988890647888184,-11.707945823669434
1761399280215862500,8.958862548828124,5.73897647857666,-9.93825626373291,-10.376694679260254
1761399280236022000,8.97902197265625,4.173916339874268,-8.236352920532227,-7.588272571563721
1761399280246104000,8.98910400390625,4.5417256355285645,-7.516296863555908,-6.754791259765625
1761399280256185300,8.999185302734375,5.113117218017578,-6.828861713409424,-5.9625349044799805
1761399280266266400,9.009266357421875,5.568987846374512,-7.111377716064453,-4.6844801902771
1761399280276347000,9.019346923828126,5.289764404296875,-9.955389976501465,-3.9853732585906982
1761399280286427400,9.029427490234376,5.604601860046387,-13.774291038513184,-3.8330421447753906
1761399280296508000,9.0395078125,5.94906759262085,-16.270097732543945,-2.5870096683502197
1761399280306579200,9.0495791015625,3.623474597930908,-16.619874954223633,-0.7469909191131592
1761399280326730500,9.06973046875,-3.4007389545440674,-9.18161392211914,0.38397011160850525
1761399280336828000,9.079827880859375,-1.7329530715942383,-6.193650245666504,1.4335283041000366
1761399280346911700,9.089911865234376,-1.0678887367248535,-5.619939804077148,1.8621652126312256
1761399280356992500,9.099992431640626,-1.4838064908981323,-6.208165168762207,0.8797942996025085
1761399280367070500,9.110070556640625,-1.3872902393341064,-7.818116188049316,0.41382279992103577
1761399280377141200,9.120141357421875,-1.2009166479110718,-9.167472839355469,0.13519757986068726
1761399280387234600,9.130234619140625,-1.061155080795288,-9.787646293640137,-0.7352443933486938
1761399280397315000,9.140315185546875,-1.3835493326187134,-10.595464706420898,-2.342651605606079
1761399280407383000,9.150383056640624,-2.017563819885254,-11.500846862792969,-3.797802448272705
1761399280417478000,9.160477783203126,-2.0282628536224365,-11.612775802612305,-4.68410587310791
1761399280427557400,9.170557373046876,-1.4266449213027954,-10.575712203979492,-5.46730899810791
1761399280437630700,9.180630615234374,-1.0415525436401367,-9.5717191696167,-5.727005481719971
1761399280447719000,9.190718994140624,-0.7254431247711182,-9.036765098571777,-5.329866886138916
1761399280457777400,9.20077734375,-0.1453729271888733,-8.65167236328125,-4.7474775314331055
1761399280467861800,9.21086181640625,0.3545663058757782,-8.322769165039062,-4.200178146362305
1761399280477948200,9.2209482421875,0.44165539741516113,-8.106019020080566,-3.5899558067321777
1761399280488041500,9.23104150390625,0.4362684488296509,-8.130035400390625,-3.1091701984405518
1761399280498120200,9.2411201171875,0.14088380336761475,-8.479214668273926,-2.897582530975342
1761399280508203500,9.25120361328125,-0.14941315352916718,-8.930447578430176,-2.604218006134033
1761399280518283500,9.261283447265624,-0.5664531588554382,-9.184382438659668,-2.475529670715332
1761399280528347400,9.271347412109375,-0.8134300112724304,-9.174580574035645,-2.342576742172241
1761399280538442200,9.281442138671874,-0.8568249344825745,-8.844630241394043,-2.3033716678619385
1761399280548526300,9.2915263671875,-0.9713725447654724,-8.402376174926758,-2.473734140396118
1761399280558615800,9.30161572265625,-1.0939257144927979,-8.033294677734375,-2.9963433742523193
1761399280568687900,9.31168798828125,-1.3477859497070312,-7.8116068840026855,-3.7898716926574707
1761399280578768100,9.32176806640625,-1.4868741035461426,-7.776442050933838,-4.612504482269287
1761399280588837000,9.331837158203125,-1.413252353668213,-7.809436798095703,-5.269862174987793
1761399280598929400,9.341929443359374,-0.9980080127716064,-7.824849605560303,-5.707028865814209
1761399280608997400,9.351997314453126,-0.2908954918384552,-7.806220054626465,-5.856367111206055
1761399280619091200,9.36209130859375,0.21009120345115662,-7.835847854614258,-5.84035587310791
1761399280629169700,9.372169677734375,0.455422043800354,-8.137517929077148,-5.631012916564941
1761399280639252500,9.38225244140625,0.7891139388084412,-8.678906440734863,-5.16893196105957
1761399280649333200,9.392333251953126,0.8477718830108643,-9.056965827941895,-4.710591793060303
1761399280659414000,9.4024140625,0.8942343592643738,-9.207201957702637,-4.34263277053833
1761399280669505800,9.412505859375,0.6863128542900085,-9.010727882385254,-4.194042682647705
1761399280679575000,9.422574951171875,0.3274070918560028,-8.674491882324219,-3.95409893989563
1761399280689653800,9.43265380859375,-0.14911387860774994,-8.452729225158691,-3.8115692138671875
1761399280699736600,9.442736572265625,-0.4536263942718506,-8.468740463256836,-3.603872060775757
1761399280709817600,9.452817626953125,-0.44853872060775757,-8.681150436401367,-3.3983447551727295
1761399280719898400,9.4628984375,-0.17963995039463043,-8.913164138793945,-3.206284999847412
1761399280729974800,9.472974853515625,0.1298106163740158,-8.999878883361816,-3.1909470558166504
1761399280740040700,9.483040771484376,0.22288522124290466,-9.0767183303833,-3.8017678260803223
1761399280750140200,9.49314013671875,0.10594342648983002,-8.903138160705566,-4.162544250488281
1761399280760207400,9.503207275390626,-0.3016694188117981,-8.775721549987793,-5.080121994018555
1761399280770301200,9.51330126953125,-0.7954735159873962,-8.339603424072266,-5.6769514083862305
1761399280780369400,9.523369384765624,-0.8696937561035156,-7.842731475830078,-5.373935222625732
1761399280790463200,9.533463134765626,-0.648903489112854,-8.372897148132324,-5.220407009124756
1761399280800541700,9.543541748046875,-0.43537062406539917,-9.02830982208252,-4.591031551361084
1761399280810622500,9.55362255859375,-0.24069209396839142,-9.63299560546875,-3.9419782161712646
1761399280820693200,9.563693359375,-0.48624739050865173,-9.941997528076172,-3.977442502975464
1761399280830785500,9.57378564453125,-0.6637176275253296,-9.96092700958252,-4.531325817108154
1761399280840866300,9.5838662109375,-0.38980597257614136,-9.809942245483398,-4.978068828582764
1761399280850931200,9.59393115234375,0.020350715145468712,-9.742754936218262,-5.032836437225342
1761399280861027600,9.604027587890625,0.24488194286823273,-9.652822494506836,-4.688894271850586
1761399280871100400,9.614100341796876,-0.010025719180703163,-9.641375541687012,-4.571578502655029
1761399280881185000,9.62418505859375,-0.72132807970047,-9.732205390930176,-5.041440486907959
1761399280891257900,9.6342578125,-1.0437222719192505,-9.728838920593262,-5.912106990814209
1761399280901351000,9.644350830078125,-0.5033060908317566,-9.620575904846191,-6.85676908493042
1761399280911431400,9.654431396484375,-0.5105634927749634,-9.604714393615723,-7.796568393707275
1761399280921494300,9.664494384765625,-0.8526350855827332,-9.67077922821045,-8.609549522399902
1761399280931580400,9.674580322265625,-0.39803603291511536,-10.210073471069336,-9.059061050415039
1761399280941673500,9.684673583984376,0.008155249990522861,-10.966939926147461,-8.144774436950684
1761399280951741700,9.69474169921875,0.5373486280441284,-10.952425003051758,-6.169034957885742
1761399280961834800,9.704834716796874,1.1418097019195557,-10.540922164916992,-4.228384494781494
1761399280971890400,9.714890380859375,1.65386962890625,-10.201094627380371,-2.622922897338867
1761399280981996800,9.724996826171875,2.1511154174804688,-10.266486167907715,-1.3037924766540527
1761399280992077300,9.735077392578125,2.340855836868286,-10.612748146057129,-0.3603273630142212
1761399281002158000,9.745157958984375,2.116698741912842,-11.013477325439453,0.43507134914398193
1761399281012237000,9.755237060546875,1.7104326486587524,-11.378443717956543,0.7171382308006287
1761399281022319000,9.765319091796876,1.6314988136291504,-11.482292175292969,0.2745850086212158
1761399281032388400,9.775388427734375,1.5872061252593994,-11.231799125671387,-0.877923846244812
1761399281042481000,9.78548095703125,1.187972903251648,-10.531719207763672,-2.234987258911133
1761399281052561400,9.7955615234375,0.778714120388031,-9.820566177368164,-3.43994402885437
1761399281062629400,9.80562939453125,0.8456020951271057,-9.823410034179688,-4.5649943351745605
1761399281072710100,9.815710205078124,1.143605351448059,-10.308609962463379,-5.537863254547119
1761399281082801400,9.825801513671875,0.9448118209838867,-10.634594917297363,-5.91165828704834
1761399281092871700,9.83587158203125,0.809165358543396,-10.236109733581543,-5.8803839683532715
1761399281102964700,9.84596484375,1.2274773120880127,-9.543961524963379,-5.732542037963867
1761399281113045800,9.856045654296874,1.62880539894104,-8.956184387207031,-5.188309669494629
1761399281123126500,9.86612646484375,1.7530794143676758,-8.387935638427734,-4.433612823486328
1761399281133215500,9.876215576171875,1.6353145837783813,-7.9869818687438965,-3.731513023376465
1761399281143285500,9.886285400390625,1.4792425632476807,-7.92899751663208,-3.1872811317443848
1761399281163423500,9.906423583984376,1.3770400285720825,-8.343269348144531,-2.3237223625183105
1761399281173504300,9.916504150390624,1.4970494508743286,-8.508618354797363,-2.0657472610473633
1761399281183585300,9.926585205078124,1.8786252737045288,-8.561141967773438,-2.0142717361450195
1761399281193666300,9.936666259765625,2.19114351272583,-8.510339736938477,-2.2507741451263428
1761399281203735800,9.94673583984375,2.149245023727417,-8.234856605529785,-2.6158149242401123
1761399281213826600,9.95682666015625,2.186055898666382,-7.900341987609863,-2.9419500827789307
1761399281223908900,9.966908935546876,2.2175545692443848,-7.496918678283691,-3.241374969482422
1761399281233998000,9.976998046875,2.0934300422668457,-7.110030651092529,-3.4418892860412598
1761399281244082000,9.98708203125,1.992724061012268,-6.644508361816406,-3.3325042724609375
1761399281254175200,9.99717529296875,1.9607763290405273,-6.115090370178223,-3.0062942504882812
1761399281264256500,10.007256591796875,2.0045454502105713,-5.592256546020508,-2.835782289505005
1761399281274335000,10.0173349609375,2.0568437576293945,-5.220556735992432,-2.5214684009552
1761399281284418000,10.02741796875,2.0616321563720703,-5.070395469665527,-2.4072201251983643
1761399281294498600,10.03749853515625,1.968258261680603,-5.1641435623168945,-2.3656208515167236
1761399281304566500,10.04756640625,2.0037972927093506,-5.485340595245361,-2.4078187942504883
1761399281314660000,10.05766015625,2.2200236320495605,-5.849782943725586,-2.529324531555176
1761399281324740600,10.06774072265625,2.7136778831481934,-6.026729583740234,-2.81939697265625
1761399281334807600,10.0778076171875,3.3562967777252197,-6.233079433441162,-3.485434055328369
1761399281344892400,10.087892333984374,4.303128719329834,-6.372916221618652,-4.425532341003418
1761399281354972200,10.09797216796875,5.2707600593566895,-6.435539245605469,-5.290811538696289
1761399281365063700,10.108063720703125,5.609988689422607,-6.7002482414245605,-6.078877925872803
1761399281375144000,10.11814404296875,4.934299945831299,-7.4077348709106445,-6.695908546447754
1761399281385225000,10.128224853515626,3.6782419681549072,-8.332196235656738,-7.255553245544434
1761399281395306200,10.13830615234375,3.8989574909210205,-9.269750595092773,-7.823428153991699
1761399281405374700,10.148374755859376,4.636820316314697,-9.76744556427002,-7.080178260803223
1761399281415469300,10.15846923828125,4.0872015953063965,-9.776947021484375,-4.76693058013916
1761399281425537300,10.168537353515624,3.7975032329559326,-9.889774322509766,-1.860145092010498
1761399281435626800,10.178626708984375,4.242001533508301,-10.197054862976074,0.2777273952960968
1761399281445704200,10.1887041015625,4.603825569152832,-10.127548217773438,1.3472621440887451
1761399281455775500,10.198775390625,3.704503297805786,-9.381080627441406,1.90825355052948
1761399281465855700,10.208855712890625,2.6600329875946045,-8.05162525177002,2.595539093017578
1761399281475937500,10.2189375,2.278681516647339,-6.179434776306152,2.8785786628723145
1761399281486032000,10.229031982421875,2.957961320877075,-4.1338887214660645,2.655019998550415
1761399281496113000,10.23911279296875,3.5515737533569336,-2.7834091186523438,2.3784148693084717
1761399281506193200,10.249193115234375,4.946046829223633,-4.0335564613342285,1.4131776094436646
1761399281516272000,10.259272216796875,7.596951484680176,-12.024055480957031,-2.8599486351013184
1761399281526353000,10.269352783203125,3.6313304901123047,-25.01297378540039,-11.730391502380371
1761399281536427000,10.279427001953126,-3.289707899093628,-33.106571197509766,-16.798168182373047
1761399281546516200,10.28951611328125,-1.0508301258087158,-26.749591827392578,-14.509685516357422
1761399281556597000,10.299596923828124,0.2197428196668625,-12.222175598144531,-11.682357788085938
1761399281566666000,10.309666015625,-0.7359925508499146,-4.2275614738464355,-7.2899699211120605
1761399281576758000,10.319758056640625,-0.6197241544723511,0.1992424726486206,-3.888707399368286
1761399281586837200,10.329837158203125,-0.6488286852836609,1.9830724000930786,-1.8571523427963257
1761399281596918800,10.339918701171875,-1.4280664920806885,1.2336872816085815,-0.7044938206672668
1761399281606977000,10.34997705078125,-2.3231239318847656,-1.4870237112045288,-1.1770493984222412
1761399281617081300,10.360081298828124,-2.5860371589660645,-4.85214900970459,-2.688389301300049
1761399281627161600,10.37016162109375,-1.899499773979187,-9.103877067565918,-4.9158196449279785
1761399281637224400,10.380224365234374,-0.9849147200584412,-13.532402038574219,-6.767884254455566
1761399281647321000,10.390321044921874,-0.723946750164032,-15.661221504211426,-6.729128360748291
1761399281657404200,10.400404052734375,0.06382043659687042,-13.949517250061035,-4.818106651306152
1761399281667472000,10.410471923828124,1.058611273765564,-10.458846092224121,-3.1219642162323
1761399281677565700,10.420565673828126,1.6913539171218872,-8.000598907470703,-1.9221699237823486
1761399281687646200,10.430646240234376,1.47348153591156,-6.879439353942871,-1.4597148895263672
1761399281697727000,10.44072705078125,1.077764868736267,-7.060126781463623,-1.7081133127212524
1761399281707808500,10.45080859375,1.1077672243118286,-7.987954616546631,-2.4649055004119873
1761399281727944000,10.47094384765625,1.4555250406265259,-9.50273609161377,-3.6651487350463867
1761399281738049500,10.481049560546875,1.7539771795272827,-9.49345874786377,-3.8643910884857178
1761399281748130800,10.491130859375,1.9794811010360718,-9.016862869262695,-4.163815975189209
1761399281758210800,10.5012109375,1.8880524635314941,-8.37648868560791,-4.759598255157471
1761399281768292000,10.5112919921875,1.362450361251831,-7.807641506195068,-5.418976306915283
1761399281778366200,10.5213662109375,0.6670844554901123,-7.407959461212158,-5.785812854766846
1761399281788453400,10.531453369140625,-0.04496610164642334,-7.215674877166748,-5.901632308959961
1761399281798534100,10.5415341796875,-0.4132990539073944,-7.264232635498047,-5.539808750152588
1761399281808615000,10.551614990234375,-0.3298760950565338,-7.553930759429932,-5.266570568084717
1761399281818696200,10.5616962890625,0.11716624349355698,-7.948899269104004,-5.178359031677246
1761399281828764700,10.5717646484375,0.5055506229400635,-8.188468933105469,-5.337723255157471
1761399281838855400,10.58185546875,0.5559037327766418,-8.377685546875,-5.486762046813965
1761399281848937700,10.591937744140624,0.3595043420791626,-8.57805061340332,-5.606173038482666
1761399281859018200,10.602018310546875,0.08851064741611481,-8.796521186828613,-5.523797512054443
1761399281869099300,10.612099365234375,-0.16834230720996857,-9.068488121032715,-5.139378547668457
1761399281879167200,10.622167236328124,-0.4206313192844391,-9.367837905883789,-4.580257415771484
1761399281889260800,10.6322607421875,-0.5419126152992249,-9.704747200012207,-3.9828293323516846
1761399281899341000,10.642341064453126,-0.6057330369949341,-9.876680374145508,-3.4216883182525635
1761399281909420000,10.652419921875,-0.726565420627594,-9.84039306640625,-3.0241012573242188
1761399281919500300,10.662500244140626,-0.7856722474098206,-9.727716445922852,-2.8401217460632324
1761399281929571800,10.67257177734375,-0.8026561141014099,-9.67885971069336,-2.775702714920044
1761399281939664400,10.682664306640625,-0.7992892861366272,-9.730484962463379,-2.7841572761535645
1761399281949732000,10.692732177734374,-0.7216273546218872,-9.717540740966797,-3.0481181144714355
1761399281959826000,10.702825927734375,-0.6778583526611328,-9.429862976074219,-3.7135565280914307
1761399281969901300,10.7129013671875,-0.6641665101051331,-9.092504501342773,-4.5988874435424805
1761399281979974400,10.722974365234375,-0.6301239728927612,-8.818069458007812,-5.0849103927612305
1761399281990067700,10.733067626953124,-0.6399252414703369,-8.731728553771973,-5.446285247802734
1761399282010229000,10.75322900390625,-0.4952256679534912,-8.80355453491211,-5.82307243347168
1761399282020309200,10.763309326171875,-0.29373863339424133,-8.713472366333008,-6.015207290649414
1761399282030390500,10.773390625,-0.23156419396400452,-8.611868858337402,-6.083816051483154
1761399282040449500,10.783449462890625,-0.39377135038375854,-8.420631408691406,-5.879560947418213
1761399282050550300,10.79355029296875,-0.5783493518829346,-8.28895092010498,-5.321786880493164
1761399282060630500,10.803630615234376,-0.67950439453125,-8.340426445007324,-4.547711372375488
1761399282070700300,10.8137001953125,-0.5755062103271484,-8.661398887634277,-3.869628429412842
1761399282080793900,10.8237939453125,-0.3048866093158722,-9.087716102600098,-3.402759075164795
1761399282090874600,10.83387451171875,-0.08918401598930359,-9.44295597076416,-3.261800527572632
1761399282100940300,10.843940185546876,-0.08319851011037827,-9.684171676635742,-3.255291223526001
1761399282111026000,10.85402587890625,-0.21615152060985565,-9.830068588256836,-3.28963303565979
1761399282121116700,10.86411669921875,-0.3951180875301361,-9.824233055114746,-3.309385299682617
1761399282131200300,10.8742001953125,-0.5448305010795593,-9.774553298950195,-3.3798646926879883
1761399282141278200,10.8842783203125,-0.555978536605835,-9.808445930480957,-3.5131168365478516
1761399282151358500,10.8943583984375,-0.4703109860420227,-9.933917045593262,-3.7147536277770996
1761399282161436000,10.904435791015626,-0.31693243980407715,-10.04382610321045,-3.844564199447632
1761399282171496200,10.91449609375,-0.16243162751197815,-10.075922966003418,-4.006097793579102
1761399282181588200,10.924588134765624,-0.01818096823990345,-10.033051490783691,-4.230255126953125
1761399282191681800,10.934681884765626,0.023119010031223297,-9.821464538574219,-4.59200382232666
1761399282201754400,10.94475439453125,0.08649053424596786,-9.487547874450684,-4.9601874351501465
1761399282211843300,10.95484326171875,0.2554313838481903,-9.072827339172363,-5.127781391143799
1761399282221923800,10.964923828125,0.48310500383377075,-8.70681381225586,-5.08842658996582
1761399282231997200,10.9749970703125,0.7855974435806274,-8.5711669921875,-4.774412155151367
1761399282242085000,10.985085205078125,1.2191723585128784,-8.537797927856445,-4.335001468658447
1761399282252166000,10.995165771484375,1.7340754270553589,-8.721628189086914,-3.9008278846740723
1761399282262224600,11.005224609375,2.288407802581787,-9.069535255432129,-3.61494517326355
1761399282272327200,11.0153271484375,2.848501443862915,-9.350030899047852,-3.3483657836914062
1761399282282408000,11.025407958984376,3.1605706214904785,-9.47610092163086,-3.1319150924682617
1761399282292487200,11.035487060546876,3.207631826400757,-9.722628593444824,-3.1080479621887207
1761399282302557700,11.0455576171875,2.938957452774048,-10.070311546325684,-3.241300106048584
1761399282312634000,11.055634033203125,2.4547300338745117,-10.125677108764648,-3.2969653606414795
1761399282322731000,11.06573095703125,1.9853169918060303,-10.012177467346191,-3.614795684814453
1761399282332815400,11.0758154296875,1.5197194814682007,-9.543512344360352,-4.010437488555908
1761399282342892300,11.085892333984376,1.0744727849960327,-8.922815322875977,-4.203395366668701
1761399282352973000,11.09597314453125,0.7968202829360962,-8.394145965576172,-4.524292945861816
1761399282363038200,11.1060380859375,0.4023755192756653,-8.076615333557129,-4.864344596862793
1761399282373134600,11.116134521484375,0.19879356026649475,-7.823951721191406,-5.332186222076416
1761399282383215000,11.126215087890625,0.2638859152793884,-7.652317523956299,-5.849857807159424
1761399282393272000,11.13627197265625,0.515426754951477,-7.917325973510742,-6.309170246124268
1761399282403376400,11.14637646484375,0.6125415563583374,-8.186673164367676,-6.438981056213379
1761399282413457400,11.15645751953125,0.3894318640232086,-8.278775215148926,-6.490082263946533
1761399282423536400,11.166536376953125,0.5070470571517944,-8.237101554870605,-6.084639072418213
1761399282433607000,11.17660693359375,0.6646902561187744,-8.329427719116211,-5.592630863189697
1761399282443686700,11.186686767578125,0.8768763542175293,-8.620397567749023,-5.149628639221191
1761399282453780500,11.196780517578125,0.9833435416221619,-8.95917797088623,-4.757054328918457
1761399282463861200,11.206861328125,1.0432734489440918,-9.315614700317383,-4.497058868408203
1761399282473926100,11.216926025390626,0.9145102500915527,-9.75981330871582,-4.250979900360107
1761399282484020700,11.227020751953125,0.8401403427124023,-9.752257347106934,-4.217461109161377
1761399282494103000,11.23710302734375,0.7006781101226807,-9.971924781799316,-3.9322519302368164
1761399282504185600,11.247185546875,0.6303484439849854,-10.020482063293457,-3.802441120147705
1761399282514239200,11.2572392578125,0.6119430065155029,-9.934141159057617,-3.714529037475586
1761399282524332500,11.26733251953125,0.38127660751342773,-9.903241157531738,-3.5727474689483643
1761399282534413800,11.277413818359374,0.19041384756565094,-9.472509384155273,-4.169801712036133
1761399282544506400,11.28750634765625,0.1437269151210785,-9.001749038696289,-4.822969913482666
1761399282554585300,11.29758544921875,0.3264344334602356,-8.81784439086914,-4.999467372894287
1761399282564668200,11.307668212890626,0.704718291759491,-8.697760581970215,-5.345803260803223
1761399282574747600,11.31774755859375,0.8783727288246155,-8.58964729309082,-5.233799934387207
1761399282584829200,11.3278291015625,1.1620856523513794,-9.090784072875977,-4.575095176696777
1761399282594894300,11.337894287109375,1.0888381004333496,-9.244162559509277,-4.372485637664795
1761399282604978200,11.347978271484376,1.2818706035614014,-9.16425609588623,-4.406079292297363
1761399282615069700,11.358069580078125,1.2883049249649048,-8.995763778686523,-3.8600516319274902
1761399282625152300,11.36815234375,1.334468126296997,-8.7298583984375,-3.4672529697418213
1761399282635213600,11.378213623046875,1.4002338647842407,-8.389283180236816,-3.2037410736083984
1761399282645313300,11.388313232421876,1.5198692083358765,-8.2312650680542,-3.054776906967163
1761399282655394300,11.398394287109374,1.624465823173523,-8.275782585144043,-2.919654130935669
1761399282665458700,11.408458740234375,1.666663646697998,-8.321123123168945,-3.0541036128997803
1761399282675553800,11.4185537109375,1.6144400835037231,-8.391377449035645,-2.9757683277130127
1761399282685632500,11.428632568359374,1.599401593208313,-8.261343002319336,-2.973224401473999
1761399282695704600,11.43870458984375,1.6210989952087402,-7.917924404144287,-2.8096704483032227
1761399282705797600,11.448797607421875,1.7194857597351074,-7.256900310516357,-2.556558609008789
1761399282715878700,11.458878662109376,1.893140196800232,-6.528688907623291,-2.2964882850646973
1761399282725946400,11.4689462890625,2.0795137882232666,-5.836165904998779,-2.047940254211426
1761399282736036900,11.479036865234375,2.167949676513672,-5.293056011199951,-2.0165913105010986
1761399282746108200,11.489108154296876,2.112434148788452,-5.073014259338379,-2.237755537033081
1761399282756201200,11.499201171875,1.8649334907531738,-5.055805683135986,-2.750563621520996
1761399282766282000,11.509281982421875,1.6483330726623535,-5.210082054138184,-3.3896658420562744
1761399282776337700,11.519337646484376,1.4975731372833252,-5.50000524520874,-4.0586957931518555
1761399282786444000,11.529444091796876,1.487173318862915,-5.8438720703125,-4.702885627746582
1761399282796509400,11.539509521484375,1.5304933786392212,-6.139032363891602,-5.364208698272705
1761399282806602800,11.549602783203126,1.8035820722579956,-6.4957685470581055,-5.881505966186523
1761399282816670700,11.559670654296875,1.5524901151657104,-6.955978870391846,-6.498761177062988
1761399282826766600,11.5697666015625,1.6379332542419434,-7.696310997009277,-7.195847988128662
1761399282836834600,11.57983447265625,1.683048963546753,-8.50098705291748,-7.587150573730469
1761399282846928000,11.589927978515625,1.846228837966919,-9.251869201660156,-7.732747554779053
1761399282857008400,11.60000830078125,2.182464599609375,-9.85535717010498,-7.673416614532471
1761399282867063600,11.6100634765625,2.6705822944641113,-10.044349670410156,-7.5453267097473145
1761399282877170400,11.62017041015625,3.2130186557769775,-9.675493240356445,-7.2707414627075195
1761399282887250700,11.630250732421874,3.5795559883117676,-8.850016593933105,-7.048679351806641
1761399282897318700,11.640318603515626,3.622502088546753,-7.915230751037598,-6.922534942626953
1761399282907411200,11.6504111328125,3.3360955715179443,-7.074267387390137,-6.830283164978027
1761399282917480400,11.66048046875,2.9536967277526855,-6.511929512023926,-6.678850173950195
1761399282927561000,11.67056103515625,2.87760591506958,-6.646304130554199,-6.389899730682373
1761399282937654500,11.680654541015626,1.9605518579483032,-8.674941062927246,-6.576198577880859
1761399282947735300,11.6907353515625,1.2244096994400024,-12.870704650878906,-7.761552810668945
1761399282957815600,11.700815673828124,0.9729437232017517,-16.35890769958496,-8.722899436950684
1761399282967897000,11.71089697265625,0.8102876543998718,-16.7897891998291,-8.342745780944824
1761399282977964800,11.72096484375,1.1667991876602173,-14.002189636230469,-6.209960460662842
1761399282988058000,11.73105810546875,0.9659107327461243,-10.710086822509766,-4.269684791564941
1761399282998123800,11.741123779296874,0.9218424558639526,-7.438709735870361,-3.474360704421997
1761399283008215300,11.75121533203125,0.8662521243095398,-6.51986026763916,-3.372981309890747
1761399283018300200,11.761300048828126,0.7502081394195557,-5.75289249420166,-3.758896589279175
1761399283028380700,11.771380615234374,-0.7250690460205078,-4.90916109085083,-3.6699371337890625
1761399283038438700,11.781438720703125,-2.4868273735046387,-4.671236991882324,-3.1304187774658203
1761399283048542200,11.791542236328125,-3.1266777515411377,-5.550657272338867,-2.1983261108398438
1761399283058620700,11.80162060546875,-2.347365140914917,-7.505747318267822,-1.073500156402588
1761399283068698400,11.811698486328124,-1.3388077020645142,-9.570746421813965,-0.9103952050209045
1761399283078782000,11.821781982421875,-0.8934861421585083,-10.84131908416748,-1.0591349601745605
1761399283088864000,11.831864013671876,-0.38052842020988464,-11.029937744140625,-1.7424551248550415
1761399283098939600,11.841939697265625,-0.13684359192848206,-10.318560600280762,-3.02791690826416
1761399283109014000,11.852013916015625,-0.3165583610534668,-9.272892951965332,-4.004077911376953
1761399283119107800,11.86210791015625,-0.4246715307235718,-8.482282638549805,-4.451718807220459
1761399283129183200,11.872183349609376,-0.7701099514961243,-8.415019989013672,-4.766556262969971
1761399283139268000,11.88226806640625,-0.8707412481307983,-8.477494239807129,-4.362085819244385
1761399283149349000,11.89234912109375,-0.56600421667099,-8.790611267089844,-3.3867478370666504
1761399283159430000,11.902429931640626,-0.25101709365844727,-8.789488792419434,-2.2434418201446533
1761399283169510400,11.912510498046874,0.30383914709091187,-9.712154388427734,-2.164433240890503
1761399283179591400,11.92259130859375,0.8461258411407471,-10.279430389404297,-2.276362180709839
1761399283189667600,11.93266748046875,1.1502642631530762,-10.289830207824707,-2.5849149227142334
1761399283199752700,11.942752685546875,1.3557167053222656,-10.01307487487793,-3.033902406692505
1761399283209833200,11.952833251953125,1.517774224281311,-9.294665336608887,-3.3371431827545166
1761399283219914200,11.962914306640625,1.4650269746780396,-8.580968856811523,-3.8085763454437256
1761399283229994800,11.972994873046876,1.1749545335769653,-8.18181037902832,-4.2298808097839355
1761399283240075300,11.9830751953125,0.6186018586158752,-8.160711288452148,-4.4921956062316895
1761399283250130000,11.9931298828125,-0.12838906049728394,-7.706860542297363,-4.334627151489258
1761399283260237000,12.003237060546875,-0.7854477763175964,-8.185999870300293,-4.592153549194336
1761399283270317600,12.013317626953125,-1.0654945373535156,-8.925209999084473,-4.449848175048828
1761399283280398300,12.0233984375,-0.970848798751831,-9.038111686706543,-3.6705355644226074
1761399283290479600,12.033479736328125,-0.7960720658302307,-8.874483108520508,-2.753032684326172
1761399283300559400,12.043559326171875,-0.6976104974746704,-8.567127227783203,-2.2054338455200195
1761399283310637600,12.053637451171875,-0.5340566039085388,-8.27503490447998,-2.107944965362549
1761399283320717600,12.063717529296875,-0.35920506715774536,-8.343792915344238,-2.44477915763855
1761399283330801400,12.073801513671874,-0.24892215430736542,-8.564284324645996,-2.8109424114227295
1761399283340883200,12.08388330078125,-0.1404348909854889,-8.48707103729248,-2.9984383583068848
1761399283350964000,12.0939638671875,-0.02753331884741783,-8.39489459991455,-3.1058032512664795
1761399283361043700,12.104043701171875,-0.02910451404750347,-8.425195693969727,-3.0288147926330566
1761399283371124500,12.11412451171875,-0.05177461355924606,-8.50442886352539,-2.884190082550049
1761399283381201400,12.124201416015625,-0.1587654948234558,-8.669404029846191,-2.7269208431243896
1761399283391286000,12.1342861328125,-0.32770636677742004,-8.784850120544434,-2.603320360183716
1761399283401366800,12.14436669921875,-0.4291606545448303,-8.9256591796875,-2.6866683959960938
1761399283411447300,12.154447265625,-0.40783730149269104,-9.078214645385742,-2.991255760192871
1761399283421528300,12.1645283203125,-0.4125508666038513,-9.134029388427734,-3.189525604248047
1761399283431608600,12.174608642578125,-0.39788639545440674,-9.014019966125488,-3.5859904289245605
1761399283441685800,12.184685791015625,-0.5413888692855835,-8.90837574005127,-4.036923408508301
1761399283451769000,12.19476904296875,-0.8580220341682434,-8.988506317138672,-4.406378746032715
1761399283461851100,12.20485107421875,-1.0217255353927612,-9.204508781433105,-4.669142246246338
1761399283471931600,12.214931640625,-0.8989478945732117,-9.556455612182617,-4.3984479904174805
1761399283482012700,12.2250126953125,-0.46844053268432617,-9.900547981262207,-4.289661407470703
1761399283492087300,12.23508740234375,-0.1644517332315445,-10.194136619567871,-4.247912406921387
1761399283502175000,12.245175048828125,-0.2537853717803955,-10.336441993713379,-4.789525508880615
1761399283512250000,12.25525,-0.5821651220321655,-10.134580612182617,-5.443292617797852
1761399283522335000,12.2653349609375,-0.9444377422332764,-9.837699890136719,-6.12481689453125
1761399283532415700,12.275415771484376,-0.9863362908363342,-9.581894874572754,-6.761749267578125
1761399283542496300,12.285496337890624,-0.9422680139541626,-9.424625396728516,-7.213130950927734
1761399283552577000,12.295576904296874,-0.9256582260131836,-9.575610160827637,-7.676109790802002
1761399283562657800,12.30565771484375,-0.9992051124572754,-9.853935241699219,-8.226252555847168
1761399283572734500,12.315734375,-1.052176833152771,-9.918803215026855,-8.585083961486816
1761399283582819600,12.325819580078125,-1.0477625131607056,-9.618330955505371,-8.643142700195312
1761399283592900400,12.335900390625,-1.591246247291565,-9.205256462097168,-8.639476776123047
1761399283602981000,12.345981201171876,-1.5934160947799683,-9.360804557800293,-8.225579261779785
1761399283613061600,12.3560615234375,-1.040505051612854,-9.586084365844727,-6.9666032791137695
1761399283623142700,12.366142578125,-0.24480712413787842,-9.575085639953613,-4.947019100189209
1761399283633190400,12.3761904296875,0.538171648979187,-10.24576187133789,-3.245415210723877
1761399283643299800,12.3862998046875,1.2586019039154053,-11.664326667785645,-2.210371971130371
1761399283653384400,12.396384521484375,1.4749031066894531,-13.10638427734375,-1.4328548908233643
1761399283663465000,12.40646484375,1.1617863178253174,-13.839757919311523,-0.5873275995254517
1761399283673546500,12.41654638671875,0.5713163614273071,-13.611335754394531,0.06718728691339493
1761399283683630800,12.426630859375,-0.027907414361834526,-13.035755157470703,0.43260231614112854
1761399283693707500,12.43670751953125,-0.6037877202033997,-12.531401634216309,0.2536357343196869
1761399283703768800,12.446768798828124,-0.6720224618911743,-12.150050163269043,-0.3275567293167114
1761399283713868800,12.456868896484375,-0.3192518353462219,-11.967941284179688,-1.2381763458251953
1761399283723949000,12.466948974609375,0.3214963972568512,-12.191424369812012,-2.6821043491363525
1761399283734004700,12.477004638671875,0.7959223985671997,-12.24851131439209,-4.047098636627197
1761399283744110600,12.487110595703125,0.8799439668655396,-11.635071754455566,-4.809576988220215
1761399283754191400,12.49719140625,0.6779331564903259,-10.457050323486328,-5.179930210113525
1761399283764272600,12.507272705078124,0.4473416209220886,-9.259350776672363,-5.444040775299072
1761399283774352600,12.5173525390625,0.30122050642967224,-8.357110977172852,-5.497835159301758
1761399283784434200,12.52743408203125,0.1670703887939453,-7.8547773361206055,-5.288492202758789
1761399283794515000,12.537514892578125,0.28221651911735535,-7.728183746337891,-4.737002849578857
1761399283804595700,12.547595703125,0.7065139412879944,-7.795745372772217,-4.0399909019470215
1761399283814675700,12.55767578125,0.8173205852508545,-7.897723197937012,-3.5259857177734375
1761399283824756700,12.5677568359375,0.6479308605194092,-7.829563140869141,-3.114856481552124
1761399283834812000,12.57781201171875,0.39878422021865845,-7.565826892852783,-2.9445688724517822
1761399283844918300,12.587918212890624,0.4521300196647644,-7.408034324645996,-2.7771244049072266
1761399283854999000,12.5979990234375,0.5516390204429626,-7.349824905395508,-2.576310634613037
1761399283865079800,12.608079833984375,0.8293664455413818,-7.275754451751709,-2.201019525527954
1761399283875166500,12.61816650390625,0.9483283162117004,-7.204227924346924,-1.6950948238372803
1761399283885215500,12.628215576171876,0.723946750164032,-7.095591068267822,-1.3225719928741455
1761399283895322400,12.638322265625,1.0719289779663086,-7.081974029541016,-1.0003273487091064
1761399283905377000,12.648376953125,1.3590087890625,-7.059752464294434,-0.81440269947052
1761399283915482600,12.658482666015624,1.3634229898452759,-7.111302852630615,-0.674416720867157
1761399283925564200,12.668564208984375,1.2954127788543701,-7.25293493270874,-0.45983636379241943
1761399283935644700,12.678644775390625,1.1974749565124512,-7.136816024780273,-0.23074118793010712
1761399283945726000,12.688725830078125,1.25957453250885,-6.633659362792969,-0.6876596212387085
1761399283955805400,12.698805419921875,1.3929016590118408,-6.155941486358643,-1.0314520597457886
1761399283986047700,12.7290478515625,2.709787368774414,-5.276745796203613,-1.8136078119277954
1761399283996128300,12.739128173828124,3.0260465145111084,-5.2518310546875,-2.6942250728607178
1761399284006209500,12.74920947265625,3.5025675296783447,-5.6387939453125,-3.6540756225585938
1761399284016308000,12.759307861328125,3.8120927810668945,-6.136488437652588,-4.421417236328125
1761399284026341600,12.769341552734375,3.7712416648864746,-6.760477542877197,-5.022960186004639
1761399284036451800,12.779451904296875,3.7235822677612305,-7.612588882446289,-5.625775337219238
1761399284046508500,12.789508544921874,4.131643772125244,-8.778639793395996,-6.3384246826171875
1761399284056612600,12.799612548828126,4.612654209136963,-9.937807083129883,-7.03019905090332
1761399284066693000,12.809693115234374,5.098602294921875,-10.631153106689453,-7.6484270095825195
1761399284076774700,12.819774658203125,5.625476360321045,-10.694001197814941,-8.194753646850586
1761399284096928000,12.839927978515625,5.367351531982422,-9.353846549987793,-7.643040180206299
1761399284107016200,12.85001611328125,4.987271785736084,-8.693795204162598,-6.758382320404053
1761399284117097200,12.86009716796875,4.677970886230469,-7.914707183837891,-6.042516231536865
1761399284127177500,12.870177490234376,4.202422618865967,-7.006706237792969,-5.553949356079102
1761399284137231600,12.880231689453124,4.186037063598633,-6.161104202270508,-5.221304893493652
1761399284147339500,12.890339599609375,4.207584857940674,-5.6070709228515625,-4.966846466064453
1761399284157394200,12.900394287109375,4.383783340454102,-5.357475280761719,-4.823867321014404
1761399284167500800,12.910500732421875,5.190404891967773,-5.926771640777588,-4.498405933380127
1761399284177581600,12.92058154296875,4.814215660095215,-9.048885345458984,-4.992434501647949
1761399284187636500,12.930636474609376,4.2544965744018555,-14.13633918762207,-7.218443393707275
1761399284197742600,12.94074267578125,4.048819541931152,-18.004247665405273,-8.183082580566406
1761399284207823000,12.950822998046876,1.8582745790481567,-19.037269592285156,-7.744943141937256
1761399284217904000,12.960904052734374,-0.962992787361145,-15.742549896240234,-6.945803642272949
1761399284227988700,12.97098876953125,-0.42781391739845276,-11.153388977050781,-4.3156232833862305
1761399284238061300,12.981061279296876,2.1354033946990967,-7.417611122131348,-1.5568296909332275
1761399284248142800,12.991142822265624,2.421435832977295,-4.906392574310303,0.22453123331069946
