time,seconds_elapsed,z,y,x
1761401814625863400,0.106863525390625,0.005295941606163979,0.0007993874605745077,-0.005812212824821472
1761401814635945200,0.1169453125,0.004146822262555361,-0.002448124112561345,-0.005245979875326157
1761401814646026000,0.12702587890625,0.00489624822512269,-0.0020484302658587694,-0.006245214492082596
1761401814656107000,0.13710693359375,0.006994639988988638,-0.0016154287150129676,-0.003647205187007785
1761401814666188500,0.1471884765625,0.007810681592673063,0.003513973904773593,-0.0038137442898005247
1761401814676266000,0.157265869140625,0.007111217360943556,0.010991577059030533,-0.004080206621438265
1761401814686338600,0.167338623046875,0.005129402503371239,0.022899119183421135,-0.0025813551619648933
1761401814696441000,0.177441162109375,0.00481297867372632,0.030793070793151855,-0.0006161945057101548
1761401814706521900,0.18752197265625,0.005179364234209061,0.038470521569252014,0.0014655436389148235
1761401814716603100,0.19760302734375,0.005712289363145828,0.04361657798290253,0.003697166917845607
1761401814726678500,0.207678466796875,0.00601205974817276,0.04496554285287857,0.0053459033370018005
1761401814736781600,0.217781494140625,0.005129402503371239,0.039186637848615646,0.005029479041695595
1761401814746837500,0.22783740234375,0.0026979325339198112,0.027961906045675278,0.003330780891701579
1761401814756918500,0.23791845703125,-0.00011657733557512984,0.00920960959047079,0.0007993874605745077
1761401814766999600,0.24799951171875,-0.0022482771892100573,-0.0037970903795212507,-0.0012990045361220837
1761401814777107000,0.25810693359375,0.00019984686514362693,-0.00841022189706564,-0.003214203519746661
1761401814787187700,0.268187744140625,0.0013989279977977276,-0.007794027682393789,-0.004346669185906649
1761401814797243100,0.2782431640625,0.0016487365355715156,-0.008193721063435078,-0.005912136286497116
1761401814807324000,0.288323974609375,0.0009326186846010387,-0.008060489781200886,-0.007427641656249762
1761401814817406000,0.298406005859375,-0.0009326186846010387,-0.003946975339204073,-0.008177067153155804
1761401814827512300,0.30851220703125,-0.0007827335502952337,-0.0018652373692020774,-0.006944678258150816
1761401814837593300,0.31859326171875,0.003963629249483347,-0.003114280290901661,-0.006911370437592268
1761401814847650600,0.328650634765625,0.006644907873123884,-0.00954268779605627,-0.008676684461534023
1761401814857755000,0.3387548828125,0.0053125955164432526,-0.0201678778976202,-0.011424578726291656
1761401814867810800,0.348810791015625,0.00489624822512269,-0.026696208864450455,-0.013023353181779385
1761401814877910500,0.35891064453125,0.0045465161092579365,-0.02529728226363659,-0.014155819080770016
1761401814887975700,0.3689755859375,0.002931087277829647,-0.022982388734817505,-0.013522970490157604
1761401814898076400,0.379076416015625,-0.0013822740875184536,-0.022266270592808723,-0.01185758039355278
1761401814908143600,0.3891435546875,-0.004263399634510279,-0.02150019071996212,-0.008443529717624187
1761401814918242800,0.399242919921875,-0.0038803599309176207,-0.021366959437727928,-0.005245979875326157
1761401814928323800,0.40932373046875,-0.00008326952229253948,-0.02371516078710556,-0.0038137442898005247
1761401814938405000,0.419405029296875,0.004796324763447046,-0.028294984251260757,-0.004413284827023745
1761401814948460300,0.429460205078125,0.004912902135401964,-0.03340773284435272,-0.006145291030406952
1761401814958562600,0.4395625,-0.0008660030434839427,-0.0350564680993557,-0.008276990614831448
1761401814968625400,0.44962548828125,-0.009925727732479572,-0.02809513732790947,-0.009476072154939175
1761401814978728700,0.459728759765625,-0.018602412194013596,-0.022432809695601463,-0.0075109112076461315
1761401814988816400,0.46981640625,-0.02229957841336727,-0.01756986975669861,-0.004196783993393183
1761401814998866200,0.4798662109375,-0.02050095610320568,-0.011624425649642944,-0.0018985451897606254
1761401815008946700,0.48994677734375,-0.01745329238474369,-0.012257274240255356,-0.0009159647743217647
1761401815019054000,0.50005419921875,-0.014438935555517673,-0.018319295719265938,0.0012656967155635357
1761401815029109200,0.510109130859375,-0.008276990614831448,-0.02036772482097149,0.003547281725332141
1761401815039213300,0.52021337890625,-0.0038470521103590727,-0.01753656193614006,0.0006328483577817678
1761401815049296600,0.530296630859375,-0.008809915743768215,-0.00962595734745264,-0.0054458267986774445
1761401815059377700,0.540377685546875,-0.015638016164302826,0.002398162381723523,-0.009842458181083202
1761401815069437200,0.550437255859375,-0.018818913027644157,0.010708460584282875,-0.011824272572994232
1761401815079529500,0.560529541015625,-0.01615428738296032,0.015604709275066853,-0.006861408706754446
1761401815089609500,0.570609375,-0.011208077892661095,0.010708460584282875,0.0020151224453002214
1761401815099676700,0.5806767578125,-0.00920960959047079,-0.0016820443561300635,0.01227392815053463
1761401815109784300,0.590784423828125,-0.013889356516301632,-0.008993108756840229,0.02479766495525837
1761401815119865300,0.600865234375,-0.024531202390789986,-0.0038470521103590727,0.03710490092635155
1761401815129915100,0.6109150390625,-0.026995979249477386,0.016420749947428703,0.044116195291280746
1761401815140001300,0.621001220703125,-0.02216634713113308,0.040635526180267334,0.040602218359708786
1761401815150092300,0.63109228515625,-0.01433901209384203,0.05081106349825859,0.029927067458629608
1761401815160186000,0.64118603515625,-0.009192955680191517,0.04566500708460808,0.020717456936836243
1761401815170271000,0.65127099609375,-0.009909073822200298,0.0333910807967186,0.017186829820275307
1761401815180344300,0.66134423828125,-0.013789433054625988,0.02103388123214245,0.020051300525665283
1761401815190407700,0.67140771484375,-0.01715352199971676,0.01678713597357273,0.02701263315975666
1761401815200513300,0.68151318359375,-0.02086734212934971,0.0177031010389328,0.03538954630494118
1761401815210595600,0.691595703125,-0.021217074245214462,0.028944486752152443,0.041434913873672485
1761401815220673000,0.701673095703125,-0.018435873091220856,0.04180129989981651,0.0444992333650589
1761401815230757000,0.711757080078125,-0.016937021166086197,0.04792993888258934,0.04313361272215843
1761401815240838100,0.721838134765625,-0.018818913027644157,0.04305034503340721,0.04038571938872337
1761401815250919400,0.73191943359375,-0.019018759950995445,0.0325583852827549,0.03768778592348099
1761401815260975000,0.74197509765625,-0.018319295719265938,0.021267035976052284,0.03490658476948738
1761401815271102000,0.75210205078125,-0.022183001041412354,0.016387442126870155,0.03077641688287258
1761401815281159000,0.762158935546875,-0.026696208864450455,0.021700037643313408,0.029827143996953964
1761401815291221800,0.7722216796875,-0.02642974629998207,0.03324119374155998,0.02909437194466591
1761401815301325800,0.782325927734375,-0.02438131719827652,0.0411684513092041,0.024864280596375465
1761401815311407000,0.792406982421875,-0.0238816998898983,0.03966960310935974,0.01908537559211254
1761401815321512700,0.8025126953125,-0.026279861107468605,0.030210183933377266,0.011491194367408752
1761401815331543600,0.81254345703125,-0.03159245848655701,0.01850248873233795,0.0017320060869678855
1761401815341624300,0.822624267578125,-0.036655243486166,0.007311064284294844,-0.008876531384885311
1761401815351727000,0.83272705078125,-0.03488992899656296,-0.008210374973714352,-0.018718989565968513
1761401815361787000,0.842786865234375,-0.028711332008242607,-0.02199980802834034,-0.02964395098388195
1761401815371868200,0.8528681640625,-0.026229899376630783,-0.03585585579276085,-0.03993606194853783
1761401815381950000,0.862949951171875,-0.028078483417630196,-0.04716385900974274,-0.04708058759570122
1761401815392036900,0.873036865234375,-0.03177564963698387,-0.055091116577386856,-0.050494641065597534
1761401815402136600,0.883136474609375,-0.03535623848438263,-0.06003732606768608,-0.053542304784059525
1761401815412213800,0.8932138671875,-0.037421323359012604,-0.06506680697202682,-0.05660662427544594
1761401815422313500,0.9033134765625,-0.033374425023794174,-0.07377679646015167,-0.05823870375752449
1761401815432379600,0.913379638671875,-0.02291577309370041,-0.08936485648155212,-0.059171322733163834
1761401815442463700,0.923463623046875,-0.012940083630383015,-0.10525267571210861,-0.05910470709204674
1761401815452505900,0.933505859375,-0.007794027682393789,-0.11852584034204483,-0.05365888029336929
1761401815462649900,0.94364990234375,-0.010575229302048683,-0.1258702129125595,-0.046481046825647354
1761401815472705000,0.953705078125,-0.018186064437031746,-0.12278924137353897,-0.037254784256219864
1761401815482774300,0.963774169921875,-0.021899884566664696,-0.1111481636762619,-0.029660604894161224
1761401815492866600,0.973866455078125,-0.017669793218374252,-0.09537691622972488,-0.02358192950487137
1761401815502948400,0.9839482421875,-0.006811446975916624,-0.08610069006681442,-0.022432809695601463
1761401815513004800,0.9940048828125,0.00046630934230051935,-0.07277756184339523,-0.02258269488811493
1761401815523070000,1.004070068359375,-0.0018985451897606254,-0.059138014912605286,-0.015638016164302826
1761401815533181700,1.014181640625,-0.013139930553734303,-0.09051397442817688,-0.0075109112076461315
1761401815543268400,1.024268310546875,-0.019385145977139473,-0.1092662662267685,-0.009342840872704983
1761401815553354000,1.03435400390625,-0.017686447128653526,-0.12432140111923218,-0.020434340462088585
1761401815563409700,1.04440966796875,-0.018269333988428116,-0.14360661804676056,-0.03555608540773392
1761401815573515800,1.054515869140625,-0.01698698289692402,-0.16510681807994843,-0.055923812091350555
1761401815583596800,1.0645966796875,-0.015871170908212662,-0.17579862475395203,-0.07642477005720139
1761401815593662500,1.074662353515625,-0.0193684920668602,-0.17160183191299438,-0.09645941853523254
1761401815603755000,1.084755126953125,-0.03190888091921806,-0.15483134984970093,-0.10968261957168579
1761401815613836300,1.094836181640625,-0.044282734394073486,-0.14345674216747284,-0.1157279834151268
1761401815623921400,1.10492138671875,-0.052243299782276154,-0.1509176790714264,-0.11384609341621399
1761401815633977600,1.1149775390625,-0.05660662427544594,-0.16643913090229034,-0.11397932469844818
1761401815644074000,1.125073974609375,-0.060770098119974136,-0.1818106770515442,-0.11644410341978073
1761401815654165500,1.13516552734375,-0.06087002158164978,-0.2013956755399704,-0.12007465213537216
1761401815664221000,1.145220947265625,-0.0576225109398365,-0.2186158150434494,-0.12237289547920227
1761401815674323500,1.155323486328125,-0.05480800196528435,-0.2244446724653244,-0.1255204826593399
1761401815684390100,1.16539013671875,-0.054125189781188965,-0.22307905554771423,-0.12846821546554565
1761401815694489300,1.1754892578125,-0.05552411824464798,-0.21863245964050293,-0.13074980676174164
1761401815704545500,1.185545654296875,-0.056473392993211746,-0.20655837655067444,-0.13021688163280487
1761401815714652200,1.195652099609375,-0.05034475401043892,-0.189737930893898,-0.12370520830154419
1761401815724707600,1.20570751953125,-0.039136677980422974,-0.16645577549934387,-0.11291347444057465
1761401815734814500,1.215814453125,-0.026496361941099167,-0.13852718472480774,-0.09752526879310608
1761401815744895500,1.2258955078125,-0.01858575828373432,-0.11492859572172165,-0.08253674954175949
1761401815754951400,1.235951416015625,-0.01986810937523842,-0.111214779317379,-0.06823104619979858
1761401815765057300,1.246057373046875,-0.021533498540520668,-0.12393835932016373,-0.058804936707019806
1761401815775139000,1.25613916015625,-0.02008460834622383,-0.13692840933799744,-0.05300937965512276
1761401815785194800,1.26619482421875,-0.015521439723670483,-0.15053464472293854,-0.04524866119027138
1761401815795300900,1.27630078125,-0.010108919814229012,-0.15354900062084198,-0.03227526694536209
1761401815805374000,1.2863740234375,-0.003197549842298031,-0.1409253478050232,-0.019135337322950363
1761401815815463000,1.296462890625,0.002881125546991825,-0.11476206034421921,-0.005545750260353088
1761401815825519000,1.30651904296875,0.00626186840236187,-0.09189624339342117,0.002331546740606427
1761401815835629300,1.31662939453125,0.00782733503729105,-0.08565103262662888,0.007660796400159597
1761401815845670100,1.326670166015625,0.013156584464013577,-0.09033077955245972,0.008843223564326763
1761401815855788300,1.336788330078125,0.016803789883852005,-0.09744199365377426,0.011990811675786972
1761401815865830700,1.34683056640625,0.015088438056409359,-0.10287117213010788,0.012057427316904068
1761401815875950300,1.356950439453125,0.010325420647859573,-0.1088499203324318,0.010691806674003601
1761401815886031400,1.36703125,0.004713055212050676,-0.11158116161823273,0.005529096350073814
1761401815896100400,1.377100341796875,0.0020484302658587694,-0.1096160039305687,-0.0007161179091781378
1761401815906194000,1.38719384765625,-0.003097626380622387,-0.09790830314159393,-0.007261102553457022
1761401815916274200,1.397274169921875,-0.010375382378697395,-0.07920597493648529,-0.012323889881372452
1761401815926355500,1.40735546875,-0.01795290969312191,-0.05773908644914627,-0.0144222816452384
1761401815936436500,1.4174365234375,-0.021067189052700996,-0.03892017528414726,-0.014189126901328564
1761401815946484500,1.427484375,-0.019468415528535843,-0.0238816998898983,-0.012573698535561562
1761401815956591400,1.43759130859375,-0.01645405776798725,-0.014105857349932194,-0.010908307507634163
1761401815966663400,1.447663330078125,-0.014305704273283482,-0.006994639988988638,-0.006078675389289856
1761401815976761300,1.45776123046875,-0.013456354849040508,0.0015155053697526455,0.0011324655497446656
1761401815986843000,1.4678427734375,-0.012540390715003014,0.012423813343048096,0.010242151096463203
1761401815996889900,1.477889892578125,-0.010292112827301025,0.0238816998898983,0.021350305527448654
1761401816007004400,1.48800439453125,-0.01014222763478756,0.0408187210559845,0.031092841178178787
1761401816017060600,1.498060546875,-0.011008230969309807,0.05777239426970482,0.03931986913084984
1761401816027141600,1.5081416015625,-0.015121745876967907,0.06893051415681839,0.042767226696014404
1761401816037223400,1.518223388671875,-0.020351070910692215,0.07104555517435074,0.041434913873672485
1761401816047329500,1.52832958984375,-0.025830205529928207,0.06679881364107132,0.0383206345140934
1761401816057367600,1.538367431640625,-0.02856144681572914,0.06285183876752853,0.03518969938158989
1761401816067491800,1.548491943359375,-0.02751225046813488,0.06621592491865158,0.03537289425730705
1761401816077572000,1.558572021484375,-0.02224961668252945,0.06734839081764221,0.037721093744039536
1761401816087630800,1.568630859375,-0.01753656193614006,0.07384341210126877,0.0420677624642849
1761401816097735000,1.57873486328125,-0.015454824082553387,0.07344371825456619,0.0457482747733593
1761401816107790800,1.588790771484375,-0.012756891548633575,0.06918031722307205,0.04524866119027138
1761401816117897500,1.5988974609375,-0.007227794732898474,0.06543318927288055,0.04438265785574913
1761401816127981600,1.608981689453125,-0.0009825803572311997,0.06388437747955322,0.042267609387636185
1761401816138057500,1.619057373046875,0.004080206621438265,0.06573296338319778,0.03885355964303017
1761401816148132000,1.629132080078125,0.005962098017334938,0.06288514286279678,0.03364088758826256
1761401816158237200,1.6392373046875,0.007111217360943556,0.056806471198797226,0.031009571626782417
1761401816168302600,1.649302490234375,0.009059724397957325,0.049162328243255615,0.029044410213828087
1761401816178380000,1.659380126953125,0.009492726065218449,0.03835394233465195,0.02601339854300022
1761401816188465200,1.669465087890625,0.009359494782984257,0.028361599892377853,0.022482771426439285
1761401816198546200,1.679546142578125,0.008343606255948544,0.021866576746106148,0.01765313930809498
1761401816208605000,1.68960498046875,0.006844754796475172,0.02103388123214245,0.015521439723670483
1761401816218709200,1.699709228515625,0.005179364234209061,0.023115620017051697,0.01870233565568924
1761401816228789500,1.70978955078125,0.006028713658452034,0.02338208258152008,0.02584685944020748
1761401816238846000,1.719845947265625,0.005712289363145828,0.026146629825234413,0.0329081155359745
1761401816248951800,1.729951904296875,0.009109686128795147,0.03125938028097153,0.03645539656281471
1761401816259010800,1.7400107421875,0.010508613660931587,0.03402392938733101,0.03660528361797333
1761401816269140000,1.750139892578125,0.011291347444057465,0.03144257143139839,0.03460681438446045
1761401816279170300,1.76017041015625,0.011074846610426903,0.03244180604815483,0.03507312387228012
1761401816289276200,1.770276123046875,0.011174770072102547,0.0350564680993557,0.03795424848794937
1761401816299357400,1.780357421875,0.012457121163606644,0.0407521054148674,0.04399961605668068
1761401816309434600,1.7904345703125,0.011574463918805122,0.04384973272681236,0.04841290041804314
1761401816319519500,1.80051953125,0.010575229302048683,0.04220099374651909,0.04889586567878723
1761401816329600800,1.810600830078125,0.011308001354336739,0.03735470771789551,0.04633116349577904
1761401816339682300,1.820682373046875,0.012590352445840836,0.034506890922784805,0.04374980926513672
1761401816349763300,1.830763427734375,0.014655436389148235,0.039602987468242645,0.045981429517269135
1761401816359844000,1.840843994140625,0.014488897286355495,0.04758020490407944,0.051210757344961166
1761401816369922600,1.850922607421875,0.014705398119986057,0.054758038371801376,0.054458267986774445
1761401816380006400,1.86100634765625,0.013473008759319782,0.06116979196667671,0.05084437131881714
1761401816390087700,1.871087646484375,0.012090735137462616,0.06401760876178741,0.04469908028841019
1761401816400168700,1.881168701171875,0.008793261833488941,0.06156948581337929,0.03683843836188316
1761401816410249700,1.891249755859375,0.005479134619235992,0.05657331645488739,0.030160222202539444
1761401816420331000,1.9013310546875,0.003214203519746661,0.055174387991428375,0.0259634368121624
1761401816430412300,1.911412353515625,0.003397396532818675,0.05587385222315788,0.02446458674967289
1761401816440489700,1.92148974609375,0.002914433367550373,0.06308498978614807,0.0238816998898983
1761401816450574300,1.93157421875,0.004196783993393183,0.062102410942316055,0.024814318865537643
1761401816460655600,1.941655517578125,0.005778905004262924,0.05840524286031723,0.024447932839393616
1761401816470736600,1.951736572265625,0.006844754796475172,0.06020386517047882,0.02476435713469982
1761401816480818000,1.96181787109375,0.006395099684596062,0.06141960248351097,0.027778713032603264
1761401816490899000,1.97189892578125,0.004346669185906649,0.06148621812462807,0.03085968643426895
1761401816500976400,1.981976318359375,0.0017153521766886115,0.06141960248351097,0.02909437194466591
1761401816511061200,1.992061279296875,-0.0004330015217419714,0.06679881364107132,0.022449463605880737
1761401816521142300,2.002142333984375,-0.0020650841761380434,0.06698200851678848,0.015937786549329758
1761401816531223600,2.0122236328125,-0.002947741188108921,0.0647004172205925,0.013189892284572124
1761401816541305600,2.0223056640625,-0.0054458267986774445,0.05843855068087578,0.014522205106914043
1761401816551385900,2.0323857421875,-0.007694104220718145,0.05277622491121292,0.016937021166086197
1761401816561463000,2.042463134765625,-0.007694104220718145,0.0559571199119091,0.0173200611025095
1761401816571548700,2.052548583984375,-0.0037304747384041548,0.056839779019355774,0.015621363185346127
1761401816581629200,2.062629150390625,0.0010825038189068437,0.0535922646522522,0.012990045361220837
1761401816591710500,2.07271044921875,0.002764548175036907,0.053875382989645004,0.012307235971093178
1761401816601791700,2.082791748046875,0.002881125546991825,0.049412135034799576,0.012956737540662289
1761401816611872500,2.09287255859375,0.002997702918946743,0.048163093626499176,0.009692572988569736
1761401816621953800,2.102953857421875,-0.0004996171337552369,0.04996171593666077,0.003130934201180935
1761401816632031000,2.113031005859375,-0.007061255630105734,0.057555895298719406,-0.004163476172834635
1761401816642091300,2.12309130859375,-0.00920960959047079,0.05925459414720535,-0.008127105422317982
1761401816652196900,2.13319677734375,-0.0045298621989786625,0.05252641439437866,-0.010075611993670464
1761401816662280200,2.1432802734375,-0.00023315467115025967,0.04583154618740082,-0.011124808341264725
1761401816672359400,2.153359375,-0.0009825803572311997,0.03682178258895874,-0.01144123263657093
1761401816682440200,2.163440185546875,-0.005262633785605431,0.02809513732790947,-0.01135796308517456
1761401816692502800,2.173502685546875,-0.005778905004262924,0.024064892902970314,-0.013223200105130672
1761401816702603800,2.183603759765625,-0.003563935635611415,0.019851455464959145,-0.014638782478868961
1761401816712684300,2.193684326171875,-0.003414050443097949,0.019851455464959145,-0.01333977747708559
1761401816722736000,2.203736083984375,-0.003697166917845607,0.01900210604071617,-0.010092265903949738
1761401816732845800,2.213845703125,-0.0054125189781188965,0.0210005734115839,-0.007810681592673063
1761401816742927400,2.22392724609375,-0.002314892830327153,0.0255470909178257,-0.004713055212050676
1761401816752971800,2.2339716796875,0.0003663859097287059,0.02604670636355877,-0.0010325420880690217
1761401816763064300,2.244064208984375,0.0022149693686515093,0.022199654951691628,0.004429938737303019
1761401816773160000,2.254159912109375,0.004912902135401964,0.02011791616678238,0.010758422315120697
1761401816783252000,2.264251953125,0.0074609494768083096,0.019601646810770035,0.0164873655885458
1761401816793333000,2.2743330078125,0.00866003055125475,0.020767418667674065,0.019385145977139473
1761401816803389000,2.284388916015625,0.009009762667119503,0.018885528668761253,0.02103388123214245
1761401816813495300,2.294495361328125,0.009409456513822079,0.013889356516301632,0.023348774760961533
1761401816823572500,2.304572509765625,0.008726646192371845,0.007177833002060652,0.022949080914258957
1761401816833658000,2.314658203125,0.007777373772114515,0.004363323096185923,0.02083403430879116
1761401816843755800,2.324755859375,0.006761485245078802,0.003597243456169963,0.018219372257590294
1761401816853794300,2.334794189453125,0.006495022680610418,0.0011657733703032136,0.013856048695743084
1761401816863900700,2.344900634765625,0.00662825396284461,-0.002414816292002797,0.01039203628897667
1761401816873974300,2.354974365234375,0.006145291030406952,-0.0045964778400957584,0.00634513795375824
1761401816884059400,2.365059326171875,0.006844754796475172,-0.004979517310857773,0.003064318560063839
1761401816894145300,2.375145263671875,0.00704460171982646,-0.005962098017334938,0.0005162710440345109
1761401816904200700,2.38520068359375,0.007893950678408146,-0.0053459033370018005,0.0011990811908617616
1761401816914293200,2.395293212890625,0.010891653597354889,-0.008227028883993626,0.002348200650885701
1761401816924363000,2.405363037109375,0.011208077892661095,-0.011990811675786972,0.00567898154258728
1761401816934469000,2.41546923828125,0.011574463918805122,-0.01260700635612011,0.00997568853199482
1761401816944550400,2.42555029296875,0.013040007092058659,-0.009759188629686832,0.011807618662714958
1761401816954634200,2.43563427734375,0.016437403857707977,-0.005179364234209061,0.012573698535561562
1761401816964712200,2.445712158203125,0.016803789883852005,-0.003097626380622387,0.013323123566806316
1761401816974767900,2.455767822265625,0.014022587798535824,-0.00472970912232995,0.011741003021597862
1761401816984875000,2.465875,0.011890888214111328,-0.008293644525110722,0.009559341706335545
1761401816994956500,2.47595654296875,0.009592649526894093,-0.009825804270803928,0.00791060458868742
1761401817005012000,2.486011962890625,0.008193721063435078,-0.010958269238471985,0.006495022680610418
1761401817015118000,2.4961181640625,0.0075109112076461315,-0.01039203628897667,0.0025313934311270714
1761401817025186300,2.506186279296875,0.007427641656249762,-0.008709992282092571,-0.0017986217280849814
1761401817035298800,2.516298828125,0.008093797601759434,-0.009392802603542805,-0.003447358263656497
1761401817045336300,2.52633642578125,0.005895482376217842,-0.009759188629686832,-0.003380742622539401
1761401817055442700,2.536442626953125,0.004912902135401964,-0.004829632584005594,-0.00009992343257181346
1761401817065523500,2.5465234375,0.006661561783403158,0.003980283159762621,0.0007993874605745077
1761401817075581000,2.556580810546875,0.008676684461534023,0.008776607923209667,0.00003330780964461155
1761401817085685500,2.566685546875,0.008293644525110722,0.011790964752435684,-0.0021150459069758654
1761401817095750400,2.57675048828125,0.00696133216843009,0.01342304702848196,0.0006661561783403158
1761401817105868000,2.586867919921875,0.006578292232006788,0.01269027590751648,0.0017986217280849814
1761401817115904000,2.596904052734375,0.006161944940686226,0.010175535455346107,-0.0007327718194574118
1761401817126011100,2.60701123046875,0.005828866735100746,0.007410987745970488,-0.00551244243979454
1761401817136092200,2.617092041015625,0.0045964778400957584,0.005179364234209061,-0.008360260166227818
1761401817146161700,2.62716162109375,0.00472970912232995,0.0009825803572311997,-0.008709992282092571
1761401817156257800,2.6372578125,0.00654498441144824,-0.0011491194600239396,-0.006611600052565336
1761401817166334700,2.647334716796875,0.006378445774316788,-0.0016653904458507895,-0.0009825803572311997
1761401817176416500,2.65741650390625,0.006661561783403158,-0.004180130083113909,0.005062786862254143
1761401817186497800,2.667497802734375,0.006361791864037514,-0.004296707455068827,0.007810681592673063
1761401817196568800,2.67756884765625,0.008709992282092571,-0.002448124112561345,0.010092265903949738
1761401817206659600,2.68765966796875,0.011457886546850204,-0.0021150459069758654,0.01014222763478756
1761401817216717800,2.6977177734375,0.012157350778579712,-0.003430704353377223,0.007977220229804516
1761401817226796800,2.707796875,0.012057427316904068,-0.003513973904773593,0.006211906671524048
1761401817236902700,2.717902587890625,0.012007465586066246,-0.0075775268487632275,0.004413284827023745
1761401817246985000,2.72798486328125,0.012490428984165192,-0.009309533052146435,0.00559571199119091
1761401817257044000,2.7380439453125,0.012573698535561562,-0.007677450310438871,0.0075442190282046795
1761401817267146800,2.748146728515625,0.012057427316904068,-0.00662825396284461,0.00849349144846201
1761401817277227800,2.758227783203125,0.009559341706335545,-0.005529096350073814,0.004962863866239786
1761401817287291000,2.768290771484375,0.008443529717624187,-0.006195252761244774,0.0026646247133612633
1761401817297364700,2.77836474609375,0.0103087667375803,-0.009609303437173367,0.003064318560063839
1761401817307446300,2.7884462890625,0.010208843275904655,-0.008993108756840229,0.00634513795375824
1761401817317552000,2.79855224609375,0.010441998019814491,-0.004146822262555361,0.009592649526894093
1761401817327633200,2.808633056640625,0.01284016016870737,-0.0006828100886195898,0.010991577059030533
1761401817337689300,2.818689453125,0.01244046725332737,0.0016653904458507895,0.012090735137462616
1761401817347772000,2.82877197265625,0.014105857349932194,0.003397396532818675,0.010808384045958519
1761401817357876700,2.838876708984375,0.01590447872877121,0.0044465926475822926,0.01227392815053463
1761401817367958800,2.848958740234375,0.015837863087654114,0.0025813551619648933,0.013789433054625988
1761401817378037800,2.859037841796875,0.01408920343965292,0.0054624807089567184,0.015105091966688633
1761401817388116000,2.869115966796875,0.013273161835968494,0.0045964778400957584,0.01657063513994217
1761401817398197000,2.879197021484375,0.012956737540662289,0.007077909540385008,0.017803024500608444
1761401817408276200,2.889276123046875,0.01367285568267107,0.005212672054767609,0.01878560520708561
1761401817418338000,2.899338134765625,0.0135895861312747,0.003480666084215045,0.0189188364893198
1761401817428452600,2.90945263671875,0.014555512927472591,0.0020983919966965914,0.018985452130436897
1761401817438526500,2.9195263671875,0.016837097704410553,0.0017320060869678855,0.017936255782842636
1761401817448580900,2.929580810546875,0.018252680078148842,0.0016154287150129676,0.017936255782842636
1761401817458684400,2.939684326171875,0.018186064437031746,0.003414050443097949,0.015921132639050484
1761401817468769000,2.94976904296875,0.015937786549329758,0.003080972470343113,0.015205015428364277
1761401817478804200,2.95980419921875,0.015071784146130085,0.003230857430025935,0.01400593388825655
1761401817488906000,2.969906005859375,0.016553981229662895,0.003064318560063839,0.015288284979760647
1761401817499012600,2.9800126953125,0.017803024500608444,0.0020817380864173174,0.01433901209384203
1761401817509093600,2.99009375,0.017170175909996033,0.0007993874605745077,0.01202411949634552
1761401817519170800,3.0001708984375,0.015404862351715565,0.0045631700195372105,0.009609303437173367
1761401817529279000,3.010279052734375,0.012673621997237206,0.006445060949772596,0.00782733503729105
1761401817539311400,3.020311279296875,0.010758422315120697,0.009575995616614819,0.005629019811749458
1761401817549393000,3.030392822265625,0.009659265168011189,0.00866003055125475,0.003014356829226017
1761401817559500000,3.0405,0.009359494782984257,0.012806852348148823,0.0013156584464013577
1761401817569580300,3.050580322265625,0.01119142398238182,0.017553215846419334,-0.003097626380622387
1761401817579657200,3.0606572265625,0.012390505522489548,0.0201678778976202,-0.007627488579601049
1761401817589739500,3.070739501953125,0.010208843275904655,0.02662959322333336,-0.010591883212327957
1761401817599823600,3.08082373046875,0.009559341706335545,0.026363130658864975,-0.012940083630383015
1761401817609905000,3.09090478515625,0.009892419911921024,0.022682618349790573,-0.013239854015409946
1761401817619986700,3.100986572265625,0.007927258498966694,0.02091730386018753,-0.010758422315120697
1761401817630067700,3.111067626953125,0.005295941606163979,0.01870233565568924,-0.0074609494768083096
1761401817640123000,3.121122802734375,0.005279287695884705,0.015238323248922825,-0.0038970138411968946
1761401817650225400,3.131225341796875,0.00626186840236187,0.008127105422317982,-0.0009825803572311997
1761401817660310300,3.141310302734375,0.008376914076507092,-0.0005995405954308808,0.003314126981422305
1761401817670402800,3.15140283203125,0.010541921481490135,-0.002964395098388195,0.007943912409245968
1761401817680473300,3.161473388671875,0.011407924816012383,-0.0016653904458507895,0.012706929817795753
1761401817690553900,3.171553955078125,0.013939318247139454,0.002914433367550373,0.016170941293239594
1761401817700635100,3.18163525390625,0.015854516997933388,0.005862174555659294,0.01745329238474369
1761401817710731300,3.191731201171875,0.017603177577257156,0.0053958650678396225,0.01547147799283266
1761401817720794000,3.201794189453125,0.01858575828373432,0.003597243456169963,0.014971860684454441
1761401817730878500,3.21187841796875,0.02008460834622383,0.0019651607144623995,0.015138399787247181
1761401817740959700,3.221959716796875,0.018852220848202705,-0.0001498851488577202,0.016021056100726128
1761401817751040800,3.232040771484375,0.016054363921284676,-0.0044799004681408405,0.0144222816452384
1761401817761122600,3.24212255859375,0.013389739207923412,-0.009109686128795147,0.012473775073885918
1761401817771204000,3.2522041015625,0.010608537122607231,-0.012457121163606644,0.009259571321308613
1761401817781280300,3.2622802734375,0.010408690199255943,-0.01950172334909439,0.005129402503371239
1761401817791365400,3.272365478515625,0.011391270905733109,-0.023148927837610245,0.0025980090722441673
1761401817801446400,3.2824462890625,0.012407159432768822,-0.024148162454366684,-0.0025647012516856194
1761401817811502300,3.29250244140625,0.013289815746247768,-0.027495596557855606,-0.006445060949772596
1761401817821609500,3.302609375,0.014222434721887112,-0.024531202390789986,-0.010275458917021751
1761401817831690500,3.3126904296875,0.013040007092058659,-0.024447932839393616,-0.011974157765507698
1761401817841765000,3.32276513671875,0.012157350778579712,-0.026529669761657715,-0.010458651930093765
1761401817851852500,3.3328525390625,0.00997568853199482,-0.027945252135396004,-0.0094594182446599
1761401817861933300,3.342933349609375,0.01005895808339119,-0.02609666809439659,-0.006411753129214048
1761401817872014800,3.353014892578125,0.008893185295164585,-0.02238284796476364,-0.006478368770331144
1761401817882070300,3.3630703125,0.008360260166227818,-0.01945176161825657,-0.0053792111575603485
1761401817892151600,3.373151611328125,0.0074609494768083096,-0.019884763285517693,-0.006728177424520254
1761401817902251000,3.3832509765625,0.006894716527312994,-0.017553215846419334,-0.0074942572973668575
1761401817912313900,3.39331396484375,0.005795558914542198,-0.015571401454508305,-0.006861408706754446
1761401817922395000,3.403394775390625,0.006861408706754446,-0.014788667671382427,-0.003164242021739483
1761401817932476200,3.41347607421875,0.00937614869326353,-0.015621363185346127,-0.0014322358183562756
1761401817942545400,3.42354541015625,0.010725114494562149,-0.014388973824679852,-0.00011657733557512984
1761401817952626700,3.433626708984375,0.008476837538182735,-0.01765313930809498,0.00039969373028725386
1761401817962729000,3.44372900390625,0.0074609494768083096,-0.01612097956240177,0.0017986217280849814
1761401817972809700,3.453809814453125,0.008676684461534023,-0.011491194367408752,0.003713820828124881
1761401817982890800,3.463890869140625,0.011374616995453835,-0.00929287914186716,0.003547281725332141
1761401817992988200,3.47398828125,0.014988514594733715,-0.01227392815053463,0.002797855995595455
1761401818003069000,3.48406884765625,0.014772013761103153,-0.01753656193614006,0.00018319295486435294
1761401818013150700,3.494150634765625,0.013189892284572124,-0.023515313863754272,-0.0018152756383642554
1761401818023231500,3.5042314453125,0.011541156098246574,-0.02676282450556755,-0.0026146629825234413
1761401818033313300,3.514313232421875,0.008460183627903461,-0.02563035860657692,-0.004180130083113909
1761401818043390000,3.524389892578125,0.007327718194574118,-0.024281393736600876,-0.002947741188108921
1761401818053474600,3.534474609375,0.009742534719407558,-0.022316232323646545,-0.0015155053697526455
1761401818063516700,3.5445166015625,0.014239088632166386,-0.021067189052700996,-0.0012990045361220837
1761401818073637600,3.5546376953125,0.014322358183562756,-0.019568338990211487,0.0000666156192892231
1761401818083718100,3.56471826171875,0.014538859017193317,-0.01582120917737484,0.0017486599972471595
1761401818093799400,3.57479931640625,0.015571401454508305,-0.013572932220995426,0.0007327718194574118
1761401818103876900,3.584876953125,0.01538820844143629,-0.013456354849040508,-0.003464012173935771
1761401818113962200,3.594962158203125,0.013789433054625988,-0.010458651930093765,-0.004912902135401964
1761401818124043300,3.605043212890625,0.014921898953616619,-0.006911370437592268,-0.005895482376217842
1761401818134123800,3.615123779296875,0.015354900620877743,-0.008293644525110722,-0.0053958650678396225
1761401818144180000,3.625179931640625,0.015871170908212662,-0.010025650262832642,-0.003996937070041895
1761401818154286000,3.6352861328125,0.015488131903111935,-0.013373085297644138,-0.0018319295486435294
1761401818164368100,3.6453681640625,0.014905245043337345,-0.014455589465796947,-0.0009992342675104737
1761401818174449000,3.655448974609375,0.01483862940222025,-0.01748660020530224,0.0009326186846010387
1761401818184504300,3.66550439453125,0.0135895861312747,-0.015438170172274113,0.002464778022840619
1761401818194585600,3.675585693359375,0.01284016016870737,-0.012290582060813904,0.004629785660654306
1761401818204692000,3.68569189453125,0.014655436389148235,-0.010258805006742477,0.006278522312641144
1761401818214773500,3.6957734375,0.014272396452724934,-0.009043070487678051,0.004046898800879717
1761401818224832500,3.70583251953125,0.009909073822200298,-0.011174770072102547,0.0025813551619648933
1761401818234935600,3.715935546875,0.008876531384885311,-0.010258805006742477,0.002314892830327153
1761401818245017000,3.72601708984375,0.009026416577398777,-0.009442764334380627,0.002814509905874729
1761401818255098000,3.73609814453125,0.009476072154939175,-0.008510145358741283,0.0021316998172551394
1761401818265179400,3.746179443359375,0.00807714369148016,-0.009742534719407558,0.0011657733703032136
1761401818275170300,3.75617041015625,0.007943912409245968,-0.00929287914186716,-0.00008326952229253948
1761401818286036700,3.76703662109375,0.01014222763478756,-0.005778905004262924,-0.0018319295486435294
1761401818305504000,3.78650390625,0.01135796308517456,-0.003513973904773593,-0.0014322358183562756
1761401818315559700,3.7965595703125,0.012973391450941563,-0.002831163816154003,0.00018319295486435294
1761401818325641500,3.806641357421875,0.014455589465796947,-0.0016320826252922416,0.0018485834589228034
1761401818335747000,3.8167470703125,0.013889356516301632,0.0013323123566806316,0.005695635452866554
1761401818345803500,3.826803466796875,0.012174004688858986,0.0027312403544783592,0.007810681592673063
1761401818355909400,3.836909423828125,0.010974923148751259,0.003430704353377223,0.009093032218515873
1761401818365991000,3.846990966796875,0.010575229302048683,0.004330015275627375,0.00874330010265112
1761401818376072700,3.85707275390625,0.008809915743768215,0.0012823506258428097,0.007744065951555967
1761401818386152700,3.867152587890625,0.00799387414008379,-0.004130168352276087,0.004413284827023745
1761401818396234000,3.87723388671875,0.005529096350073814,-0.012257274240255356,0.0012490428052842617
1761401818406315000,3.88731494140625,0.0016986982664093375,-0.016220903024077415,0.0009992342675104737
1761401818416396800,3.897396728515625,-0.0008326952229253948,-0.01227392815053463,0.003147588111460209
1761401818426477800,3.907477783203125,-0.0012656967155635357,-0.004763016942888498,0.003164242021739483
1761401818436533200,3.917533203125,0.0015488131903111935,-0.0021816615480929613,-0.0007660796400159597
1761401818446597400,3.927597412109375,0.004979517310857773,-0.00024980856687761843,-0.004346669185906649
1761401818456720600,3.937720703125,0.008310298435389996,0.00044965543202124536,-0.004962863866239786
1761401818466802200,3.94780224609375,0.013622893951833248,-0.002831163816154003,-0.003597243456169963
1761401818476883500,3.957883544921875,0.018802259117364883,-0.003031010739505291,-0.002764548175036907
1761401818486964500,3.967964599609375,0.02003464661538601,0.0004330015217419714,-0.003980283159762621
1761401818497045500,3.97804541015625,0.01595444045960903,0.0019151991000398993,-0.004213437903672457
1761401818507126300,3.988126220703125,0.008626722730696201,0.0020817380864173174,0
1761401818517207600,3.99820751953125,0.0017819678178057075,0.0009825803572311997,0.005745597183704376
1761401818527288600,4.00828857421875,-0.002331546740606427,0.00004996171628590673,0.010758422315120697
1761401818537369900,4.018369873046875,-0.0014155819080770016,-0.0020484302658587694,0.012973391450941563
1761401818547452000,4.028451904296875,-0.0001498851488577202,-0.008043835870921612,0.010758422315120697
1761401818557532700,4.03853271484375,-0.0003330780891701579,-0.015687977895140648,0.00832695234566927
1761401818567599600,4.048599609375,0.0011990811908617616,-0.014938552863895893,0.007644142489880323
1761401818577694500,4.058694580078125,0.004946209955960512,-0.006128637120127678,0.008676684461534023
1761401818587775500,4.068775390625,0.008210374973714352,0.0082436827942729,0.010675152763724327
1761401818597845800,4.078845703125,0.012124042958021164,0.023015696555376053,0.013522970490157604
1761401818607937800,4.088937744140625,0.01595444045960903,0.028328292071819305,0.01342304702848196
1761401818617993700,4.09899365234375,0.017186829820275307,0.021816615015268326,0.01039203628897667
1761401818628096000,4.109095947265625,0.014638782478868961,0.010941615328192711,0.007410987745970488
1761401818638179000,4.119178955078125,0.008959800936281681,0.0019651607144623995,0.005812212824821472
1761401818648262100,4.12926220703125,0.004146822262555361,-0.005529096350073814,0.006328484043478966
1761401818658343400,4.139343505859375,0.0017986217280849814,-0.010108919814229012,0.00601205974817276
1761401818668424700,4.1494248046875,-0.00024980856687761843,-0.014222434721887112,0.005012825131416321
1761401818678502000,4.159501953125,-0.0008326952229253948,-0.017419984564185143,0.0018652373692020774
1761401818688583200,4.169583251953125,-0.0007161179091781378,-0.0201678778976202,-0.0012823506258428097
1761401818698668000,4.17966796875,0.0004330015217419714,-0.02274923399090767,-0.0037304747384041548
1761401818708749000,4.1897490234375,0.0014821975491940975,-0.02438131719827652,-0.0045298621989786625
1761401818718830300,4.199830322265625,0.0044632465578615665,-0.023931661620736122,-0.00551244243979454
1761401818728914000,4.209913818359375,0.0061785988509655,-0.020900649949908257,-0.007810681592673063
1761401818738988800,4.21998876953125,0.005728943273425102,-0.015404862351715565,-0.009992342442274094
1761401818749073700,4.23007373046875,0.00609532929956913,-0.010491959750652313,-0.01277354545891285
1761401818759154700,4.24015478515625,0.00559571199119091,-0.00712787127122283,-0.013239854015409946
1761401818769236200,4.250236328125,0.003563935635611415,-0.007144525181502104,-0.011790964752435684
1761401818779317000,4.26031689453125,0.0020983919966965914,-0.008759954012930393,-0.009093032218515873
1761401818789398300,4.270398193359375,0.0021483537275344133,-0.012890121899545193,-0.005778905004262924
1761401818799475500,4.280475341796875,0.003497319994494319,-0.01598774828016758,-0.00489624822512269
1761401818809560300,4.290560302734375,0.0037471286486834288,-0.014472243376076221,-0.002947741188108921
1761401818819637000,4.300636962890625,0.003930321428924799,-0.009492726065218449,-0.0007993874605745077
1761401818829723000,4.310722900390625,0.003963629249483347,-0.002897779457271099,0.0022982389200478792
1761401818839804000,4.320803955078125,0.004746363032609224,-0.0005162710440345109,0.005229325965046883
1761401818849885000,4.330885009765625,0.0026146629825234413,0.0007827335502952337,0.00791060458868742
1761401818859966000,4.340966064453125,0.0012490428052842617,0.0025980090722441673,0.008343606255948544
1761401818870043400,4.35104345703125,0.002964395098388195,0.003464012173935771,0.007427641656249762
1761401818880103000,4.36110302734375,0.005728943273425102,0.00016653904458507895,0.00662825396284461
1761401818890208800,4.371208740234375,0.007227794732898474,-0.00046630934230051935,0.005579058080911636
1761401818900290600,4.38129052734375,0.007960566319525242,-0.0026646247133612633,0.002481431933119893
1761401818910371600,4.39137158203125,0.007760719861835241,-0.005545750260353088,-0.0019485069205984473
1761401818920452900,4.401452880859375,0.004962863866239786,-0.0074776033870875835,-0.004429938737303019
1761401818930530000,4.411530029296875,0.004429938737303019,-0.00646171486005187,-0.003414050443097949
1761401818940615200,4.421615234375,0.004296707455068827,-0.0021983154583722353,-0.002381508471444249
1761401818950696400,4.431696533203125,0.003680513007566333,0.00024980856687761843,0.00009992343257181346
1761401818960777500,4.441777587890625,0.002398162381723523,0.0021483537275344133,0.0001498851488577202
1761401818970858500,4.4518583984375,-0.00008326952229253948,0.0008826569537632167,-0.0017320060869678855
1761401818980902100,4.461902099609375,-0.0015987749211490154,-0.002864471636712551,-0.003547281725332141
1761401818991020500,4.4720205078125,-0.003380742622539401,-0.007361026015132666,-0.004413284827023745
1761401819001066000,4.48206591796875,-0.004996171221137047,-0.00592879019677639,-0.0017486599972471595
1761401819011183000,4.49218310546875,-0.005479134619235992,0.003963629249483347,0.0013489662669599056
1761401819021264100,4.50226416015625,-0.002981049008667469,0.013106622733175755,0.005146056413650513
1761401819031345400,4.512345458984375,0.0012990045361220837,0.017086906358599663,0.008759954012930393
1761401819041426700,4.5224267578125,0.004030244890600443,0.01878560520708561,0.010075611993670464
1761401819051507500,4.532507568359375,0.004330015275627375,0.01712021417915821,0.008976454846560955
1761401819061584400,4.54258447265625,0.0037970903795212507,0.016137633472681046,0.005878828465938568
1761401819071648000,4.55264794921875,0.0015321592800319195,0.016137633472681046,0.0022982389200478792
1761401819081751300,4.562751220703125,0.0006661561783403158,0.018802259117364883,0.0025647012516856194
1761401819091832000,4.57283203125,-0.00016653904458507895,0.01995137706398964,0.003946975339204073
1761401819101913300,4.582913330078125,0.00004996171628590673,0.01820271834731102,0.005062786862254143
1761401819111989500,4.592989501953125,0.0004163476114626974,0.01598774828016758,0.0038303982000797987
1761401819122071600,4.603071533203125,-0.0003497319994494319,0.01433901209384203,0.002981049008667469
1761401819132156400,4.613156494140625,-0.0018485834589228034,0.010042304173111916,0.0012656967155635357
1761401819142237700,4.62323779296875,-0.003513973904773593,0.009575995616614819,0.0012823506258428097
1761401819152319000,4.633319091796875,-0.002381508471444249,0.01160777173936367,0.0025813551619648933
1761401819162399700,4.643399658203125,-0.0009825803572311997,0.011990811675786972,0.004429938737303019
1761401819172481000,4.65348095703125,0.0006828100886195898,0.01185758039355278,0.004180130083113909
1761401819182562300,4.663562255859375,0.0025813551619648933,0.011724349111318588,0.004230091813951731
1761401819192639500,4.673639404296875,0.0021983154583722353,0.014072549529373646,0.004146822262555361
1761401819202724900,4.683724853515625,0.0005495788645930588,0.01367285568267107,0.003613897366449237
1761401819212805600,4.6938056640625,-0.0000666156192892231,0.014988514594733715,0.0017153521766886115
1761401819222874400,4.703874267578125,0.0002831163874361664,0.01925191469490528,0.0013656201772391796
1761401819232968000,4.713968017578125,0.0014155819080770016,0.021067189052700996,0.003180895932018757
1761401819243049000,4.724049072265625,0.0011324655497446656,0.02279919572174549,0.0053958650678396225
1761401819253126400,4.73412646484375,0.002364854561164975,0.018885528668761253,0.00489624822512269
1761401819263218700,4.74421875,0.002881125546991825,0.014455589465796947,0.0025313934311270714
1761401819273292300,4.754292236328125,0.002781202085316181,0.011208077892661095,-0.0007660796400159597
1761401819283373600,4.76437353515625,0.0022649310994893312,0.012590352445840836,-0.0012823506258428097
1761401819293454800,4.774454833984375,0.0005828866851516068,0.015354900620877743,-0.0007827335502952337
1761401819303535900,4.784535888671875,0.002481431933119893,0.017719754949212074,0.0011158116394653916
1761401819313617000,4.794616943359375,0.004663093481212854,0.0189188364893198,0.003530627815052867
1761401819323694000,4.804694091796875,0.006578292232006788,0.019684916362166405,0.005645673722028732
1761401819333780500,4.814780517578125,0.007794027682393789,0.01928522251546383,0.00832695234566927
1761401819343835000,4.8248349609375,0.008543453179299831,0.019351838156580925,0.00997568853199482
1761401819353941800,4.834941650390625,0.007111217360943556,0.02288246527314186,0.011557810008525848
1761401819364007200,4.845007080078125,0.004330015275627375,0.02604670636355877,0.011924196034669876
1761401819374103800,4.855103759765625,0.004713055212050676,0.024564510211348534,0.011474540457129478
1761401819384172000,4.865172119140625,0.004679747391492128,0.022782541811466217,0.011424578726291656
1761401819394265900,4.875265869140625,0.004080206621438265,0.023365428671240807,0.014322358183562756
1761401819404347100,4.88534716796875,0.004346669185906649,0.02354862168431282,0.017886294052004814
1761401819414428200,4.89542822265625,0.005662327632308006,0.022865811362862587,0.020067954435944557
1761401819434565600,4.915565673828125,0.003613897366449237,0.02091730386018753,0.016670558601617813
1761401819444672500,4.925672607421875,0.0019485069205984473,0.01886887475848198,0.014322358183562756
1761401819454752800,4.935752685546875,0.0026812786236405373,0.01707025244832039,0.01408920343965292
1761401819464833800,4.945833740234375,0.0018985451897606254,0.017553215846419334,0.012856814078986645
1761401819474915000,4.9559150390625,-0.0014488897286355495,0.020134570077061653,0.011541156098246574
1761401819484996000,4.96599609375,-0.003580589545890689,0.021883230656385422,0.00696133216843009
1761401819495077400,4.976077392578125,-0.004313361365348101,0.01895214430987835,0.00018319295486435294
1761401819505130800,4.986130859375,-0.002847817726433277,0.01408920343965292,-0.006195252761244774
1761401819515240200,4.996240234375,-0.003114280290901661,0.014055895619094372,-0.00601205974817276
1761401819525320700,5.00632080078125,-0.004030244890600443,0.017803024500608444,-0.0026146629825234413
1761401819535402000,5.016402099609375,-0.002947741188108921,0.0197515320032835,0.0016986982664093375
1761401819545476900,5.026476806640625,-0.0016487365355715156,0.02141692116856575,0.0025147395208477974
1761401819555564000,5.03656396484375,0.0012323890114203095,0.022199654951691628,0.00024980856687761843
1761401819565645300,5.046645263671875,0.0012656967155635357,0.023515313863754272,-0.0025647012516856194
1761401819575726300,5.056726318359375,-0.000016653904822305776,0.021883230656385422,-0.002997702918946743
1761401819585807600,5.0668076171875,-0.0011324655497446656,0.017969563603401184,-0.0019485069205984473
1761401819595888600,5.076888671875,0.0004996171337552369,0.014305704273283482,0.0010158881777897477
1761401819605970000,5.086969970703125,0.0022982389200478792,0.013473008759319782,0.004996171221137047
1761401819616051000,5.097051025390625,0.0019485069205984473,0.012973391450941563,0.00882656965404749
1761401819626132000,5.107132080078125,-0.0004330015217419714,0.013239854015409946,0.008193721063435078
1761401819636213200,5.117213134765625,-0.0014488897286355495,0.014055895619094372,0.006744831334799528
1761401819646294800,5.127294677734375,-0.0018319295486435294,0.015005168505012989,0.0037804364692419767
1761401819656375600,5.13737548828125,-0.0008993108640424907,0.012740237638354301,0.0019318530103191733
1761401819666456600,5.14745654296875,0.0007827335502952337,0.009226263500750065,0.0006161945057101548
1761401819676537900,5.157537841796875,0.0016986982664093375,0.009909073822200298,0.00016653904458507895
1761401819686619000,5.167618896484375,0.0013156584464013577,0.013356431387364864,0.0016154287150129676
1761401819696700200,5.1777001953125,0.0008993108640424907,0.014305704273283482,0.002814509905874729
1761401819706756600,5.187756591796875,0.00023315467115025967,0.01039203628897667,0.0010825038189068437
1761401819716836000,5.197836181640625,-0.0002831163874361664,0.0037637825589627028,-0.0019318530103191733
1761401819726942700,5.207942626953125,0.0003663859097287059,0.00019984686514362693,-0.005162710323929787
1761401819737025000,5.21802490234375,-0.0007494257297366858,-0.0008493491332046688,-0.007794027682393789
1761401819747061500,5.2280615234375,-0.0008993108640424907,-0.0014655436389148235,-0.007694104220718145
1761401819757187000,5.23818701171875,0.0007494257297366858,-0.003597243456169963,-0.007943912409245968
1761401819767242500,5.248242431640625,0.0026646247133612633,-0.00464643957093358,-0.006361791864037514
1761401819777349400,5.258349365234375,0.0026979325339198112,-0.004429938737303019,-0.00662825396284461
1761401819787430100,5.26843017578125,0.0009492725948803127,-0.005112748593091965,-0.007810681592673063
1761401819797511400,5.278511474609375,0.00048296325257979333,-0.006128637120127678,-0.009642611257731915
1761401819807593200,5.28859326171875,0.0013656201772391796,-0.006078675389289856,-0.010525267571210861
1761401819817673500,5.298673583984375,0.0017986217280849814,-0.004796324763447046,-0.009526033885776997
1761401819827754800,5.308754638671875,0.00008326952229253948,-0.003547281725332141,-0.006361791864037514
1761401819837836300,5.318836181640625,0.00044965543202124536,-0.0011824272805824876,-0.005728943273425102
1761401819847917600,5.32891748046875,0.0013989279977977276,-0.0011491194600239396,-0.0053625572472810745
1761401819857996300,5.338996337890625,0.0007494257297366858,-0.0017986217280849814,-0.004879594314843416
1761401819868075300,5.3490751953125,0.0009492725948803127,-0.0012656967155635357,-0.004063552711158991
1761401819878158800,5.359158935546875,0.0016320826252922416,0.0011824272805824876,-0.003197549842298031
1761401819888229000,5.36922900390625,0.0015654671005904675,0.002897779457271099,-0.003364088712260127
1761401819898322700,5.37932275390625,0.0017986217280849814,0.003497319994494319,-0.003996937070041895
1761401819908387000,5.389386962890625,0.00016653904458507895,0.003130934201180935,-0.005562404170632362
1761401819918484700,5.399484619140625,-0.0001332312385784462,0.0011657733703032136,-0.005612365901470184
1761401819928566300,5.409566162109375,-0.0014488897286355495,-0.0012823506258428097,-0.0053125955164432526
1761401819938647600,5.4196474609375,-0.0018818912794813514,-0.002747894264757633,-0.00584552064538002
1761401819948728800,5.429728759765625,-0.0025480473414063454,-0.0025980090722441673,-0.006211906671524048
1761401819958782500,5.439782470703125,-0.0006161945057101548,-0.0025480473414063454,-0.008859877474606037
1761401819968890600,5.449890625,0.0020983919966965914,-0.004063552711158991,-0.008526799269020557
1761401819978971600,5.4599716796875,0.0045631700195372105,-0.0044965543784201145,-0.009059724397957325
1761401819989053000,5.470052978515625,0.005629019811749458,-0.003663859097287059,-0.008460183627903461
1761401819999134000,5.480134033203125,0.005295941606163979,-0.005828866735100746,-0.010458651930093765
1761401820009215000,5.490215087890625,0.003047664649784565,-0.00609532929956913,-0.010825037956237793
1761401820019295200,5.500295166015625,0.0006994639988988638,-0.005062786862254143,-0.010625191032886505
1761401820029371000,5.510370849609375,0.0008993108640424907,-0.00791060458868742,-0.012007465586066246
1761401820039458800,5.520458740234375,0.0009659265051595867,-0.012873467989265919,-0.01383939478546381
1761401820049514200,5.53051416015625,0.0004996171337552369,-0.01458882074803114,-0.014705398119986057
1761401820059620900,5.540620849609375,0.0011324655497446656,-0.013106622733175755,-0.013439700938761234
1761401820069702000,5.550701904296875,0.0026479708030819893,-0.011741003021597862,-0.011890888214111328
1761401820079779000,5.560779052734375,0.004296707455068827,-0.01014222763478756,-0.01022549718618393
1761401820089864400,5.570864501953125,0.0045465161092579365,-0.005612365901470184,-0.009492726065218449
1761401820099945200,5.5809453125,0.0038970138411968946,-0.002331546740606427,-0.008343606255948544
1761401820110026800,5.59102685546875,0.003164242021739483,-0.0019318530103191733,-0.00857676099985838
1761401820120107500,5.601107421875,0.003180895932018757,-0.002398162381723523,-0.009692572988569736
1761401820130188500,5.6111884765625,0.0014322358183562756,-0.0011824272805824876,-0.009442764334380627
1761401820140269600,5.62126953125,-0.0008993108640424907,0.00019984686514362693,-0.007744065951555967
1761401820150347000,5.631346923828125,-0.0009159647743217647,0.0006495022680610418,-0.00609532929956913
1761401820160393700,5.641393798828125,0.0000666156192892231,0.003080972470343113,-0.005745597183704376
1761401820170488000,5.651488037109375,0.000016653904822305776,0.004363323096185923,-0.005695635452866554
1761401820180594400,5.661594482421875,0.0002997702977154404,0.00662825396284461,-0.007094563450664282
1761401820190675500,5.671675537109375,0.0009825803572311997,0.008460183627903461,-0.006744831334799528
1761401820200756500,5.681756591796875,0.0011990811908617616,0.00954268779605627,-0.005945444107055664
1761401820210834000,5.691833984375,0.0018152756383642554,0.010192189365625381,-0.004113514441996813
1761401820220918800,5.701918701171875,0.0022316232789307833,0.009642611257731915,-0.005295941606163979
1761401820231000000,5.712,0.0019818146247416735,0.00782733503729105,-0.005096094682812691
1761401820241081300,5.722081298828125,0.0015155053697526455,0.007960566319525242,-0.004363323096185923
1761401820251162000,5.732162109375,0.00018319295486435294,0.009526033885776997,-0.0045132082886993885
1761401820261244000,5.742243896484375,-0.0021483537275344133,0.008926493115723133,-0.004613131750375032
1761401820271323100,5.7523232421875,-0.003530627815052867,0.009159647859632969,-0.006594946142286062
1761401820281401600,5.762401611328125,-0.003680513007566333,0.008276990614831448,-0.009076378308236599
1761401820291470600,5.772470703125,-0.0022149693686515093,0.007877296768128872,-0.008776607923209667
1761401820301568000,5.782568115234375,-0.0010825038189068437,0.010991577059030533,-0.00729441037401557
1761401820311648800,5.792648681640625,-0.00019984686514362693,0.010675152763724327,-0.0045298621989786625
1761401820321730000,5.80272998046875,-0.0000666156192892231,0.01185758039355278,-0.004213437903672457
1761401820331811800,5.812811767578125,-0.0006661561783403158,0.014605474658310413,-0.005778905004262924
1761401820341867300,5.8228671875,-0.0020151224453002214,0.01712021417915821,-0.00737767992541194
1761401820362054700,5.8430546875,0.0012823506258428097,0.015005168505012989,-0.006078675389289856
1761401820372136200,5.85313623046875,0.0012823506258428097,0.009259571321308613,-0.005229325965046883
1761401820382217700,5.8632177734375,-0.0008826569537632167,0.007161179091781378,-0.0037970903795212507
1761401820392298200,5.87329833984375,-0.003130934201180935,0.008909839205443859,-0.0012157351011410356
1761401820402375400,5.88337548828125,-0.004979517310857773,0.010691806674003601,0.0005995405954308808
1761401820412449800,5.89344970703125,-0.004696401301771402,0.014189126901328564,0.002981049008667469
1761401820422541800,5.903541748046875,-0.002331546740606427,0.015787901356816292,0.0016986982664093375
1761401820432623000,5.913623046875,-0.0008326952229253948,0.014472243376076221,-0.0005495788645930588
1761401820442704400,5.923704345703125,0.00004996171628590673,0.012956737540662289,-0.003130934201180935
1761401820452785000,5.933784912109375,0.00044965543202124536,0.01144123263657093,-0.003713820828124881
1761401820462866200,5.9438662109375,0.0011657733703032136,0.010458651930093765,-0.002398162381723523
1761401820472943600,5.953943603515625,0.00046630934230051935,0.011557810008525848,-0.002897779457271099
1761401820483028200,5.9640283203125,0.0010325420880690217,0.013489662669599056,-0.0018985451897606254
1761401820493109000,5.97410888671875,0.0008493491332046688,0.01400593388825655,-0.0010158881777897477
1761401820503190300,5.984190185546875,0.0004996171337552369,0.011707695201039314,-0.0020317763555794954
1761401820513272600,5.9942724609375,-0.0005995405954308808,0.008759954012930393,-0.002398162381723523
1761401820523352600,6.0043525390625,-0.0010991577291861176,0.0075109112076461315,-0.0025480473414063454
1761401820533430000,6.014429931640625,-0.00019984686514362693,0.007744065951555967,-0.0022149693686515093
1761401820543498200,6.024498291015625,-0.0008993108640424907,0.007694104220718145,-0.003147588111460209
1761401820553596200,6.03459619140625,-0.0012157351011410356,0.0054458267986774445,-0.003080972470343113
1761401820563678000,6.044677978515625,-0.0019818146247416735,0.004080206621438265,-0.0010658499086275697
1761401820573758500,6.054758544921875,-0.0011491194600239396,0.00646171486005187,0.00046630934230051935
1761401820583840000,6.064840087890625,-0.0013323123566806316,0.008476837538182735,0.002481431933119893
1761401820593895400,6.0748955078125,-0.0021483537275344133,0.008276990614831448,0.0018985451897606254
1761401820603998200,6.084998291015625,-0.0013323123566806316,0.006994639988988638,0.0010825038189068437
1761401820614083600,6.09508349609375,-0.0005495788645930588,0.006511676590889692,-0.0011324655497446656
1761401820624164400,6.105164306640625,0.0002831163874361664,0.007144525181502104,-0.0021316998172551394
1761401820634245600,6.11524560546875,0.0011324655497446656,0.005995405837893486,-0.0012323890114203095
1761401820644302600,6.125302490234375,0.00004996171628590673,0.006078675389289856,-0.0006161945057101548
1761401820654368800,6.13536865234375,-0.0008993108640424907,0.0013656201772391796,-0.00016653904458507895
1761401820664489200,6.1454892578125,0.00039969373028725386,-0.002914433367550373,-0.0009992342675104737
1761401820674573000,6.155572998046875,0.00048296325257979333,-0.00662825396284461,-0.002414816292002797
1761401820684651500,6.165651611328125,-0.0007327718194574118,-0.01047530584037304,-0.003380742622539401
1761401820694732000,6.17573193359375,-0.003364088712260127,-0.011258039623498917,-0.00576225109398365
1761401820704813000,6.18581298828125,-0.004996171221137047,-0.011407924816012383,-0.009026416577398777
1761401820714894300,6.195894287109375,-0.0053459033370018005,-0.010325420647859573,-0.009775842539966106
1761401820724949800,6.20594970703125,-0.002747894264757633,-0.009059724397957325,-0.009476072154939175
1761401820745138200,6.22613818359375,0.0019151991000398993,-0.0038970138411968946,-0.00696133216843009
1761401820755219000,6.236218994140625,0.0037970903795212507,-0.0018319295486435294,-0.0022149693686515093
1761401820765300000,6.246300048828125,0.004096860531717539,-0.00011657733557512984,0.0013489662669599056
1761401820775381500,6.256381591796875,0.002381508471444249,-0.0018485834589228034,0.002314892830327153
1761401820785462300,6.266462158203125,-0.002448124112561345,-0.003497319994494319,0.0022815850097686052
1761401820795542800,6.276542724609375,-0.005129402503371239,-0.002448124112561345,0.002464778022840619
1761401820805624600,6.28662451171875,-0.004746363032609224,0.0010658499086275697,0.0011324655497446656
1761401820815706000,6.2967060546875,-0.0045298621989786625,0.006245214492082596,0.0013656201772391796
1761401820825787400,6.306787353515625,-0.002931087277829647,0.00782733503729105,0.0017153521766886115
1761401820835842800,6.3168427734375,-0.0045298621989786625,0.004796324763447046,0.0016154287150129676
1761401820845942800,6.32694287109375,-0.005728943273425102,0.0009492725948803127,-0.0013323123566806316
1761401820856030500,6.337030517578125,-0.005612365901470184,-0.0010991577291861176,-0.0022982389200478792
1761401820866111200,6.347111328125,-0.005945444107055664,0.0011324655497446656,-0.0016154287150129676
1761401820876193000,6.357193115234375,-0.004929556045681238,0.004180130083113909,0.00018319295486435294
1761401820886273500,6.3672734375,-0.004763016942888498,0.007177833002060652,0.00004996171628590673
1761401820896355000,6.37735498046875,-0.0045298621989786625,0.005262633785605431,-0.0007161179091781378
1761401820906435800,6.387435791015625,-0.003963629249483347,0.004763016942888498,-0.003080972470343113
1761401820916516900,6.397516845703125,-0.0045132082886993885,0.0038970138411968946,-0.005245979875326157
1761401820926599000,6.407598876953125,-0.003913667518645525,0.004030244890600443,-0.004113514441996813
1761401820936679400,6.417679443359375,-0.0026646247133612633,0.006028713658452034,-0.0027312403544783592
1761401820946735400,6.4277353515625,-0.0019485069205984473,0.006295176222920418,0.00016653904458507895
1761401820956841500,6.437841552734375,-0.0004163476114626974,0.0017320060869678855,0.0012490428052842617
1761401820966922800,6.4479228515625,0.0005162710440345109,-0.002331546740606427,0.0012490428052842617
1761401820977003500,6.45800341796875,0.0003330780891701579,-0.003347434801980853,0.0005828866851516068
1761401820987084800,6.468084716796875,0.0001498851488577202,-0.003663859097287059,0.0006328483577817678
1761401820997165800,6.478165771484375,-0.0006328483577817678,-0.0016487365355715156,0.0005162710440345109
1761401821007247000,6.4882470703125,-0.0014155819080770016,-0.0005662327748723328,0.0013822740875184536
1761401821017327900,6.498327880859375,-0.00019984686514362693,-0.003597243456169963,0.00004996171628590673
1761401821027409400,6.508409423828125,-0.0002165007608709857,-0.004163476172834635,-0.0015654671005904675
1761401821037490200,6.518490234375,-0.0008326952229253948,-0.002881125546991825,-0.0013989279977977276
1761401821047572700,6.52857275390625,-0.0013989279977977276,-0.0011990811908617616,-0.0008993108640424907
1761401821057629200,6.538629150390625,-0.0017986217280849814,0.0020650841761380434,0.00044965543202124536
1761401821067733800,6.548733642578125,-0.0004996171337552369,0.00849349144846201,-0.00024980856687761843
1761401821077815000,6.55881494140625,0.0010991577291861176,0.013606240041553974,0.0010658499086275697
1761401821087896000,6.56889599609375,0.0010825038189068437,0.014372319914400578,0.004046898800879717
1761401821097980200,6.578980224609375,-0.00039969373028725386,0.011957503855228424,0.005945444107055664
1761401821108054300,6.58905419921875,-0.0008993108640424907,0.011491194367408752,0.00662825396284461
1761401821118135600,6.599135498046875,-0.0003663859097287059,0.009575995616614819,0.005995405837893486
1761401821128202800,6.60920263671875,-0.0011158116394653916,0.008043835870921612,0.004429938737303019
1761401821138293500,6.61929345703125,-0.0017320060869678855,0.007677450310438871,0.004379977006465197
1761401821148358000,6.62935791015625,-0.002348200650885701,0.009592649526894093,0.003114280290901661
1761401821158440400,6.6394404296875,-0.0015488131903111935,0.009159647859632969,0.0007660796400159597
1761401821168520200,6.649520263671875,-0.0016986982664093375,0.008227028883993626,0.0009659265051595867
1761401821178600400,6.659600341796875,-0.0006661561783403158,0.005995405837893486,0.0016320826252922416
1761401821188708000,6.6697080078125,0.0018152756383642554,0.006211906671524048,0.0018652373692020774
1761401821198788600,6.67978857421875,0.0014655436389148235,0.007311064284294844,-0.0009659265051595867
1761401821208869600,6.68986962890625,-0.0004330015217419714,0.00799387414008379,-0.0016487365355715156
1761401821218950700,6.69995068359375,-0.0005662327748723328,0.008293644525110722,-0.0025980090722441673
1761401821239109000,6.720109130859375,-0.0008493491332046688,0.0008826569537632167,-0.0010825038189068437
1761401821249194500,6.730194580078125,-0.0010158881777897477,-0.0007494257297366858,0.00011657733557512984
1761401821259276000,6.740276123046875,-0.0006994639988988638,-0.00018319295486435294,0.0002165007608709857
1761401821269356500,6.7503564453125,-0.00018319295486435294,-0.0013989279977977276,-0.0006328483577817678
1761401821279420400,6.76042041015625,0.0022482771892100573,0.0005162710440345109,-0.0020650841761380434
1761401821289518800,6.770518798828125,0.003414050443097949,0.005828866735100746,-0.0005995405954308808
1761401821299596000,6.780595947265625,0.0014322358183562756,0.006728177424520254,0.000016653904822305776
1761401821309681000,6.790680908203125,-0.0019318530103191733,0.0045298621989786625,0.0012323890114203095
1761401821319762200,6.80076220703125,-0.003697166917845607,0.004146822262555361,0.002314892830327153
1761401821329817900,6.81081787109375,-0.004879594314843416,0.006994639988988638,0.0015321592800319195
1761401821339925000,6.820925048828125,-0.004296707455068827,0.009326186962425709,-0.0005995405954308808
1761401821350005500,6.831005615234375,-0.0020650841761380434,0.010108919814229012,-0.0022649310994893312
1761401821360083000,6.8410830078125,-0.002364854561164975,0.010441998019814491,-0.0038970138411968946
1761401821370167800,6.851167724609375,-0.0019318530103191733,0.011974157765507698,-0.002797855995595455
1761401821380248800,6.861248779296875,-0.0007993874605745077,0.009609303437173367,-0.0015654671005904675
1761401821390330000,6.871330078125,-0.0004996171337552369,0.009426110424101353,-0.003097626380622387
1761401821400411100,6.8814111328125,-0.0011158116394653916,0.008393567986786366,-0.0053958650678396225
1761401821410492200,6.8914921875,-0.0010325420880690217,0.005662327632308006,-0.007744065951555967
1761401821420573400,6.901573486328125,-0.0005995405954308808,0.004996171221137047,-0.008526799269020557
1761401821430651000,6.91165087890625,-0.0011324655497446656,0.003347434801980853,-0.008859877474606037
1761401821440711000,6.9217109375,-0.0008826569537632167,0.0022982389200478792,-0.007394333835691214
1761401821450817000,6.931817138671875,-0.0009825803572311997,0.0013989279977977276,-0.004746363032609224
1761401821460898000,6.94189794921875,-0.0010158881777897477,0.0014988514594733715,-0.0021150459069758654
1761401821470979000,6.95197900390625,-0.002381508471444249,0.0015488131903111935,-0.0016487365355715156
1761401821481058800,6.962058837890625,-0.0010658499086275697,0.003364088712260127,-0.0021983154583722353
1761401821491137300,6.97213720703125,0,0.002431470202282071,-0.0037637825589627028
1761401821501198300,6.9821982421875,-0.0013656201772391796,0.0018818912794813514,-0.00464643957093358
1761401821511303700,6.9923037109375,-0.0020650841761380434,0.004046898800879717,-0.004296707455068827
1761401821521385200,7.00238525390625,-0.004080206621438265,0.007327718194574118,-0.004829632584005594
1761401821531468300,7.01246826171875,-0.005995405837893486,0.010108919814229012,-0.003980283159762621
1761401821541547500,7.022547607421875,-0.004180130083113909,0.012390505522489548,-0.003330780891701579
1761401821551622700,7.03262255859375,-0.0022149693686515093,0.01284016016870737,-0.003297473071143031
1761401821561683700,7.04268359375,-0.0026646247133612633,0.013739471323788166,-0.003497319994494319
1761401821571790600,7.05279052734375,-0.0013489662669599056,0.01620424911379814,-0.003697166917845607
1761401821581871600,7.06287158203125,-0.003197549842298031,0.016603942960500717,-0.002914433367550373
1761401821591953200,7.072953125,-0.005479134619235992,0.017086906358599663,-0.0025480473414063454
1761401821602033700,7.08303369140625,-0.008276990614831448,0.015088438056409359,-0.003996937070041895
1761401821612115200,7.093115234375,-0.009759188629686832,0.011591117829084396,-0.00592879019677639
1761401821622192000,7.103192138671875,-0.012357197701931,0.009842458181083202,-0.006128637120127678
1761401821632277200,7.11327734375,-0.013872702606022358,0.008560107089579105,-0.006228560581803322
1761401821642359300,7.123359375,-0.012557044625282288,0.008310298435389996,-0.006045367568731308
1761401821652439800,7.133439697265625,-0.011041538789868355,0.010441998019814491,-0.006528330501168966
1761401821662497000,7.1434970703125,-0.011258039623498917,0.013473008759319782,-0.005162710323929787
1761401821672602400,7.153602294921875,-0.009809150360524654,0.014022587798535824,-0.004663093481212854
1761401821682657800,7.16365771484375,-0.007677450310438871,0.014322358183562756,-0.003447358263656497
1761401821692764200,7.17376416015625,-0.007061255630105734,0.013822740875184536,-0.0020151224453002214
1761401821702845000,7.183844970703125,-0.008476837538182735,0.01483862940222025,-0.0016820443561300635
1761401821712926500,7.193926513671875,-0.008460183627903461,0.015538093633949757,-0.0020484302658587694
1761401821722982100,7.203982177734375,-0.008876531384885311,0.015837863087654114,-0.0026146629825234413
1761401821733063400,7.2140634765625,-0.008643376640975475,0.01392266433686018,-0.003547281725332141
1761401821743169500,7.22416943359375,-0.009692572988569736,0.01102488487958908,-0.003014356829226017
1761401821753247200,7.234247314453125,-0.011008230969309807,0.00626186840236187,-0.0022815850097686052
1761401821763332600,7.24433251953125,-0.011741003021597862,0.0025980090722441673,0.00018319295486435294
1761401821773413400,7.254413330078125,-0.013073314912617207,0.0018818912794813514,0.003380742622539401
1761401821783494400,7.264494384765625,-0.01400593388825655,0.007394333835691214,0.007327718194574118
1761401821793574700,7.27457470703125,-0.012140696868300438,0.012473775073885918,0.008809915743768215
1761401821803640000,7.28464013671875,-0.008759954012930393,0.011741003021597862,0.0074609494768083096
1761401821813733400,7.2947333984375,-0.0045798239298164845,0.009925727732479572,0.005728943273425102
1761401821823818800,7.30481884765625,-0.0004330015217419714,0.006311830133199692,0.0044632465578615665
1761401821833900000,7.314900146484375,0.0007494257297366858,0.00038303982000797987,0.003697166917845607
1761401821843955700,7.324955810546875,0.00048296325257979333,-0.004363323096185923,0.0025480473414063454
1761401821854062000,7.33506201171875,-0.00046630934230051935,-0.0011990811908617616,0.0008993108640424907
1761401821864144100,7.34514404296875,-0.0012157351011410356,0.0008660030434839427,-0.0013489662669599056
1761401821874224400,7.355224365234375,-0.0019151991000398993,-0.0008826569537632167,-0.0022815850097686052
1761401821884301600,7.365301513671875,-0.0011657733703032136,-0.005545750260353088,-0.003031010739505291
1761401821894386400,7.375386474609375,0.0012656967155635357,-0.012040773406624794,-0.002398162381723523
1761401821904473600,7.3854736328125,0.003014356829226017,-0.01375612523406744,-0.0008160413126461208
1761401821914548700,7.395548828125,0.0026313168928027153,-0.013972626067698002,-0.0017486599972471595
1761401821924611800,7.40561181640625,0.0025147395208477974,-0.013656201772391796,-0.003264165250584483
1761401821934711000,7.4157109375,0.003297473071143031,-0.013656201772391796,-0.002348200650885701
1761401821944792800,7.425792724609375,0.0038137442898005247,-0.013639547862112522,-0.0015155053697526455
1761401821954850300,7.435850341796875,0.003080972470343113,-0.01244046725332737,-0.0008993108640424907
1761401821964954600,7.44595458984375,0.0020484302658587694,-0.01039203628897667,0.0002664624771568924
1761401821975035600,7.45603564453125,0.0019485069205984473,-0.005562404170632362,0.002947741188108921
1761401821985117000,7.466116943359375,0.0017819678178057075,-0.0006994639988988638,0.002814509905874729
1761401821995197700,7.47619775390625,0.004763016942888498,-0.00019984686514362693,-0.00004996171628590673
1761401822005279200,7.486279296875,0.005212672054767609,-0.0006328483577817678,-0.002764548175036907
1761401822015360300,7.4963603515625,0.0053292494267225266,-0.004046898800879717,-0.003697166917845607
1761401822025416200,7.506416259765625,0.004629785660654306,-0.005295941606163979,-0.002931087277829647
1761401822035522600,7.5165224609375,0.0037637825589627028,-0.005196018144488335,-0.0005162710440345109
1761401822045558000,7.52655810546875,0.002881125546991825,-0.0018485834589228034,0.0003164241788908839
1761401822055684600,7.5366845703125,0.0008993108640424907,0.0005329249543137848,-0.0005828866851516068
1761401822075821800,7.55682177734375,0.0007327718194574118,-0.00576225109398365,-0.0022149693686515093
1761401822085928000,7.566927978515625,0.0017819678178057075,-0.008027181960642338,-0.002398162381723523
1761401822096009200,7.57700927734375,0.002914433367550373,-0.00626186840236187,0.00018319295486435294
1761401822106090500,7.587090576171875,0.003980283159762621,-0.002864471636712551,0.0022649310994893312
1761401822116148500,7.5971484375,0.003314126981422305,0.0012990045361220837,0.004146822262555361
1761401822126252800,7.607252685546875,0.005712289363145828,0.0022815850097686052,0.0044465926475822926
1761401822136334300,7.617334228515625,0.004696401301771402,0.002881125546991825,0.0026812786236405373
1761401822146415600,7.62741552734375,0.004046898800879717,0.003380742622539401,0.0004330015217419714
1761401822156496000,7.637495849609375,0.003647205187007785,0.003247511340305209,0.0002831163874361664
1761401822166577400,7.647577392578125,0.0054291728883981705,0.003547281725332141,0.00009992343257181346
1761401822176658400,7.657658447265625,0.007660796400159597,0.00472970912232995,0.0017819678178057075
1761401822186739500,7.667739501953125,0.008560107089579105,0.0037304747384041548,0.002947741188108921
1761401822196820500,7.677820556640625,0.006977986078709364,0.002331546740606427,0.005046132951974869
1761401822206902000,7.687902099609375,0.004879594314843416,0.0020650841761380434,0.007860642857849598
1761401822216957700,7.697957763671875,0.0020650841761380434,0.002764548175036907,0.010541921481490135
1761401822227064000,7.70806396484375,0.0008493491332046688,0.00481297867372632,0.013356431387364864
1761401822237145000,7.71814501953125,0.0019984685350209475,0.00874330010265112,0.015205015428364277
1761401822247189500,7.728189453125,0.0044965543784201145,0.015071784146130085,0.017419984564185143
1761401822257307600,7.7383076171875,0.007194486912339926,0.018552450463175774,0.017819678410887718
1761401822267373600,7.74837353515625,0.00970922689884901,0.019018759950995445,0.018302641808986664
1761401822277469400,7.758469482421875,0.011391270905733109,0.019801493734121323,0.018768951296806335
1761401822287550700,7.76855078125,0.010158881545066833,0.019568338990211487,0.021566806361079216
1761401822297631700,7.7786318359375,0.009509379975497723,0.01850248873233795,0.02316558174788952
1761401822307713000,7.788713134765625,0.009759188629686832,0.021600114181637764,0.023915007710456848
1761401822317794000,7.7987939453125,0.010991577059030533,0.019151991233229637,0.02476435713469982
1761401822327875600,7.80887548828125,0.011124808341264725,0.016021056100726128,0.024481240659952164
1761401822337956900,7.818956787109375,0.00987576600164175,0.016104325652122498,0.02263265661895275
1761401822348035800,7.829035888671875,0.00799387414008379,0.014705398119986057,0.02091730386018753
1761401822358072300,7.839072265625,0.006994639988988638,0.013389739207923412,0.01928522251546383
1761401822368175000,7.849175048828125,0.006378445774316788,0.012756891548633575,0.017170175909996033
1761401822378281200,7.85928125,0.006028713658452034,0.012074081227183342,0.01483862940222025
1761401822388337400,7.86933740234375,0.005945444107055664,0.012740237638354301,0.011707695201039314
1761401822398443300,7.879443359375,0.005878828465938568,0.008893185295164585,0.00799387414008379
1761401822408524000,7.88952392578125,0.005978751927614212,0.004779670853167772,0.00551244243979454
1761401822418605600,7.89960546875,0.005712289363145828,0.003996937070041895,0.003397396532818675
1761401822428686300,7.909686279296875,0.005212672054767609,0.0021650076378136873,0.004763016942888498
1761401822438767600,7.919767578125,0.004879594314843416,0.003497319994494319,0.005695635452866554
1761401822448845300,7.92984521484375,0.005545750260353088,0.008177067153155804,0.005129402503371239
1761401822458910700,7.93991064453125,0.004746363032609224,0.01252373680472374,0.003364088712260127
1761401822469011700,7.95001171875,0.003080972470343113,0.015454824082553387,0.002814509905874729
1761401822479092500,7.960092529296875,0.0017320060869678855,0.0168704055249691,0.002448124112561345
1761401822489174000,7.970174072265625,0.0008660030434839427,0.015238323248922825,0.002947741188108921
1761401822499257000,7.980257080078125,-0.0001498851488577202,0.011840926483273506,0.0010658499086275697
1761401822509335800,7.990335693359375,-0.002747894264757633,0.009559341706335545,-0.00018319295486435294
1761401822519413200,8.000413330078125,-0.0018652373692020774,0.009093032218515873,0.0022149693686515093
1761401822529476000,8.01047607421875,0.0005995405954308808,0.011874234303832054,0.006378445774316788
1761401822539579100,8.0205791015625,0.002331546740606427,0.011491194367408752,0.010025650262832642
1761401822549660000,8.030659912109375,0.004180130083113909,0.011807618662714958,0.012940083630383015
1761401822559741700,8.04074169921875,0.005495788529515266,0.011840926483273506,0.013906010426580906
1761401822569822200,8.050822265625,0.005012825131416321,0.009026416577398777,0.01227392815053463
1761401822579899600,8.060899658203125,0.0053792111575603485,0.008543453179299831,0.010775076225399971
1761401822589984500,8.070984619140624,0.006111983209848404,0.00962595734745264,0.010441998019814491
1761401822600065800,8.081065673828125,0.005112748593091965,0.010008996352553368,0.010008996352553368
1761401822610125300,8.091125244140626,0.0053125955164432526,0.010108919814229012,0.009942381642758846
1761401822620228000,8.10122802734375,0.006594946142286062,0.008726646192371845,0.00962595734745264
1761401822630309600,8.1113095703125,0.006445060949772596,0.0044632465578615665,0.00841022189706564
1761401822640386300,8.12138623046875,0.007144525181502104,-0.0010991577291861176,0.006861408706754446
1761401822650471200,8.13147119140625,0.0074776033870875835,-0.004379977006465197,0.004846286494284868
1761401822660552700,8.141552734375,0.00704460171982646,-0.004013590980321169,0.002931087277829647
1761401822670608400,8.1516083984375,0.005562404170632362,-0.0007827335502952337,0.0019318530103191733
1761401822680703200,8.161703125,0.003430704353377223,0.0006328483577817678,0.0008993108640424907
1761401822690801400,8.171801513671875,0.0015987749211490154,0.0011824272805824876,-0.0021316998172551394
1761401822700877600,8.181877685546874,0.002931087277829647,-0.003580589545890689,-0.004080206621438265
1761401822710954200,8.191954345703126,0.0026979325339198112,-0.006528330501168966,-0.0075109112076461315
1761401822721039000,8.2020390625,0.0010825038189068437,-0.005962098017334938,-0.009526033885776997
1761401822731121200,8.21212109375,-0.0018985451897606254,-0.004679747391492128,-0.011041538789868355
1761401822741201400,8.222201416015626,-0.003647205187007785,0.0008493491332046688,-0.0135895861312747
1761401822751282400,8.232282470703124,-0.005112748593091965,0.005778905004262924,-0.013656201772391796
1761401822761342000,8.242342041015625,-0.003630551276728511,0.00601205974817276,-0.009126340039074421
1761401822771441700,8.252441650390624,-0.0012323890114203095,0.002747894264757633,-0.0038970138411968946
1761401822781526300,8.2625263671875,0.0001332312385784462,0.0013489662669599056,-0.0007327718194574118
1761401822791607600,8.272607666015626,0.0011990811908617616,0.0017153521766886115,0.0007660796400159597
1761401822801688600,8.2826884765625,0.003097626380622387,0.003680513007566333,0.0013822740875184536
1761401822811769600,8.29276953125,0.004113514441996813,0.00729441037401557,0.00039969373028725386
1761401822821850600,8.3028505859375,0.004796324763447046,0.007744065951555967,0.0007827335502952337
1761401822831931600,8.312931640625,0.002781202085316181,0.006911370437592268,0.003230857430025935
1761401822842008800,8.3230087890625,0.0026146629825234413,0.002781202085316181,0.007694104220718145
1761401822852094200,8.33309423828125,0.005062786862254143,-0.0025480473414063454,0.009609303437173367
1761401822862143500,8.3431435546875,0.0045798239298164845,-0.003680513007566333,0.00626186840236187
1761401822872256300,8.35325634765625,0.003530627815052867,-0.0013656201772391796,0.004013590980321169
1761401822882337300,8.363337158203125,0.003197549842298031,-0.0008826569537632167,0.003114280290901661
1761401822892419300,8.37341943359375,0.0045631700195372105,-0.0014655436389148235,0.0025313934311270714
1761401822902496000,8.38349609375,0.0045798239298164845,-0.004263399634510279,0.003064318560063839
1761401822912580900,8.393580810546876,0.004163476172834635,-0.009575995616614819,0.0015821210108697414
1761401822922662000,8.403661865234374,0.003147588111460209,-0.011591117829084396,0.0010825038189068437
1761401822932725200,8.413725341796875,0.005129402503371239,-0.010658498853445053,-0.0022815850097686052
1761401822942824200,8.42382421875,0.005162710323929787,-0.008526799269020557,-0.003430704353377223
1761401822952905200,8.4339052734375,0.005629019811749458,-0.006078675389289856,-0.003680513007566333
1761401822962971400,8.443971435546874,0.004396630916744471,-0.002764548175036907,-0.003996937070041895
1761401822973067800,8.45406787109375,0.0027145864441990852,-0.004196783993393183,-0.004213437903672457
1761401822983148500,8.4641484375,0.0025647012516856194,-0.00782733503729105,-0.003364088712260127
1761401822993229800,8.474229736328125,0.0018319295486435294,-0.009592649526894093,-0.002781202085316181
1761401823003285800,8.48428564453125,0.0013156584464013577,-0.009059724397957325,-0.0016154287150129676
1761401823033550600,8.514550537109375,0.004379977006465197,-0.003047664649784565,-0.0020317763555794954
1761401823043616000,8.524615966796874,0.003630551276728511,-0.004413284827023745,-0.0025147395208477974
1761401823053683000,8.534682861328125,0.002847817726433277,-0.004080206621438265,-0.0013656201772391796
1761401823063797000,8.544796875,0.002947741188108921,-0.0017986217280849814,-0.0008493491332046688
1761401823073855000,8.55485498046875,0.004629785660654306,-0.0020650841761380434,0.0016653904458507895
1761401823083959800,8.564959716796874,0.004046898800879717,-0.0017986217280849814,0.003347434801980853
1761401823094037500,8.57503759765625,0.0022316232789307833,-0.0013156584464013577,0.0020317763555794954
1761401823104122400,8.585122314453125,0.00008326952229253948,-0.0008326952229253948,-0.0000666156192892231
1761401823114203400,8.595203369140625,-0.0010158881777897477,-0.002997702918946743,-0.0012323890114203095
1761401823124284400,8.605284423828126,-0.0019984685350209475,-0.005579058080911636,-0.0015155053697526455
1761401823134365400,8.615365478515624,-0.002847817726433277,-0.003480666084215045,-0.0013156584464013577
1761401823144421400,8.62542138671875,-0.0026479708030819893,-0.00009992343257181346,-0.002414816292002797
1761401823154528000,8.635528076171875,-0.0015654671005904675,-0.0016820443561300635,-0.0038637060206383467
1761401823164605000,8.64560498046875,-0.0015987749211490154,-0.002314892830327153,-0.005828866735100746
1761401823174690000,8.65568994140625,-0.00018319295486435294,-0.0004163476114626974,-0.008643376640975475
1761401823184771300,8.665771240234376,0.00044965543202124536,0.0005662327748723328,-0.00970922689884901
1761401823194852600,8.6758525390625,0.0007161179091781378,0.002814509905874729,-0.008060489781200886
1761401823204933600,8.68593359375,0.0005828866851516068,0.004796324763447046,-0.006211906671524048
1761401823215014700,8.6960146484375,0.0008993108640424907,0.0045798239298164845,-0.0037637825589627028
1761401823225096200,8.70609619140625,0.0005329249543137848,-0.0000666156192892231,-0.003397396532818675
1761401823235177000,8.716177001953126,0.0007161179091781378,-0.0006495022680610418,-0.002414816292002797
1761401823255317000,8.73631689453125,-0.0005162710440345109,-0.0004163476114626974,0.0017653139075264335
1761401823275476500,8.7564765625,-0.00016653904458507895,0.0011491194600239396,0.0005329249543137848
1761401823285583400,8.766583251953126,0.00011657733557512984,0.002764548175036907,-0.0014988514594733715
1761401823295639600,8.7766396484375,-0.0016653904458507895,0.004213437903672457,-0.002414816292002797
1761401823305745700,8.78674560546875,-0.0025980090722441673,0.004779670853167772,-0.0017320060869678855
1761401823315826200,8.796826171875,-0.0014988514594733715,0.00559571199119091,-0.0011158116394653916
1761401823325907000,8.806906982421875,0.00016653904458507895,0.006578292232006788,0.0011324655497446656
1761401823335988200,8.81698828125,-0.0002165007608709857,0.009176301769912243,0.003064318560063839
1761401823346070300,8.8270703125,-0.0015987749211490154,0.009909073822200298,0.004180130083113909
1761401823356151000,8.837151123046874,-0.0009992342675104737,0.008776607923209667,0.0038803599309176207
1761401823366231600,8.8472314453125,-0.0010491959983482957,0.007427641656249762,0.0007494257297366858
1761401823376313300,8.857313232421875,-0.0011990811908617616,0.005129402503371239,-0.0022316232789307833
1761401823386394400,8.867394287109375,-0.0015321592800319195,0.004679747391492128,-0.004629785660654306
1761401823396475000,8.877474853515626,-0.0015987749211490154,0.00634513795375824,-0.006161944940686226
1761401823406557000,8.887556884765624,-0.0005995405954308808,0.007777373772114515,-0.003946975339204073
1761401823416637400,8.897637451171875,-0.0007993874605745077,0.007794027682393789,-0.0007494257297366858
1761401823426719000,8.907718994140625,-0.0010325420880690217,0.0074609494768083096,0.0022815850097686052
1761401823436800000,8.917800048828125,-0.0019318530103191733,0.006528330501168966,0.002398162381723523
1761401823446881500,8.927881591796876,-0.0025647012516856194,0.00679479306563735,0.0005995405954308808
1761401823456961800,8.9379619140625,-0.0015488131903111935,0.009059724397957325,0.00008326952229253948
1761401823467043000,8.94804296875,-0.0021150459069758654,0.011141462251543999,-0.0008826569537632167
1761401823477124000,8.9581240234375,-0.003397396532818675,0.011241385713219643,-0.002364854561164975
1761401823487205600,8.96820556640625,-0.003430704353377223,0.011091500520706177,-0.0038970138411968946
1761401823497286400,8.978286376953125,-0.003513973904773593,0.011457886546850204,-0.0020817380864173174
1761401823507324200,8.98832421875,-0.003214203519746661,0.014022587798535824,0.002381508471444249
1761401823517448400,8.998448486328124,-0.0038970138411968946,0.018602412194013596,0.007427641656249762
1761401823527530000,9.008530029296875,-0.003247511340305209,0.021650075912475586,0.00920960959047079
1761401823537611000,9.018611083984375,-0.003680513007566333,0.02283250354230404,0.0075275651179254055
1761401823547693000,9.028693115234375,-0.003280819160863757,0.022699272260069847,0.005662327632308006
1761401823557773300,9.038773193359376,-0.005545750260353088,0.021883230656385422,0.006111983209848404
1761401823567854000,9.04885400390625,-0.006844754796475172,0.019734878093004227,0.00704460171982646
1761401823577935600,9.058935546875,-0.0075775268487632275,0.019268568605184555,0.009892419911921024
1761401823588013300,9.069013427734374,-0.005612365901470184,0.017836332321166992,0.010458651930093765
1761401823598093800,9.07909375,-0.004230091813951731,0.017719754949212074,0.009159647859632969
1761401823608154400,9.089154296875,-0.003247511340305209,0.01961830072104931,0.006911370437592268
1761401823618260200,9.09926025390625,-0.002797855995595455,0.017753062769770622,0.005812212824821472
1761401823628341200,9.10934130859375,-0.0013489662669599056,0.014622128568589687,0.00626186840236187
1761401823638422500,9.119422607421875,-0.0005329249543137848,0.012207312509417534,0.005245979875326157
1761401823648503800,9.12950390625,-0.0009492725948803127,0.011174770072102547,0.004363323096185923
1761401823658584800,9.139584716796875,-0.0012823506258428097,0.008859877474606037,0.0017320060869678855
1761401823668661800,9.149661865234375,-0.0008160413126461208,0.005212672054767609,-0.0009159647743217647
1761401823678747000,9.159746826171874,-0.0018485834589228034,0.0045298621989786625,-0.00472970912232995
1761401823688828200,9.169828125,-0.0013323123566806316,0.003347434801980853,-0.006411753129214048
1761401823698879200,9.179879150390626,-0.0020817380864173174,0.003414050443097949,-0.007011293899267912
1761401823708990200,9.189990234375,-0.0015987749211490154,0.004363323096185923,-0.005812212824821472
1761401823719071500,9.200071533203126,-0.0007161179091781378,0.005212672054767609,-0.003980283159762621
1761401823729145600,9.2101455078125,-0.00003330780964461155,0.0045631700195372105,-0.0020983919966965914
1761401823739233500,9.220233642578124,-0.0013656201772391796,0.0045631700195372105,-0.0005828866851516068
1761401823749314600,9.230314453125,-0.0017819678178057075,0.004330015275627375,0.00009992343257181346
1761401823759396000,9.24039599609375,-0.0019318530103191733,0.0044799004681408405,-0.0018985451897606254
1761401823769477000,9.25047705078125,-0.0017486599972471595,0.004280053544789553,-0.0038470521103590727
1761401823779558000,9.260557861328126,-0.0018985451897606254,0.004946209955960512,-0.005129402503371239
1761401823789639200,9.27063916015625,-0.0007327718194574118,0.003580589545890689,-0.0045798239298164845
1761401823799696400,9.2806962890625,0.0007327718194574118,-0.00023315467115025967,-0.0026313168928027153
1761401823809802000,9.290802001953125,0.0006994639988988638,-0.0007161179091781378,-0.0011158116394653916
1761401823819883300,9.30088330078125,0.0005162710440345109,0.0005828866851516068,-0.0011657733703032136
1761401823829964500,9.310964599609376,-0.0002831163874361664,0.003280819160863757,-0.0013822740875184536
1761401823840026400,9.3210263671875,0.00016653904458507895,0.0018652373692020774,-0.0011990811908617616
1761401823850126000,9.3311259765625,0.00038303982000797987,-0.0010825038189068437,-0.003197549842298031
1761401823860181500,9.341181396484375,-0.0010491959983482957,-0.005129402503371239,-0.006111983209848404
1761401823870262800,9.3512626953125,-0.0007327718194574118,-0.008993108756840229,-0.00729441037401557
1761401823880370000,9.361369873046876,-0.0016154287150129676,-0.012307235971093178,-0.007694104220718145
1761401823890425300,9.37142529296875,-0.0015321592800319195,-0.01325650792568922,-0.004629785660654306
1761401823900532000,9.381531982421874,-0.00004996171628590673,-0.012040773406624794,-0.0038470521103590727
1761401823910612700,9.39161279296875,0.0021983154583722353,-0.007893950678408146,-0.003663859097287059
1761401823920690200,9.401690185546874,0.0019984685350209475,-0.005062786862254143,-0.004180130083113909
1761401823930775300,9.411775390625,0.0006495022680610418,-0.005895482376217842,-0.006928024347871542
1761401823940856000,9.42185595703125,-0.00018319295486435294,-0.006611600052565336,-0.00729441037401557
1761401823950937900,9.431937744140624,0.0006328483577817678,-0.005812212824821472,-0.007311064284294844
1761401823961018600,9.4420185546875,0.00016653904458507895,-0.006445060949772596,-0.0045964778400957584
1761401823971100400,9.452100341796875,0.0009492725948803127,-0.004296707455068827,-0.004313361365348101
1761401823981181200,9.46218115234375,-0.0006828100886195898,-0.003513973904773593,-0.005295941606163979
1761401823991223800,9.472223876953125,-0.003497319994494319,-0.0037304747384041548,-0.0074776033870875835
1761401824001343200,9.48234326171875,-0.004280053544789553,-0.0037970903795212507,-0.0074942572973668575
1761401824011424300,9.49242431640625,-0.0045465161092579365,-0.0008993108640424907,-0.006045367568731308
1761401824021505500,9.502505615234375,-0.0053792111575603485,0.004113514441996813,-0.004363323096185923
1761401824031586300,9.51258642578125,-0.004330015275627375,0.005895482376217842,-0.003447358263656497
1761401824041683700,9.52268359375,-0.002914433367550373,0.003314126981422305,-0.005212672054767609
1761401824051748000,9.532748046875,-0.00008326952229253948,0.0012490428052842617,-0.0061785988509655
1761401824061829600,9.54282958984375,0.0014322358183562756,0.002931087277829647,-0.00551244243979454
1761401824071911400,9.552911376953125,0.0007494257297366858,0.006561638321727514,-0.0027312403544783592
1761401824081992000,9.562991943359375,0.00019984686514362693,0.010292112827301025,-0.0015321592800319195
1761401824092073200,9.5730732421875,0.0002997702977154404,0.010825037956237793,-0.0022149693686515093
1761401824102154200,9.583154296875,0.00048296325257979333,0.009725880809128284,-0.0026313168928027153
1761401824112235800,9.59323583984375,0.00044965543202124536,0.006744831334799528,-0.002747894264757633
1761401824122312700,9.603312744140625,-0.0002664624771568924,0.004929556045681238,-0.0015155053697526455
1761401824132397800,9.613397705078125,-0.0011824272805824876,0.00671152351424098,0.00039969373028725386
1761401824142478800,9.623478759765625,-0.0017819678178057075,0.008360260166227818,0.003280819160863757
1761401824152560000,9.63356005859375,-0.00004996171628590673,0.010025650262832642,0.005212672054767609
1761401824162641200,9.64364111328125,0.0016320826252922416,0.007877296768128872,0.006311830133199692
1761401824172722400,9.653722412109374,0.0038970138411968946,0.007111217360943556,0.0074776033870875835
1761401824182777900,9.66377783203125,0.003697166917845607,0.009409456513822079,0.007860642857849598
1761401824192884500,9.673884521484375,0.002947741188108921,0.012457121163606644,0.007977220229804516
1761401824202966000,9.683966064453125,0.002881125546991825,0.01392266433686018,0.008127105422317982
1761401824213047000,9.694047119140626,0.003130934201180935,0.014805321581661701,0.007327718194574118
1761401824223128000,9.704128173828124,0.003080972470343113,0.016437403857707977,0.005912136286497116
1761401824233209000,9.714208984375,0.003097626380622387,0.017020290717482567,0.006161944940686226
1761401824243286300,9.724286376953126,0.002864471636712551,0.016187595203518867,0.006361791864037514
1761401824253371400,9.734371337890625,0.0021483537275344133,0.014055895619094372,0.009076378308236599
1761401824263452400,9.744452392578125,0.0015321592800319195,0.010841691866517067,0.01127469353377819
1761401824273510100,9.75451025390625,0.0026479708030819893,0.01127469353377819,0.012640314176678658
1761401824283614700,9.76461474609375,0.002364854561164975,0.011707695201039314,0.012590352445840836
1761401824293695700,9.77469580078125,0.0017819678178057075,0.012590352445840836,0.011008230969309807
1761401824303751700,9.784751708984375,0.0020484302658587694,0.016220903024077415,0.010258805006742477
1761401824313854200,9.794854248046875,0.0022815850097686052,0.019135337322950363,0.009575995616614819
1761401824323939300,9.804939208984376,0.0026313168928027153,0.021316997706890106,0.008027181960642338
1761401824334020600,9.8150205078125,0.0014322358183562756,0.022399501875042915,0.0054458267986774445
1761401824344076500,9.82507666015625,0.0012656967155635357,0.022149693220853806,0.005662327632308006
1761401824354157600,9.835157470703125,0.003314126981422305,0.0218332689255476,0.005162710323929787
1761401824364239600,9.845239501953126,0.003364088712260127,0.02033441700041294,0.005795558914542198
1761401824374319600,9.855319580078126,0.0021316998172551394,0.017919601872563362,0.008127105422317982
1761401824384401200,9.865401123046874,-0.0007327718194574118,0.018052833154797554,0.010691806674003601
1761401824394507000,9.875507080078124,0.00009992343257181346,0.01850248873233795,0.013772779144346714
1761401824404588300,9.88558837890625,0.002348200650885701,0.01712021417915821,0.015205015428364277
1761401824414669600,9.895669677734375,0.0026146629825234413,0.014438935555517673,0.0156546700745821
1761401824424725800,9.905725830078126,0.0021983154583722353,0.013872702606022358,0.014305704273283482
1761401824444910800,9.925910888671876,-0.0004996171337552369,0.013872702606022358,0.012323889881372452
1761401824454994000,9.935993896484375,-0.0003497319994494319,0.013556278310716152,0.010325420647859573
1761401824465075200,9.9460751953125,0.0005329249543137848,0.011058192700147629,0.007794027682393789
1761401824475156500,9.956156494140625,0.002431470202282071,0.006778139155358076,0.0053958650678396225
1761401824485237500,9.966237548828126,0.004096860531717539,0.004912902135401964,0.00464643957093358
1761401824495318500,9.976318603515624,0.004196783993393183,0.005612365901470184,0.005196018144488335
1761401824505400300,9.986400390625,0.004263399634510279,0.00662825396284461,0.005162710323929787
1761401824515480600,9.99648046875,0.003630551276728511,0.0094594182446599,0.003713820828124881
1761401824525537500,10.00653759765625,0.003247511340305209,0.010242151096463203,0.003447358263656497
1761401824535643000,10.016642822265625,0.003663859097287059,0.012806852348148823,0.005112748593091965
1761401824545685000,10.02668505859375,0.004629785660654306,0.014871937222778797,0.007444295566529036
1761401824555805400,10.036805419921874,0.005579058080911636,0.015488131903111935,0.008110451512038708
1761401824565887200,10.04688720703125,0.005262633785605431,0.01573793962597847,0.008260336704552174
1761401824575967700,10.0569677734375,0.003963629249483347,0.012756891548633575,0.009909073822200298
1761401824586049000,10.067049072265625,0.0037970903795212507,0.009775842539966106,0.010525267571210861
1761401824596129800,10.0771298828125,0.003280819160863757,0.009009762667119503,0.011158116161823273
1761401824606211300,10.08721142578125,0.0016820443561300635,0.010725114494562149,0.012756891548633575
1761401824616292000,10.0972919921875,0.0020151224453002214,0.01615428738296032,0.0156546700745821
1761401824626348000,10.10734814453125,0.0018485834589228034,0.02086734212934971,0.018335949629545212
1761401824636455200,10.117455078125,0.003080972470343113,0.023515313863754272,0.01920195296406746
1761401824646536400,10.127536376953126,0.004979517310857773,0.022982388734817505,0.01983480155467987
1761401824656617000,10.137616943359374,0.005712289363145828,0.01886887475848198,0.016337480396032333
1761401824666697700,10.14769775390625,0.005562404170632362,0.014272396452724934,0.011974157765507698
1761401824676779300,10.157779296875,0.006328484043478966,0.00997568853199482,0.007077909540385008
1761401824686876000,10.1678759765625,0.005612365901470184,0.0053625572472810745,0.003247511340305209
1761401824696941000,10.177941162109375,0.005062786862254143,0.0008660030434839427,0.0008326952229253948
1761401824707022300,10.188022216796876,0.005112748593091965,-0.0015987749211490154,-0.0007660796400159597
1761401824717103600,10.198103515625,0.006278522312641144,-0.004296707455068827,-0.0002664624771568924
1761401824727184600,10.2081845703125,0.006644907873123884,-0.005778905004262924,0.00016653904458507895
1761401824737266000,10.218265869140625,0.006128637120127678,-0.0053792111575603485,0.0018652373692020774
1761401824747347700,10.22834765625,0.005862174555659294,-0.004679747391492128,0.0018652373692020774
1761401824757428200,10.23842822265625,0.0044799004681408405,-0.003347434801980853,0.0021150459069758654
1761401824767509200,10.24850927734375,0.0054291728883981705,-0.00646171486005187,0.0005162710440345109
1761401824777566500,10.25856640625,0.004829632584005594,-0.010208843275904655,-0.0017320060869678855
1761401824787671600,10.268671630859375,0.005479134619235992,-0.010525267571210861,-0.0016820443561300635
1761401824797753300,10.27875341796875,0.006211906671524048,-0.008726646192371845,0.0006661561783403158
1761401824807833600,10.28883349609375,0.00737767992541194,-0.005262633785605431,0.002747894264757633
1761401824817890000,10.29889013671875,0.00654498441144824,-0.003114280290901661,0.004196783993393183
1761401824827994000,10.308994140625,0.00609532929956913,-0.0012656967155635357,0.003314126981422305
1761401824838073300,10.3190732421875,0.005046132951974869,0.0018652373692020774,0.0020983919966965914
1761401824848155000,10.32915478515625,0.0053958650678396225,0.003031010739505291,0.0020983919966965914
1761401824858239500,10.339239501953125,0.005629019811749458,0.003080972470343113,0.002797855995595455
1761401824868320500,10.349320556640626,0.005046132951974869,0.0016820443561300635,0.0021150459069758654
1761401824878397700,10.359397705078125,0.003180895932018757,0.0010658499086275697,0.0022982389200478792
1761401824888482800,10.36948291015625,0.0015321592800319195,0.0020484302658587694,0.002797855995595455
1761401824898564000,10.379564208984375,-0.0000666156192892231,0.004330015275627375,0.004946209955960512
1761401824908645000,10.38964501953125,0.00018319295486435294,0.008893185295164585,0.005895482376217842
1761401824918726100,10.39972607421875,0.0015488131903111935,0.012590352445840836,0.005862174555659294
1761401824928807400,10.409807373046876,0.002881125546991825,0.01433901209384203,0.00464643957093358
1761401824938888400,10.419888427734374,0.0037304747384041548,0.014788667671382427,0.0021483537275344133
1761401824948944100,10.429944091796875,0.004146822262555361,0.01169104129076004,0.0007660796400159597
1761401824959050800,10.44005078125,0.005079440772533417,0.00729441037401557,-0.0015155053697526455
1761401824969132000,10.450132080078125,0.005629019811749458,0.002781202085316181,-0.0017153521766886115
1761401824979213000,10.460213134765626,0.006478368770331144,-0.0002664624771568924,-0.0026979325339198112
1761401824989294300,10.47029443359375,0.006728177424520254,-0.0025313934311270714,-0.002381508471444249
1761401824999375000,10.480375,0.007261102553457022,-0.0045798239298164845,-0.0006161945057101548
1761401825009452500,10.49045263671875,0.006844754796475172,-0.0026479708030819893,0.003164242021739483
1761401825019537700,10.50053759765625,0.006428407039493322,-0.0025980090722441673,0.006661561783403158
1761401825029593900,10.51059375,0.005995405837893486,-0.0038803599309176207,0.008993108756840229
1761401825039700000,10.520699951171874,0.006078675389289856,-0.00472970912232995,0.008560107089579105
1761401825049781200,10.53078125,0.006928024347871542,-0.005479134619235992,0.00609532929956913
1761401825059849000,10.540848876953126,0.0075608729384839535,-0.005196018144488335,0.003680513007566333
1761401825069943000,10.550943115234375,0.007261102553457022,-0.006195252761244774,0.002814509905874729
1761401825080020500,10.5610205078125,0.008093797601759434,-0.00601205974817276,0.003114280290901661
1761401825090105600,10.571105712890626,0.009159647859632969,-0.004030244890600443,0.00464643957093358
1761401825100212700,10.581212646484374,0.009592649526894093,0.0025313934311270714,0.0054125189781188965
1761401825110267600,10.591267578125,0.00791060458868742,0.006578292232006788,0.00567898154258728
1761401825120349200,10.60134912109375,0.005495788529515266,0.004113514441996813,0.0021983154583722353
1761401825130430000,10.611429931640625,0.0037970903795212507,-0.0014322358183562756,-0.0016986982664093375
1761401825140507400,10.62150732421875,0.003647205187007785,-0.004713055212050676,-0.002781202085316181
1761401825150592300,10.63159228515625,0.004130168352276087,-0.002997702918946743,-0.0022649310994893312
1761401825160654300,10.641654296875,0.00481297867372632,-0.0010325420880690217,-0.0015155053697526455
1761401825170754800,10.6517548828125,0.005529096350073814,-0.0007494257297366858,-0.0005828866851516068
1761401825180835800,10.6618359375,0.004962863866239786,0.0012323890114203095,-0.000016653904822305776
1761401825190916900,10.671916748046876,0.005479134619235992,0.0021316998172551394,0.0024980856105685234
1761401825200974600,10.681974609375,0.0038303982000797987,0.0012490428052842617,0.003647205187007785
1761401825211079200,10.6920791015625,0.003464012173935771,0.00016653904458507895,0.003996937070041895
1761401825221160400,10.702160400390625,0.0026146629825234413,-0.0008993108640424907,0.003347434801980853
1761401825231241000,10.712240966796875,0.002931087277829647,0.0014488897286355495,0.0012490428052842617
1761401825241322500,10.722322509765625,0.003280819160863757,0.0012323890114203095,-0.0010491959983482957
1761401825251403800,10.73240380859375,0.003297473071143031,-0.0004996171337552369,-0.0009492725948803127
1761401825261484800,10.74248486328125,0.0008493491332046688,-0.0004996171337552369,-0.0022815850097686052
1761401825271541000,10.752541015625,0.0014322358183562756,-0.0007660796400159597,-0.0019318530103191733
1761401825281647000,10.762647216796875,0.003380742622539401,0.0006828100886195898,-0.0008660030434839427
1761401825291729000,10.77272900390625,0.003913667518645525,0.0018319295486435294,-0.0006828100886195898
1761401825301809400,10.782809326171876,0.004679747391492128,0.002881125546991825,-0.0005662327748723328
1761401825311890400,10.792890380859374,0.003713820828124881,0.0016487365355715156,0.00008326952229253948
1761401825321928400,10.802928466796875,0.0016820443561300635,0.0009659265051595867,0.0008326952229253948
1761401825332049200,10.813049072265626,0.0003663859097287059,-0.0011491194600239396,0.0009326186846010387
1761401825352190200,10.833190185546876,0.0016154287150129676,-0.0026479708030819893,-0.0018985451897606254
1761401825362296300,10.84329638671875,-0.00011657733557512984,0.0001498851488577202,-0.003647205187007785
1761401825372377300,10.85337744140625,-0.0003663859097287059,0.0007161179091781378,-0.003480666084215045
1761401825382458600,10.863458740234375,0.0007827335502952337,0.002764548175036907,-0.003164242021739483
1761401825392507600,10.873507568359376,0.0017653139075264335,0.0025813551619648933,-0.003097626380622387
1761401825402617000,10.8836171875,0.002431470202282071,0.0010825038189068437,-0.0045798239298164845
1761401825412684000,10.89368408203125,0.0025147395208477974,0.0003663859097287059,-0.005662327632308006
1761401825422783000,10.903782958984374,0.002398162381723523,0.0007827335502952337,-0.004763016942888498
1761401825432843500,10.913843505859376,0.002981049008667469,-0.0016653904458507895,-0.0037804364692419767
1761401825442943200,10.923943115234374,0.002781202085316181,-0.0021150459069758654,-0.0019485069205984473
1761401825453026800,10.93402685546875,0.002448124112561345,-0.002897779457271099,-0.0009326186846010387
1761401825463082500,10.94408251953125,0.0026146629825234413,-0.003264165250584483,-0.0011324655497446656
1761401825473188600,10.954188720703126,0.002814509905874729,-0.003713820828124881,0.0005329249543137848
1761401825483270000,10.964269775390624,0.0019485069205984473,-0.003713820828124881,-0.0004330015217419714
1761401825493351200,10.97435107421875,0.0015987749211490154,-0.0037970903795212507,-0.0020317763555794954
1761401825503432000,10.984431884765625,0.0005662327748723328,-0.004929556045681238,-0.0025980090722441673
1761401825513513200,10.99451318359375,-0.0006328483577817678,-0.003613897366449237,-0.005046132951974869
1761401825523590700,11.004590576171875,-0.0020317763555794954,-0.002747894264757633,-0.0053792111575603485
1761401825533675800,11.01467578125,-0.0025147395208477974,-0.0022815850097686052,-0.0053792111575603485
1761401825543754500,11.02475439453125,-0.0008993108640424907,0,-0.006028713658452034
1761401825553837800,11.034837890625,-0.0008660030434839427,0.0005162710440345109,-0.005778905004262924
1761401825563919000,11.044919189453125,-0.0013989279977977276,-0.0011824272805824876,-0.006561638321727514
1761401825573999900,11.054999755859376,-0.00023315467115025967,-0.003613897366449237,-0.00687806261703372
1761401825584081200,11.0650810546875,0.0012823506258428097,-0.003430704353377223,-0.006111983209848404
1761401825594158300,11.075158447265625,0.0014155819080770016,-0.004330015275627375,-0.0061785988509655
1761401825604243500,11.085243408203125,0.0013989279977977276,-0.005745597183704376,-0.00737767992541194
1761401825614324700,11.09532470703125,0.0006828100886195898,-0.0053292494267225266,-0.0074776033870875835
1761401825624405800,11.10540576171875,0.0003164241788908839,-0.00584552064538002,-0.00782733503729105
1761401825634487000,11.115487060546876,0.00011657733557512984,-0.006528330501168966,-0.007027947809547186
1761401825644568600,11.125568603515624,0.0010158881777897477,-0.009026416577398777,-0.005245979875326157
1761401825654611500,11.135611572265624,0.002464778022840619,-0.010125573724508286,-0.0013989279977977276
1761401825664730400,11.14573046875,0.004180130083113909,-0.008526799269020557,0.0026146629825234413
1761401825674811600,11.155811767578125,0.003297473071143031,-0.0053459033370018005,0.003147588111460209
1761401825684893200,11.16589306640625,0.0020983919966965914,-0.006411753129214048,-0.000016653904822305776
1761401825694974000,11.175973876953124,0.0001498851488577202,-0.0074776033870875835,-0.004346669185906649
1761401825705054700,11.1860546875,-0.00016653904458507895,-0.00601205974817276,-0.007144525181502104
1761401825715136500,11.196136474609375,0.0005995405954308808,-0.003314126981422305,-0.007777373772114515
1761401825725217500,11.206217529296875,0.0012157351011410356,-0.0012323890114203095,-0.005728943273425102
1761401825735298000,11.216298095703126,0.0011491194600239396,-0.0015654671005904675,-0.0026646247133612633
1761401825745379800,11.2263798828125,0.0012157351011410356,-0.0020151224453002214,-0.0021816615480929613
1761401825755460900,11.2364609375,-0.0002997702977154404,-0.0037304747384041548,-0.0018319295486435294
1761401825765542100,11.246542236328125,-0.0015987749211490154,-0.002448124112561345,0.0002831163874361664
1761401825775623200,11.256623046875,-0.0025813551619648933,0.0022982389200478792,0.0011491194600239396
1761401825785704400,11.266704345703126,-0.0019984685350209475,0.0053958650678396225,0.0006828100886195898
1761401825795785200,11.27678515625,-0.00016653904458507895,0.003630551276728511,-0.0020983919966965914
1761401825805866800,11.28686669921875,0.00003330780964461155,0.0015821210108697414,-0.0061785988509655
1761401825815947300,11.296947265625,0.0007327718194574118,-0.0006994639988988638,-0.00576225109398365
1761401825826028800,11.30702880859375,0.0021650076378136873,-0.0007161179091781378,-0.005945444107055664
1761401825836110600,11.317110595703125,0.0021483537275344133,0.0005828866851516068,-0.006278522312641144
1761401825846191600,11.327191650390626,0.0025980090722441673,-0.0011324655497446656,-0.00584552064538002
1761401825856272000,11.33727197265625,0.002797855995595455,-0.0014322358183562756,-0.006278522312641144
1761401825866353000,11.347352783203124,0.003580589545890689,-0.002448124112561345,-0.006828100886195898
1761401825876433400,11.357433349609375,0.002314892830327153,-0.005162710323929787,-0.006395099684596062
1761401825896583700,11.377583740234375,0.0038303982000797987,-0.0009492725948803127,-0.0014821975491940975
1761401825906677500,11.387677490234376,0.003580589545890689,0.0025147395208477974,-0.0003330780891701579
1761401825916758800,11.3977587890625,0.004246745724231005,0.0022316232789307833,0.00009992343257181346
1761401825926835500,11.40783544921875,0.004230091813951731,0.0006161945057101548,0.0007161179091781378
1761401825936920800,11.4179208984375,0.003597243456169963,-0.0006495022680610418,0.0005329249543137848
1761401825947003000,11.4280029296875,0.0038137442898005247,-0.0018152756383642554,0.0015654671005904675
1761401825957083100,11.438083251953126,0.003380742622539401,-0.0018485834589228034,0.0017819678178057075
1761401825967164200,11.4481640625,0.0021150459069758654,0.0009492725948803127,0.00044965543202124536
1761401825977245200,11.4582451171875,0.003380742622539401,0.005029479041695595,0.00039969373028725386
1761401825987326700,11.46832666015625,0.004130168352276087,0.00816041324287653,0.0016653904458507895
1761401825997408000,11.478407958984375,0.003563935635611415,0.007960566319525242,0.003713820828124881
1761401826007488800,11.48848876953125,0.003480666084215045,0.00997568853199482,0.003447358263656497
1761401826017526800,11.49852685546875,0.003230857430025935,0.010608537122607231,0.0009326186846010387
1761401826027651000,11.508651123046874,0.003597243456169963,0.010325420647859573,-0.0015155053697526455
1761401826037732600,11.518732666015625,0.004263399634510279,0.01014222763478756,-0.0016154287150129676
1761401826047788000,11.5287880859375,0.003247511340305209,0.01110815443098545,-0.00009992343257181346
1761401826057916200,11.538916259765625,0.0020151224453002214,0.012457121163606644,0.002864471636712551
1761401826067977700,11.548977783203124,0.0022482771892100573,0.013689509592950344,0.005096094682812691
1761401826078052900,11.559052978515625,0.003214203519746661,0.012940083630383015,0.003197549842298031
1761401826088134100,11.569134033203126,0.0026146629825234413,0.012673621997237206,0.002881125546991825
1761401826098215000,11.57921484375,0.003530627815052867,0.013223200105130672,0.0044799004681408405
1761401826108300300,11.58930029296875,0.005046132951974869,0.010991577059030533,0.00654498441144824
1761401826118381300,11.59938134765625,0.0053958650678396225,0.008027181960642338,0.005745597183704376
1761401826128425000,11.609425048828125,0.0038303982000797987,0.00464643957093358,0.004113514441996813
1761401826138520300,11.619520263671875,0.002847817726433277,0.0019485069205984473,0.0012323890114203095
1761401826148625400,11.62962548828125,0.002881125546991825,0.004379977006465197,0.0004996171337552369
1761401826158683000,11.639682861328126,0.003946975339204073,0.00646171486005187,0.002747894264757633
1761401826168787200,11.649787109375,0.005196018144488335,0.00782733503729105,0.003580589545890689
1761401826178847700,11.65984765625,0.00592879019677639,0.011008230969309807,0.003563935635611415
1761401826188949200,11.66994921875,0.0054125189781188965,0.012124042958021164,0.0020817380864173174
1761401826199030500,11.680030517578125,0.002997702918946743,0.011874234303832054,0.0022649310994893312
1761401826209111800,11.69011181640625,0.0009659265051595867,0.009326186962425709,0.003297473071143031
1761401826219192600,11.700192626953125,-0.0004163476114626974,0.006811446975916624,0.0013822740875184536
1761401826229269800,11.710269775390625,-0.0012490428052842617,0.004363323096185923,-0.002897779457271099
1761401826239355000,11.72035498046875,-0.0008826569537632167,0.003447358263656497,-0.0053125955164432526
1761401826249436200,11.730436279296875,0.0009492725948803127,0.004363323096185923,-0.0038470521103590727
1761401826259517400,11.740517333984375,0.003397396532818675,0.00671152351424098,-0.0013822740875184536
1761401826269598700,11.7505986328125,0.0044465926475822926,0.006678215693682432,0.0011657733703032136
1761401826279679700,11.7606796875,0.004046898800879717,0.007444295566529036,0.0022649310994893312
1761401826289756700,11.770756591796875,0.00489624822512269,0.00849349144846201,0.0016986982664093375
1761401826299816700,11.780816650390625,0.00609532929956913,0.005295941606163979,0.00038303982000797987
1761401826309884400,11.790884521484376,0.005978751927614212,0.0007494257297366858,-0.0007327718194574118
1761401826320004400,11.80100439453125,0.005245979875326157,-0.0020650841761380434,-0.0017486599972471595
1761401826330040000,11.8110400390625,0.00464643957093358,-0.0010325420880690217,-0.0009326186846010387
1761401826340166400,11.82116650390625,0.004879594314843416,0.002764548175036907,-0.00009992343257181346
1761401826350247700,11.83124755859375,0.0053125955164432526,0.004879594314843416,0.0007827335502952337
1761401826360324900,11.841324951171876,0.004180130083113909,0.003613897366449237,0.0022482771892100573
1761401826370409700,11.85140966796875,0.004846286494284868,-0.0000666156192892231,0.002814509905874729
1761401826380491000,11.861490966796875,0.0054291728883981705,-0.0011824272805824876,0.0022316232789307833
1761401826390572000,11.871572021484376,0.005029479041695595,-0.0016986982664093375,0.0020484302658587694
1761401826400607000,11.88160693359375,0.003347434801980853,-0.0004330015217419714,0.0017320060869678855
1761401826410734800,11.89173486328125,0.002747894264757633,0.0025480473414063454,-0.00018319295486435294
1761401826420811500,11.9018115234375,0.003197549842298031,0.002964395098388195,-0.003563935635611415
1761401826430896400,11.911896484375,0.003513973904773593,0.0018319295486435294,-0.005728943273425102
1761401826440952600,11.92195263671875,0.002348200650885701,0.0020151224453002214,-0.006644907873123884
1761401826451059000,11.932058837890626,0.0021316998172551394,-0.0012490428052842617,-0.00671152351424098
1761401826461140500,11.942140380859374,0.0026479708030819893,-0.0020317763555794954,-0.0053125955164432526
1761401826471221000,11.952220947265625,0.003147588111460209,-0.0022149693686515093,-0.003130934201180935
1761401826481298400,11.96229833984375,0.003280819160863757,-0.0013989279977977276,-0.0007327718194574118
1761401826491383300,11.97238330078125,0.0022982389200478792,-0.0022149693686515093,0.0011324655497446656
1761401826501446400,11.9824462890625,0.003697166917845607,-0.0024980856105685234,0.0013656201772391796
1761401826511527700,11.992527587890624,0.004163476172834635,-0.0007660796400159597,0.0008326952229253948
1761401826521603600,12.002603515625,0.003264165250584483,0.0009825803572311997,0.00016653904458507895
1761401826531708000,12.0127080078125,0.0025813551619648933,0.0005495788645930588,-0.0007494257297366858
1761401826541789700,12.022789794921875,0.002448124112561345,-0.0022482771892100573,0.0002831163874361664
1761401826551887000,12.03288720703125,0.004313361365348101,-0.004879594314843416,0.0002664624771568924
1761401826561951200,12.042951171875,0.004696401301771402,-0.005129402503371239,0.00004996171628590673
1761401826572033000,12.053032958984375,0.0015987749211490154,-0.0010991577291861176,0.0006328483577817678
1761401826582113500,12.063113525390625,0.00016653904458507895,0.0022982389200478792,0.0015654671005904675
1761401826592195300,12.0731953125,0.0003663859097287059,0.004346669185906649,0.0019485069205984473
1761401826602276400,12.0832763671875,0.002997702918946743,0.0019984685350209475,0.0011491194600239396
1761401826612354300,12.093354248046875,0.004962863866239786,-0.0009825803572311997,0.0007660796400159597
1761401826622438400,12.1034384765625,0.005878828465938568,-0.003114280290901661,0.0008326952229253948
