time,seconds_elapsed,z,y,x
1761401814628383700,0.1093837890625,0.6981342434883118,-8.98012638092041,-3.758073568344116
1761401814638465500,0.119465576171875,0.6883329749107361,-8.97548770904541,-3.734954595565796
1761401814648546300,0.12954638671875,0.6884826421737671,-8.951920509338379,-3.7357027530670166
1761401814658627600,0.139627685546875,0.7006032466888428,-8.97316837310791,-3.7620389461517334
1761401814668708600,0.14970849609375,0.7329998016357422,-8.994491577148438,-3.7696704864501953
1761401814678782500,0.159782470703125,0.7805845737457275,-8.978705406188965,-3.758896589279175
1761401814688859400,0.169859375,0.8155249357223511,-8.965087890625,-3.755305290222168
1761401814698961200,0.179961181640625,0.8192659020423889,-8.943764686584473,-3.749619245529175
1761401814709042400,0.19004248046875,0.7926303744316101,-8.949825286865234,-3.7626376152038574
1761401814719131400,0.20013134765625,0.7757213711738586,-8.962394714355469,-3.774010181427002
1761401814729209600,0.210209716796875,0.7751976251602173,-8.997110366821289,-3.8021419048309326
1761401814739301600,0.220301513671875,0.768389105796814,-9.016862869262695,-3.8203976154327393
1761401814749370000,0.2303701171875,0.7610568404197693,-9.009531021118164,-3.8533928394317627
1761401814759451400,0.240451416015625,0.7818564772605896,-8.94541072845459,-3.8703019618988037
1761401814769530400,0.2505302734375,0.8143278360366821,-8.903961181640625,-3.9048681259155273
1761401814779626800,0.260626708984375,0.8086416125297546,-8.87635326385498,-3.9037458896636963
1761401814789707500,0.27070751953125,0.8038532137870789,-8.881964683532715,-3.9139211177825928
1761401814799776000,0.28077587890625,0.7701847553253174,-8.893187522888184,-3.9264159202575684
1761401814809856800,0.290856689453125,0.7492355108261108,-8.915483474731445,-3.9194579124450684
1761401814819938300,0.300938232421875,0.7335983514785767,-8.924461364746094,-3.90860915184021
1761401814830032100,0.3110322265625,0.725218653678894,-8.932018280029297,-3.9025487899780273
1761401814840111600,0.321111572265625,0.7083095908164978,-8.96157169342041,-3.9107041358947754
1761401814850182400,0.331182373046875,0.7046434879302979,-8.94196891784668,-3.895740270614624
1761401814860262700,0.3412626953125,0.7080851793289185,-8.901717185974121,-3.9029977321624756
1761401814870344000,0.351343994140625,0.7050175666809082,-8.891990661621094,-3.8886325359344482
1761401814880415700,0.361415771484375,0.6927472949028015,-8.91989803314209,-3.8732945919036865
1761401814890507300,0.37150732421875,0.6515969634056091,-8.963591575622559,-3.8668601512908936
1761401814900596200,0.38159619140625,0.6308721303939819,-8.98888111114502,-3.8563108444213867
1761401814910672600,0.391672607421875,0.6082020401954651,-9.003844261169434,-3.834014654159546
1761401814920762600,0.4017626953125,0.6034884452819824,-8.97189712524414,-3.8104467391967773
1761401814930843600,0.41184375,0.5921908020973206,-8.965986251831055,-3.785083293914795
1761401814940925000,0.421925048828125,0.5979518890380859,-8.96957778930664,-3.790245771408081
1761401814950993000,0.431992919921875,0.618452250957489,-8.95461368560791,-3.8324434757232666
1761401814961083000,0.442082763671875,0.6319944262504578,-8.950199127197266,-3.8905029296875
1761401814971156700,0.45215673828125,0.6159831881523132,-8.941221237182617,-3.9175872802734375
1761401814981249000,0.4622490234375,0.6154595017433167,-8.903138160705566,-3.914444923400879
1761401814991333400,0.47233349609375,0.5770025849342346,-8.9157075881958,-3.880701780319214
1761401815001386000,0.482385986328125,0.5433341264724731,-8.94301700592041,-3.8278796672821045
1761401815011468300,0.49246826171875,0.5276970267295837,-8.936432838439941,-3.7747583389282227
1761401815021563400,0.5025634765625,0.5642834305763245,-8.959701538085938,-3.7823150157928467
1761401815031640300,0.512640380859375,0.5840355753898621,-9.00549030303955,-3.8633437156677246
1761401815041735000,0.52273486328125,0.6189011335372925,-8.989778518676758,-3.9204304218292236
1761401815051817000,0.53281689453125,0.6549637913703918,-8.97765827178955,-3.9395840167999268
1761401815061898000,0.54289794921875,0.7111527323722839,-8.956783294677734,-3.886911630630493
1761401815071968300,0.55296826171875,0.7309048771858215,-8.957456588745117,-3.7911436557769775
1761401815082055000,0.563054931640625,0.7003788352012634,-8.976386070251465,-3.689988613128662
1761401815092135700,0.5731357421875,0.6381295919418335,-9.039009094238281,-3.680636167526245
1761401815102209800,0.583209716796875,0.6073790192604065,-9.083152770996094,-3.721412420272827
1761401815112304000,0.59330419921875,0.6000468134880066,-9.056666374206543,-3.7836616039276123
1761401815122385200,0.60338525390625,0.615683913230896,-8.986785888671875,-3.82458758354187
1761401815132450800,0.613450927734375,0.6340145468711853,-8.950648307800293,-3.8168063163757324
1761401815142547700,0.623547607421875,0.6686556339263916,-8.930222511291504,-3.7666029930114746
1761401815152620300,0.633620361328125,0.6858639717102051,-8.988058090209961,-3.697545289993286
1761401815162708200,0.643708251953125,0.6801029443740845,-9.05823802947998,-3.6594624519348145
1761401815172790800,0.653790771484375,0.6902782917022705,-9.088912963867188,-3.677867889404297
1761401815182868000,0.663867919921875,0.6979097723960876,-9.06182861328125,-3.6978445053100586
1761401815192940300,0.673940185546875,0.6760627031326294,-8.986710548400879,-3.7257518768310547
1761401815203033900,0.684033935546875,0.704867959022522,-8.943690299987793,-3.740715742111206
1761401815213115600,0.69411572265625,0.7490858435630798,-8.956259727478027,-3.7743842601776123
1761401815223195000,0.70419482421875,0.7749731540679932,-9.002123832702637,-3.8085763454437256
1761401815233277200,0.714277099609375,0.776095449924469,-9.03167724609375,-3.8207719326019287
1761401815243346000,0.724345947265625,0.7352443933486938,-9.014019966125488,-3.8360347747802734
1761401815253439700,0.734439697265625,0.6944681406021118,-8.985663414001465,-3.8471827507019043
1761401815263508200,0.74450830078125,0.6360346674919128,-8.95229434967041,-3.856759548187256
1761401815273612000,0.754612060546875,0.6328174471855164,-8.883910179138184,-3.838503837585449
1761401815283681000,0.764680908203125,0.6664111018180847,-8.815824508666992,-3.842020273208618
1761401815293753000,0.774753173828125,0.7055413126945496,-8.80123519897461,-3.862445831298828
1761401815303846000,0.784845947265625,0.7096563577651978,-8.849043846130371,-3.906813383102417
1761401815313926700,0.7949267578125,0.7154921889305115,-8.928502082824707,-3.9766194820404053
1761401815324020500,0.8050205078125,0.695814847946167,-8.984391212463379,-4.032583713531494
1761401815334076200,0.815076171875,0.6636427640914917,-8.957756042480469,-4.017021656036377
1761401815344145000,0.825144775390625,0.6600514650344849,-8.876053810119629,-3.9299323558807373
1761401815354249000,0.8352490234375,0.6495020389556885,-8.852785110473633,-3.852120876312256
1761401815364319700,0.84531982421875,0.6259341239929199,-8.844255447387695,-3.7928643226623535
1761401815374400800,0.85540087890625,0.6330419182777405,-8.858920097351074,-3.811718702316284
1761401815384482300,0.865482421875,0.6736685037612915,-8.90149211883545,-3.892747402191162
1761401815394556200,0.87555615234375,0.6763619780540466,-8.94077205657959,-3.943624258041382
1761401815404649500,0.8856494140625,0.6782324314117432,-8.967108726501465,-3.9514801502227783
1761401815414736100,0.895736083984375,0.6764367818832397,-8.973692893981934,-3.9104795455932617
1761401815424826600,0.90582666015625,0.671648383140564,-8.993370056152344,-3.832742929458618
1761401815434900500,0.915900390625,0.684592068195343,-9.027337074279785,-3.771167039871216
1761401815444983000,0.925983154296875,0.6854150295257568,-9.063250541687012,-3.7613656520843506
1761401815455044000,0.936044189453125,0.6769605278968811,-9.080458641052246,-3.768623113632202
1761401815465156600,0.946156494140625,0.6878092288970947,-9.040655136108398,-3.7596447467803955
1761401815475224800,0.956224853515625,0.6956652402877808,-8.992995262145996,-3.765779972076416
1761401815485300200,0.96630029296875,0.6992565393447876,-8.941819190979004,-3.7333834171295166
1761401815495387000,0.976386962890625,0.6970119476318359,-8.907552719116211,-3.6739773750305176
1761401815505470700,0.986470703125,0.6783820986747742,-8.955361366271973,-3.603797197341919
1761401815515518200,0.996518310546875,0.6536918878555298,-9.106271743774414,-3.526733875274658
1761401815525608200,1.006608154296875,0.6542904376983643,-9.127819061279297,-3.5829975605010986
1761401815535704600,1.01670458984375,0.6914005875587463,-9.073500633239746,-3.6214544773101807
1761401815545790700,1.026790771484375,0.6920739412307739,-9.00279712677002,-3.630058765411377
1761401815555874000,1.0368740234375,0.6649895310401917,-8.904260635375977,-3.6045455932617188
1761401815565929700,1.0469296875,0.6358101963996887,-8.82442855834961,-3.615468978881836
1761401815576036400,1.057036376953125,0.6316203474998474,-8.828843116760254,-3.6278140544891357
1761401815586117600,1.06711767578125,0.6227917075157166,-8.879420280456543,-3.6190602779388428
1761401815596188400,1.0771884765625,0.5908440947532654,-8.942268371582031,-3.588758707046509
1761401815606277400,1.08727734375,0.5489455461502075,-8.994491577148438,-3.574019432067871
1761401815616358400,1.0973583984375,0.5208137035369873,-9.052027702331543,-3.577012062072754
1761401815626441500,1.10744140625,0.5194669365882874,-9.062277793884277,-3.589731454849243
1761401815636510200,1.11751025390625,0.5201402902603149,-9.046490669250488,-3.6106057167053223
1761401815646586600,1.127586669921875,0.5455039143562317,-8.997485160827637,-3.6634278297424316
1761401815656673000,1.137673095703125,0.6022913455963135,-8.976685523986816,-3.7006876468658447
1761401815666751700,1.147751708984375,0.6902034878730774,-9.011924743652344,-3.730764865875244
1761401815676845800,1.157845703125,0.7501333355903625,-9.073126792907715,-3.7358524799346924
1761401815686906400,1.16790625,0.8007108569145203,-9.090784072875977,-3.6902878284454346
1761401815697010200,1.17801025390625,0.8372972011566162,-9.069311141967773,-3.6104562282562256
1761401815707078400,1.188078369140625,0.855029284954071,-9.01431941986084,-3.551798105239868
1761401815717172000,1.198171875,0.8291419744491577,-8.965612411499023,-3.4923171997070312
1761401815727238400,1.20823828125,0.7918822169303894,-8.989554405212402,-3.4822914600372314
1761401815737334500,1.21833447265625,0.7699602842330933,-9.092729568481445,-3.5287539958953857
1761401815747415800,1.228415771484375,0.722749650478363,-9.208772659301758,-3.5743186473846436
1761401815757484000,1.238484130859375,0.6986579895019531,-9.235259056091309,-3.6116533279418945
1761401815767577900,1.248577880859375,0.6548141837120056,-9.21371078491211,-3.6355953216552734
1761401815777659400,1.258659423828125,0.6537666916847229,-9.144803047180176,-3.618835926055908
1761401815787727600,1.2687275390625,0.7014262676239014,-9.110311508178711,-3.58292293548584
1761401815797819400,1.2788193359375,0.7808838486671448,-9.09834098815918,-3.551798105239868
1761401815807898400,1.2888984375,0.8476222157478333,-9.139191627502441,-3.5189528465270996
1761401815817983200,1.298983154296875,0.844704270362854,-9.211541175842285,-3.456254720687866
1761401815828051700,1.3090517578125,0.7485620975494385,-9.221267700195312,-3.393332004547119
1761401815838147600,1.319147705078125,0.6257844567298889,-9.183484077453613,-3.3755998611450195
1761401815848208400,1.32920849609375,0.5311386585235596,-9.160140991210938,-3.3993923664093018
1761401815858295600,1.339295654296875,0.4817582666873932,-9.160365104675293,-3.444732427597046
1761401815868370000,1.349369873046875,0.47390228509902954,-9.129165649414062,-3.503614902496338
1761401815878470400,1.359470458984375,0.5083937644958496,-9.052401542663574,-3.4973301887512207
1761401815888551400,1.369551513671875,0.5732616782188416,-8.98925495147705,-3.480870008468628
1761401815898614000,1.379614013671875,0.6445639729499817,-8.968379974365234,-3.45805025100708
1761401815908714000,1.3897138671875,0.7183353304862976,-9.002347946166992,-3.4661307334899902
1761401815918792400,1.39979248046875,0.8067711591720581,-9.041553497314453,-3.4672529697418213
1761401815928876000,1.4098759765625,0.8413374423980713,-9.067964553833008,-3.5044379234313965
1761401815938957000,1.41995703125,0.8403648138046265,-9.089587211608887,-3.5278561115264893
1761401815949021200,1.430021240234375,0.8254758715629578,-9.092878341674805,-3.543119192123413
1761401815959115500,1.440115478515625,0.7867197394371033,-9.097517967224121,-3.564068555831909
1761401815969191700,1.450191650390625,0.7764695286750793,-9.071255683898926,-3.5823991298675537
1761401815979281400,1.460281494140625,0.7701847553253174,-9.051054954528809,-3.5587563514709473
1761401815989361400,1.470361328125,0.8063970804214478,-9.02935791015625,-3.530400037765503
1761401815999426800,1.4804267578125,0.8262988328933716,-9.027636528015137,-3.485583543777466
1761401816009525200,1.490525146484375,0.8654291033744812,-9.076269149780273,-3.441664934158325
1761401816019593200,1.50059326171875,0.8863035440444946,-9.125649452209473,-3.4176480770111084
1761401816029674500,1.510674560546875,0.8931868672370911,-9.153482437133789,-3.4194438457489014
1761401816039756000,1.520756103515625,0.8556278347969055,-9.139864921569824,-3.4590976238250732
1761401816049847600,1.53084765625,0.836997926235199,-9.118765830993652,-3.5107975006103516
1761401816059909400,1.540909423828125,0.8082675337791443,-9.081655502319336,-3.526359796524048
1761401816070012000,1.551011962890625,0.7745990753173828,-9.056516647338867,-3.5418472290039062
1761401816080093000,1.561093017578125,0.7731027007102966,-9.05374813079834,-3.566537618637085
1761401816090162700,1.57116259765625,0.7735515832901001,-9.068188667297363,-3.5913772583007812
1761401816100255000,1.5812548828125,0.7944260239601135,-9.061080932617188,-3.607239007949829
1761401816110323500,1.591323486328125,0.8402899503707886,-9.031452178955078,-3.6373908519744873
1761401816120415500,1.60141552734375,0.886827290058136,-9.014169692993164,-3.6774189472198486
1761401816130500400,1.611500244140625,0.896852970123291,-9.017611503601074,-3.7077205181121826
1761401816140566000,1.62156591796875,0.8793454170227051,-9.002198219299316,-3.7469255924224854
1761401816150652400,1.63165234375,0.855029284954071,-8.989778518676758,-3.7533600330352783
1761401816160749600,1.64174951171875,0.8732102513313293,-8.990152359008789,-3.7322611808776855
1761401816170823000,1.651822998046875,0.8637082576751709,-9.010802268981934,-3.7026329040527344
1761401816180900600,1.661900634765625,0.8365490436553955,-9.014992713928223,-3.6593875885009766
1761401816190985500,1.6719853515625,0.7960720658302307,-9.032500267028809,-3.6225767135620117
1761401816201066500,1.68206640625,0.8052747845649719,-9.044246673583984,-3.609633207321167
1761401816211136300,1.69213623046875,0.7953987121582031,-9.071480751037598,-3.586813449859619
1761401816221219800,1.7022197265625,0.7942016124725342,-9.079336166381836,-3.59257435798645
1761401816231310000,1.71231005859375,0.8108113408088684,-9.064970970153809,-3.58292293548584
1761401816241359600,1.722359619140625,0.825775146484375,-9.052700996398926,-3.5727474689483643
1761401816251472400,1.732472412109375,0.8209118843078613,-9.057339668273926,-3.540949583053589
1761401816261542100,1.742542236328125,0.8275707960128784,-9.076044082641602,-3.501819372177124
1761401816271647500,1.7526474609375,0.8137292861938477,-9.087865829467773,-3.4980783462524414
1761401816281690400,1.7626904296875,0.8137292861938477,-9.070807456970215,-3.5208981037139893
1761401816291797000,1.772796875,0.8126070499420166,-9.090858459472656,-3.553219795227051
1761401816301878000,1.7828779296875,0.7895628213882446,-9.09646987915039,-3.577086925506592
1761401816311964000,1.7929638671875,0.7829787731170654,-9.104700088500977,-3.58217453956604
1761401816322040300,1.803040283203125,0.750582218170166,-9.08218002319336,-3.5499277114868164
1761401816332121000,1.81312109375,0.7514800429344177,-9.056666374206543,-3.520598888397217
1761401816342186000,1.82318603515625,0.7565677165985107,-9.066617012023926,-3.4956841468811035
1761401816352284000,1.833283935546875,0.768538773059845,-9.081581115722656,-3.4764556884765625
1761401816362351900,1.843351806640625,0.7719804048538208,-9.077092170715332,-3.4760067462921143
1761401816372444700,1.853444580078125,0.7419780492782593,-9.074173927307129,-3.476081609725952
1761401816382526700,1.863526611328125,0.7169885635375977,-9.071854591369629,-3.466280221939087
1761401816392595500,1.873595458984375,0.6946926116943359,-9.077316284179688,-3.4778025150299072
1761401816402689500,1.883689453125,0.6557868123054504,-9.057415008544922,-3.485508680343628
1761401816412757500,1.893757568359375,0.653841495513916,-9.016563415527344,-3.512293815612793
1761401816422851800,1.903851806640625,0.6575076580047607,-9.003021240234375,-3.5526959896087646
1761401816432932600,1.9139326171875,0.6946926116943359,-9.008109092712402,-3.5424458980560303
1761401816443004000,1.92400390625,0.7169885635375977,-9.036166191101074,-3.5358617305755615
1761401816453095000,1.934094970703125,0.7389853000640869,-9.04439640045166,-3.523815870285034
1761401816463161300,1.944161376953125,0.7573159337043762,-9.075520515441895,-3.524489402770996
1761401816473257500,1.954257568359375,0.7601590156555176,-9.09070873260498,-3.5312979221343994
1761401816483338000,1.964337890625,0.7546224594116211,-9.091980934143066,-3.5371336936950684
1761401816493425700,1.97442578125,0.722749650478363,-9.058387756347656,-3.5475335121154785
1761401816503486200,1.984486328125,0.7104793787002563,-9.017760276794434,-3.5517234802246094
1761401816513571300,1.9945712890625,0.7110030651092529,-8.999205589294434,-3.5255367755889893
1761401816523662800,2.004662841796875,0.731653094291687,-9.013944625854492,-3.5048868656158447
1761401816533744000,2.014744140625,0.7630021572113037,-9.046490669250488,-3.517606019973755
1761401816543812900,2.024812744140625,0.7692121267318726,-9.071331024169922,-3.566986322402954
1761401816553896200,2.034896240234375,0.7900117635726929,-9.083152770996094,-3.5987095832824707
1761401816563995100,2.0449951171875,0.8093898296356201,-9.055319786071777,-3.596914052963257
1761401816574068700,2.05506884765625,0.8036287426948547,-9.033023834228516,-3.558980941772461
1761401816584149500,2.0651494140625,0.7975684404373169,-8.993070602416992,-3.5487306118011475
1761401816594226200,2.07522607421875,0.7658452391624451,-8.96965217590332,-3.5861401557922363
1761401816604311800,2.085311767578125,0.7267150282859802,-8.978181838989258,-3.628262996673584
1761401816614380500,2.095380615234375,0.6956652402877808,-8.999579429626465,-3.6605846881866455
1761401816624463400,2.10546337890625,0.6695534586906433,-9.038261413574219,-3.655122995376587
1761401816634542000,2.1155419921875,0.6912509202957153,-9.060182571411133,-3.588010549545288
1761401816644624100,2.1256240234375,0.7064391374588013,-9.055543899536133,-3.5259108543395996
1761401816654713300,2.13571337890625,0.6919242739677429,-9.067066192626953,-3.492990732192993
1761401816664799700,2.1457998046875,0.6737433075904846,-9.098115921020508,-3.5282301902770996
1761401816674867700,2.15586767578125,0.6790554523468018,-9.101632118225098,-3.5725977420806885
1761401816684960800,2.165960693359375,0.7029226422309875,-9.056442260742188,-3.5911529064178467
1761401816695032600,2.176032470703125,0.7451204657554626,-9.030704498291016,-3.613149642944336
1761401816705123600,2.18612353515625,0.7858967185020447,-9.046566009521484,-3.6164417266845703
1761401816715204400,2.196204345703125,0.8068459630012512,-9.054720878601074,-3.6129252910614014
1761401816725258800,2.2062587890625,0.7926303744316101,-9.06287670135498,-3.6254947185516357
1761401816735343600,2.216343505859375,0.7794622778892517,-9.068562507629395,-3.604321002960205
1761401816745448400,2.226448486328125,0.771007776260376,-9.098938941955566,-3.589357376098633
1761401816755502300,2.23650244140625,0.749310314655304,-9.119888305664062,-3.5765633583068848
1761401816765585000,2.2465849609375,0.743025541305542,-9.126023292541504,-3.5826234817504883
1761401816775684900,2.256684814453125,0.7476642727851868,-9.098565101623535,-3.601926803588867
1761401816785760300,2.26676025390625,0.7701847553253174,-9.066168785095215,-3.6081368923187256
1761401816795853600,2.276853515625,0.7618798613548279,-9.042376518249512,-3.606116771697998
1761401816805922000,2.286922119140625,0.7635259032249451,-9.049708366394043,-3.5970635414123535
1761401816816013600,2.297013671875,0.7560440301895142,-9.057713508605957,-3.617189884185791
1761401816826094800,2.3070947265625,0.7318027019500732,-9.051877975463867,-3.6273651123046875
1761401816836170000,2.317169921875,0.7383119463920593,-9.025616645812988,-3.638662815093994
1761401816846268000,2.327267822265625,0.7243956327438354,-9.021875381469727,-3.643376350402832
1761401816856327400,2.337327392578125,0.7178863883018494,-9.013121604919434,-3.624746561050415
1761401816866408700,2.34740869140625,0.7249941825866699,-9.010802268981934,-3.618835926055908
1761401816876496400,2.357496337890625,0.7144447565078735,-9.014094352722168,-3.6100072860717773
1761401816886581500,2.36758154296875,0.7217021584510803,-9.037363052368164,-3.591078042984009
1761401816896665000,2.3776650390625,0.7178863883018494,-9.044321060180664,-3.5901801586151123
1761401816906733300,2.3877333984375,0.7151929140090942,-9.053000450134277,-3.5942203998565674
1761401816916820200,2.3978203125,0.7077859044075012,-9.049558639526367,-3.6088850498199463
1761401816926895600,2.4078955078125,0.7209540009498596,-9.049334526062012,-3.6280386447906494
1761401816936989400,2.417989501953125,0.7451952695846558,-9.03983211517334,-3.6167409420013428
1761401816947069000,2.42806884765625,0.7767688035964966,-9.048212051391602,-3.5987844467163086
1761401816957153300,2.4381533203125,0.7819313406944275,-9.073949813842773,-3.5551650524139404
1761401816967233000,2.44823291015625,0.7623288035392761,-9.079785346984863,-3.5468602180480957
1761401816977301000,2.458301025390625,0.7438485622406006,-9.048361778259277,-3.5479824542999268
1761401816987395000,2.46839501953125,0.7277625203132629,-9.03287410736084,-3.5631706714630127
1761401816997476600,2.4784765625,0.7198317050933838,-9.016788482666016,-3.5662381649017334
1761401817007542800,2.488542724609375,0.7268646955490112,-9.02830982208252,-3.5824739933013916
1761401817017638700,2.498638671875,0.7395838499069214,-9.026514053344727,-3.5725977420806885
1761401817027713000,2.508713134765625,0.7473649978637695,-9.037736892700195,-3.5755157470703125
1761401817037816600,2.518816650390625,0.7535001635551453,-9.052700996398926,-3.5627217292785645
1761401817047869400,2.528869384765625,0.7728034257888794,-9.059808731079102,-3.5627965927124023
1761401817057962800,2.538962646484375,0.7781903743743896,-9.073201179504395,-3.540276050567627
1761401817068044300,2.549044189453125,0.7511807680130005,-9.067290306091309,-3.4963574409484863
1761401817078111200,2.559111328125,0.6929717659950256,-9.057863235473633,-3.483638286590576
1761401817088206000,2.5692060546875,0.685639500617981,-9.04327392578125,-3.507505416870117
1761401817098279200,2.579279052734375,0.6777087450027466,-9.026663780212402,-3.553743600845337
1761401817108378600,2.589378662109375,0.6919991374015808,-9.024120330810547,-3.569380521774292
1761401817118436900,2.599436767578125,0.7285106778144836,-9.044246673583984,-3.5777604579925537
1761401817128531000,2.609531005859375,0.7749731540679932,-9.070283889770508,-3.59796142578125
1761401817138610700,2.619610595703125,0.8145523071289062,-9.067215919494629,-3.6045455932617188
1761401817148687400,2.629687255859375,0.8108113408088684,-9.056292533874512,-3.6281135082244873
1761401817158776300,2.6397763671875,0.809165358543396,-9.079411506652832,-3.6373162269592285
1761401817168855300,2.649855224609375,0.8056488633155823,-9.074173927307129,-3.6437504291534424
1761401817178936600,2.6599365234375,0.778714120388031,-9.066692352294922,-3.6525044441223145
1761401817189017900,2.670017822265625,0.7686883807182312,-9.052626609802246,-3.646444082260132
1761401817199091700,2.680091796875,0.7644985318183899,-9.045817375183105,-3.607912302017212
1761401817209180200,2.69018017578125,0.7497591972351074,-9.02935791015625,-3.5721490383148193
1761401817219249400,2.70024951171875,0.7366659641265869,-9.039532661437988,-3.570652484893799
1761401817229329400,2.710329345703125,0.716240406036377,-9.038411140441895,-3.5678093433380127
1761401817239423200,2.72042333984375,0.7312789559364319,-9.035043716430664,-3.58561635017395
1761401817249504500,2.73050439453125,0.7719804048538208,-9.029208183288574,-3.5969886779785156
1761401817259574800,2.74057470703125,0.7859715223312378,-9.04215145111084,-3.6216042041778564
1761401817269664800,2.750664794921875,0.7934533953666687,-9.042974472045898,-3.6197338104248047
1761401817279748000,2.760748046875,0.8006359934806824,-9.047313690185547,-3.593771457672119
1761401817289820000,2.77081982421875,0.8165724277496338,-9.044845581054688,-3.5895817279815674
1761401817299897300,2.7808974609375,0.786270797252655,-9.050605773925781,-3.5872623920440674
1761401817309978600,2.790978515625,0.7796119451522827,-9.03975772857666,-3.5948190689086914
1761401817320051200,2.80105126953125,0.7714566588401794,-9.051803588867188,-3.5952680110931396
1761401817330151400,2.8111513671875,0.773476779460907,-9.066542625427246,-3.5861401557922363
1761401817340222000,2.821221923828125,0.7844003438949585,-9.073051452636719,-3.5692310333251953
1761401817350303700,2.8313037109375,0.7937526702880859,-9.071405410766602,-3.574767589569092
1761401817360396800,2.841396728515625,0.8105869293212891,-9.06646728515625,-3.595118284225464
1761401817370466000,2.851466064453125,0.798840343952179,-9.060781478881836,-3.614870548248291
1761401817380558600,2.86155859375,0.8095394372940063,-9.041777610778809,-3.6360442638397217
1761401817390638300,2.871638427734375,0.7939771413803101,-9.021127700805664,-3.652653932571411
1761401817400717600,2.881717529296875,0.7840262651443481,-9.022848129272461,-3.6546740531921387
1761401817410799400,2.89179931640625,0.7589619159698486,-9.021950721740723,-3.6495864391326904
1761401817420859600,2.901859619140625,0.7721300721168518,-9.034594535827637,-3.6313304901123047
1761401817430968800,2.91196875,0.7705588340759277,-9.025017738342285,-3.6115784645080566
1761401817441037600,2.92203759765625,0.7906103134155273,-9.013496398925781,-3.613074779510498
1761401817451114000,2.932114013671875,0.7802104949951172,-9.027562141418457,-3.635894536972046
1761401817461204200,2.942204345703125,0.7855974435806274,-9.035642623901367,-3.6541502475738525
1761401817471289300,2.952289306640625,0.7752724289894104,-9.003246307373047,-3.6630537509918213
1761401817481347300,2.962347412109375,0.7957727909088135,-8.983269691467285,-3.648538827896118
1761401817491438800,2.97243896484375,0.7827543020248413,-8.985214233398438,-3.6419548988342285
1761401817501532700,2.98253271484375,0.7787889242172241,-9.002347946166992,-3.640533208847046
1761401817511613700,2.99261376953125,0.7764695286750793,-9.02935791015625,-3.6361937522888184
1761401817521691100,3.002691162109375,0.7827543020248413,-9.032200813293457,-3.6327521800994873
1761401817531787800,3.012787841796875,0.7745990753173828,-9.009156227111816,-3.5922751426696777
1761401817541844700,3.0228447265625,0.7572411298751831,-9.004817008972168,-3.5789575576782227
1761401817551922700,3.032922607421875,0.7701099514961243,-9.003844261169434,-3.578059673309326
1761401817562019800,3.043019775390625,0.7743746042251587,-9.002946853637695,-3.5714006423950195
1761401817572100400,3.053100341796875,0.790086567401886,-9.017236709594727,-3.574019432067871
1761401817582179600,3.0631796875,0.8030301928520203,-9.015366554260254,-3.5672857761383057
1761401817592261600,3.07326171875,0.8179939985275269,-9.011775016784668,-3.5928738117218018
1761401817602344000,3.083343994140625,0.8340051770210266,-9.020005226135254,-3.613673448562622
1761401817612412400,3.093412353515625,0.862660825252533,-9.026813507080078,-3.655122995376587
1761401817622507000,3.103507080078125,0.8886977434158325,-9.042001724243164,-3.694552421569824
1761401817632565800,3.113565673828125,0.8999953866004944,-9.062277793884277,-3.700986862182617
1761401817642656300,3.12365625,0.8708160519599915,-9.07222843170166,-3.6750247478485107
1761401817652747800,3.133747802734375,0.8304138779640198,-9.065495491027832,-3.6412816047668457
1761401817662830800,3.143830810546875,0.7845499515533447,-9.069610595703125,-3.6302831172943115
1761401817672903000,3.15390283203125,0.7873930931091309,-9.046042442321777,-3.6162171363830566
1761401817682977500,3.1639775390625,0.8063222169876099,-9.039458274841309,-3.6227264404296875
1761401817693074000,3.174073974609375,0.8146271109580994,-9.028908729553223,-3.625868797302246
1761401817703144000,3.18414404296875,0.8344541192054749,-9.01087760925293,-3.625270366668701
1761401817713244000,3.194243896484375,0.8580968379974365,-8.986710548400879,-3.63110613822937
1761401817723303400,3.204303466796875,0.8761281967163086,-8.981847763061523,-3.654449701309204
1761401817733398500,3.2143984375,0.875454843044281,-8.989628791809082,-3.6950762271881104
1761401817743467500,3.224467529296875,0.8540566563606262,-8.979453086853027,-3.7245547771453857
1761401817753559000,3.23455908203125,0.843582034111023,-8.971672058105469,-3.7462522983551025
1761401817763642400,3.244642333984375,0.8081927299499512,-8.974141120910645,-3.7568018436431885
1761401817773711000,3.254711181640625,0.7682394981384277,-8.986336708068848,-3.7474493980407715
1761401817783803100,3.26480322265625,0.7529016137123108,-8.977433204650879,-3.719242811203003
1761401817793885400,3.274885498046875,0.7511059641838074,-8.994417190551758,-3.6890158653259277
1761401817803967000,3.284967041015625,0.7721300721168518,-8.986486434936523,-3.656320095062256
1761401817814035200,3.29503515625,0.8021323680877686,-8.989928245544434,-3.6444239616394043
1761401817824129300,3.30512939453125,0.8210615515708923,-8.99928092956543,-3.640982151031494
1761401817834210800,3.3152109375,0.8146271109580994,-9.003694534301758,-3.6297593116760254
1761401817844288800,3.325288818359375,0.8203881978988647,-8.998981475830078,-3.630582332611084
1761401817854372900,3.335372802734375,0.825775146484375,-9.003470420837402,-3.644049882888794
1761401817864453400,3.345453369140625,0.835950493812561,-9.011027336120605,-3.634697437286377
1761401817874522400,3.3555224609375,0.8444798588752747,-9.02486801147461,-3.629534959793091
1761401817884590600,3.365590576171875,0.8542062640190125,-9.033173561096191,-3.625943660736084
1761401817894672000,3.375671875,0.8495675325393677,-9.040879249572754,-3.6231753826141357
1761401817904763000,3.385762939453125,0.8444049954414368,-9.04447078704834,-3.631181001663208
1761401817914837200,3.395837158203125,0.8306383490562439,-9.027337074279785,-3.641206741333008
1761401817924915000,3.4059150390625,0.8375964760780334,-8.998083114624023,-3.659836530685425
1761401817934996200,3.415996337890625,0.8433575630187988,-9.009679794311523,-3.6805613040924072
1761401817945065700,3.426065673828125,0.8251765966415405,-9.005864143371582,-3.716923236846924
1761401817955147300,3.436147216796875,0.830862820148468,-8.99928092956543,-3.726200819015503
1761401817965238800,3.44623876953125,0.863783061504364,-8.988656044006348,-3.716848611831665
1761401817975330000,3.456330078125,0.8676736354827881,-9.00391960144043,-3.6727802753448486
1761401817985419300,3.466419189453125,0.8585457801818848,-9.01207447052002,-3.651082754135132
1761401817995491000,3.476490966796875,0.8467243909835815,-9.030928611755371,-3.637615442276001
1761401818005587200,3.486587158203125,0.8403648138046265,-9.015890121459961,-3.649960517883301
1761401818015657000,3.496656982421875,0.81672203540802,-9.015291213989258,-3.690138101577759
1761401818025751600,3.50675146484375,0.8081927299499512,-9.00317096710205,-3.7207391262054443
1761401818035822800,3.51682275390625,0.8057985305786133,-8.998382568359375,-3.7083940505981445
1761401818045912000,3.526912109375,0.8093898296356201,-8.987608909606934,-3.6868462562561035
1761401818055995100,3.5369951171875,0.8153005242347717,-8.9935941696167,-3.664999008178711
1761401818066056700,3.547056640625,0.8112602829933167,-9.008857727050781,-3.647566318511963
1761401818076158000,3.557157958984375,0.8207622766494751,-9.00436782836914,-3.660435199737549
1761401818086238700,3.56723876953125,0.8250269293785095,-8.995988845825195,-3.67195725440979
1761401818096318000,3.57731787109375,0.8368483185768127,-8.995240211486816,-3.678316831588745
1761401818106398700,3.587398681640625,0.8394669890403748,-8.992846488952637,-3.6914100646972656
1761401818116482000,3.59748193359375,0.8621370792388916,-8.992621421813965,-3.694777011871338
1761401818126550500,3.607550537109375,0.8615385293960571,-8.997709274291992,-3.6965725421905518
1761401818136641800,3.617641845703125,0.8582465052604675,-9.008932113647461,-3.6947021484375
1761401818146713000,3.627713134765625,0.8587702512741089,-9.020528793334961,-3.694103479385376
1761401818156791300,3.637791259765625,0.8379706144332886,-9.033622741699219,-3.6856491565704346
1761401818166888000,3.647887939453125,0.8263736963272095,-9.031901359558105,-3.7032315731048584
1761401818176968700,3.65796875,0.8131307363510132,-9.01476764678955,-3.7065234184265137
1761401818187037200,3.668037109375,0.823156476020813,-9.005340576171875,-3.6913352012634277
1761401818197118200,3.6781181640625,0.8212111592292786,-8.997783660888672,-3.6639516353607178
1761401818207212300,3.68821240234375,0.829441249370575,-9.015366554260254,-3.6705355644226074
1761401818217293600,3.69829345703125,0.8378209471702576,-9.011850357055664,-3.6902878284454346
1761401818227361300,3.708361328125,0.8301894664764404,-8.981623649597168,-3.7001638412475586
1761401818237456000,3.718455810546875,0.8344541192054749,-8.96501350402832,-3.7148284912109375
1761401818247537400,3.728537353515625,0.8299649953842163,-8.961272239685059,-3.7274727821350098
1761401818257617700,3.73861767578125,0.8257002830505371,-8.972121238708496,-3.748197555541992
1761401818267608600,3.748608642578125,0.8019079566001892,-8.973318099975586,-3.7589714527130127
1761401818277754400,3.75875439453125,0.7930793166160583,-8.984092712402344,-3.7496938705444336
1761401818295423500,3.776423583984375,0.8058733344078064,-9.011550903320312,-3.722759246826172
1761401818305504000,3.78650390625,0.8274959921836853,-9.011475563049316,-3.7001638412475586
1761401818315559700,3.7965595703125,0.83714759349823,-9.000701904296875,-3.671508312225342
1761401818325641500,3.806641357421875,0.8275707960128784,-9.009081840515137,-3.671508312225342
1761401818335747000,3.8167470703125,0.8360252976417542,-9.007884979248047,-3.638064384460449
1761401818345803500,3.826803466796875,0.8420107960700989,-9.018583297729492,-3.638139009475708
1761401818355909400,3.836909423828125,0.8324339985847473,-9.034220695495605,-3.63574481010437
1761401818365991000,3.846990966796875,0.8241291046142578,-9.047389030456543,-3.6308817863464355
1761401818376072700,3.85707275390625,0.792705237865448,-9.045219421386719,-3.649735927581787
1761401818386152700,3.867152587890625,0.7782651782035828,-9.010578155517578,-3.677119731903076
1761401818396234000,3.87723388671875,0.773476779460907,-8.96157169342041,-3.702183961868286
1761401818406315000,3.88731494140625,0.7912836670875549,-8.92805290222168,-3.7475991249084473
1761401818416396800,3.897396728515625,0.7948001623153687,-8.937555313110352,-3.7691469192504883
1761401818426477800,3.907477783203125,0.8019827604293823,-8.960225105285645,-3.7428853511810303
1761401818436533200,3.917533203125,0.7864952683448792,-9.011700630187988,-3.7178211212158203
1761401818446597400,3.927597412109375,0.7985410690307617,-9.027188301086426,-3.6915597915649414
1761401818456720600,3.937720703125,0.7967454195022583,-9.017461776733398,-3.688267707824707
1761401818466802200,3.94780224609375,0.8181436061859131,-8.999429702758789,-3.711012601852417
1761401818476883500,3.957883544921875,0.8396914005279541,-9.004143714904785,-3.70278263092041
1761401818486964500,3.967964599609375,0.8553285598754883,-9.010054588317871,-3.680112361907959
1761401818497045500,3.97804541015625,0.8912416100502014,-9.01708698272705,-3.6420297622680664
1761401818507126300,3.988126220703125,0.8984242081642151,-9.036166191101074,-3.6433017253875732
1761401818517207600,3.99820751953125,0.8863783478736877,-9.018284797668457,-3.6802620887756348
1761401818527288600,4.00828857421875,0.8814403414726257,-8.994342803955078,-3.7339820861816406
1761401818537369900,4.018369873046875,0.8583213090896606,-8.99815845489502,-3.7444565296173096
1761401818547452000,4.028451904296875,0.8475474119186401,-8.991050720214844,-3.736076831817627
1761401818557532700,4.03853271484375,0.8857797980308533,-8.956259727478027,-3.7481226921081543
1761401818567599600,4.048599609375,0.9191489815711975,-8.928576469421387,-3.791293144226074
1761401818577694500,4.058694580078125,0.9417442679405212,-8.932018280029297,-3.817629337310791
1761401818587775500,4.068775390625,0.9692776203155518,-8.914061546325684,-3.8010196685791016
1761401818597845800,4.078845703125,0.966958224773407,-8.935534477233887,-3.78912353515625
1761401818607937800,4.088937744140625,0.927603542804718,-8.964414596557617,-3.7578492164611816
1761401818617993700,4.09899365234375,0.8770260214805603,-8.9982328414917,-3.7479732036590576
1761401818628096000,4.109095947265625,0.8494178652763367,-9.017461776733398,-3.762188673019409
1761401818638179000,4.119178955078125,0.8351274728775024,-9.00317096710205,-3.766902208328247
1761401818648262100,4.12926220703125,0.8255506753921509,-8.98888111114502,-3.7632360458374023
1761401818658343400,4.139343505859375,0.8066214919090271,-8.967482566833496,-3.723731756210327
1761401818668424700,4.1494248046875,0.7995137572288513,-8.952070236206055,-3.6938042640686035
1761401818678502000,4.159501953125,0.7971943616867065,-8.953267097473145,-3.6770448684692383
1761401818688583200,4.169583251953125,0.787617564201355,-8.972420692443848,-3.68662166595459
1761401818698668000,4.17966796875,0.7936778664588928,-8.987833023071289,-3.685499429702759
1761401818708749000,4.1897490234375,0.8115595579147339,-8.979378700256348,-3.697545289993286
1761401818718830300,4.199830322265625,0.8223334550857544,-8.976984024047852,-3.702333688735962
1761401818728914000,4.209913818359375,0.8258499503135681,-8.984092712402344,-3.7155017852783203
1761401818738988800,4.21998876953125,0.8390180468559265,-8.984092712402344,-3.7059998512268066
1761401818749073700,4.23007373046875,0.850989043712616,-8.99239730834961,-3.697694778442383
1761401818759154700,4.24015478515625,0.8510639071464539,-9.012673377990723,-3.6774189472198486
1761401818769236200,4.250236328125,0.8594436049461365,-9.02823543548584,-3.6619315147399902
1761401818779317000,4.26031689453125,0.870217502117157,-9.016263961791992,-3.6595373153686523
1761401818789398300,4.270398193359375,0.8713397979736328,-9.020977973937988,-3.6774938106536865
1761401818799475500,4.280475341796875,0.8808417916297913,-9.006612777709961,-3.7026329040527344
1761401818809560300,4.290560302734375,0.9083002805709839,-9.00047779083252,-3.7146787643432617
1761401818819637000,4.300636962890625,0.9214683771133423,-9.00160026550293,-3.706373929977417
1761401818829723000,4.310722900390625,0.9346364736557007,-9.006388664245605,-3.704054594039917
1761401818839804000,4.320803955078125,0.8999205827713013,-9.0005521774292,-3.7158758640289307
1761401818849885000,4.330885009765625,0.8771756291389465,-8.983867645263672,-3.734879732131958
1761401818859966000,4.340966064453125,0.8616881370544434,-8.955212593078613,-3.757550001144409
1761401818870043400,4.35104345703125,0.8545803427696228,-8.950424194335938,-3.7550809383392334
1761401818880103000,4.36110302734375,0.850989043712616,-8.950498580932617,-3.7538838386535645
1761401818890208800,4.371208740234375,0.849791944026947,-8.963591575622559,-3.7526867389678955
1761401818900290600,4.38129052734375,0.8497171401977539,-8.993444442749023,-3.7574751377105713
1761401818910371600,4.39137158203125,0.8450035452842712,-8.991125106811523,-3.737199306488037
1761401818920452900,4.401452880859375,0.8462755084037781,-8.963666915893555,-3.7323360443115234
1761401818930530000,4.411530029296875,0.8689455986022949,-8.950424194335938,-3.73248553276062
1761401818940615200,4.421615234375,0.8836100697517395,-8.970549583435059,-3.724330425262451
1761401818950696400,4.431696533203125,0.8680477738380432,-8.980201721191406,-3.7218613624572754
1761401818960777500,4.441777587890625,0.8740332722663879,-8.995689392089844,-3.7135565280914307
1761401818970858500,4.4518583984375,0.8633341789245605,-8.980201721191406,-3.7146787643432617
1761401818980902100,4.461902099609375,0.8597428798675537,-8.984990119934082,-3.7158758640289307
1761401818991020500,4.4720205078125,0.8643816113471985,-8.996886253356934,-3.7445313930511475
1761401819001066000,4.48206591796875,0.8858546018600464,-9.008782386779785,-3.756577253341675
1761401819011183000,4.49218310546875,0.9074024558067322,-9.002721786499023,-3.7423617839813232
1761401819021264100,4.50226416015625,0.8773252964019775,-8.989928245544434,-3.6822822093963623
1761401819031345400,4.512345458984375,0.8678981065750122,-8.96725845336914,-3.648763418197632
1761401819041426700,4.5224267578125,0.8726117014884949,-8.952893257141113,-3.673827648162842
1761401819051507500,4.532507568359375,0.8509142398834229,-8.961272239685059,-3.7311389446258545
1761401819061584400,4.54258447265625,0.8544307351112366,-8.982745170593262,-3.7478983402252197
1761401819071648000,4.55264794921875,0.885480523109436,-9.0005521774292,-3.7492449283599854
1761401819081751300,4.562751220703125,0.905906081199646,-9.011251449584961,-3.7170729637145996
1761401819091832000,4.57283203125,0.8928875923156738,-9.01132583618164,-3.6799628734588623
1761401819101913300,4.582913330078125,0.8658779859542847,-8.998083114624023,-3.6896891593933105
1761401819111989500,4.592989501953125,0.8670750856399536,-8.987309455871582,-3.7003884315490723
1761401819122071600,4.603071533203125,0.858695387840271,-8.979004859924316,-3.706299066543579
1761401819132156400,4.613156494140625,0.8395417928695679,-8.982670783996582,-3.7241806983947754
1761401819142237700,4.62323779296875,0.8586205840110779,-8.990900993347168,-3.731438159942627
1761401819152319000,4.633319091796875,0.8693944811820984,-8.996886253356934,-3.7159507274627686
1761401819162399700,4.643399658203125,0.8682721853256226,-8.97421646118164,-3.6932058334350586
1761401819172481000,4.65348095703125,0.8969278335571289,-8.957306861877441,-3.7148284912109375
1761401819182562300,4.663562255859375,0.9023895859718323,-8.969352722167969,-3.7362265586853027
1761401819192639500,4.673639404296875,0.8952069878578186,-8.97773265838623,-3.7433342933654785
1761401819202724900,4.683724853515625,0.8808417916297913,-8.971821784973145,-3.7516391277313232
1761401819212805600,4.6938056640625,0.867748498916626,-8.97309398651123,-3.7288942337036133
1761401819222874400,4.703874267578125,0.8450784087181091,-8.988731384277344,-3.714454412460327
1761401819232968000,4.713968017578125,0.8319851160049438,-8.99239730834961,-3.696497678756714
1761401819243049000,4.724049072265625,0.8452280163764954,-8.979228973388672,-3.6762218475341797
1761401819253126400,4.73412646484375,0.8355764150619507,-8.973243713378906,-3.7012860774993896
1761401819263218700,4.74421875,0.8652794361114502,-8.967183113098145,-3.7120602130889893
1761401819273292300,4.754292236328125,0.8927379846572876,-8.988581657409668,-3.731363296508789
1761401819283373600,4.76437353515625,0.9070283770561218,-9.005266189575195,-3.729043960571289
1761401819293454800,4.774454833984375,0.9178770780563354,-9.009979248046875,-3.708768129348755
1761401819303535900,4.784535888671875,0.9142857789993286,-9.010054588317871,-3.705176830291748
1761401819313617000,4.794616943359375,0.8653542995452881,-8.99471664428711,-3.689389944076538
1761401819323694000,4.804694091796875,0.8366238474845886,-8.986486434936523,-3.7024085521698
1761401819333780500,4.814780517578125,0.8126818537712097,-8.974590301513672,-3.7190182209014893
1761401819343835000,4.8248349609375,0.8173205852508545,-8.9889554977417,-3.726200819015503
1761401819353941800,4.834941650390625,0.8424597382545471,-9.00204849243164,-3.7036056518554688
1761401819364007200,4.845007080078125,0.8747814297676086,-9.009081840515137,-3.6857986450195312
1761401819374103800,4.855103759765625,0.8711901307106018,-9.004293441772461,-3.7001638412475586
1761401819384172000,4.865172119140625,0.8699182271957397,-8.992321968078613,-3.716848611831665
1761401819394265900,4.875265869140625,0.8735095262527466,-8.96957778930664,-3.7264254093170166
1761401819404347100,4.88534716796875,0.904559314250946,-8.957531929016113,-3.731288433074951
1761401819414428200,4.89542822265625,0.863932728767395,-8.972046852111816,-3.7275476455688477
1761401819434565600,4.915565673828125,0.831910252571106,-8.985214233398438,-3.7251534461975098
1761401819444672500,4.925672607421875,0.8092401623725891,-8.970998764038086,-3.7321863174438477
1761401819454752800,4.935752685546875,0.8103624582290649,-8.9674072265625,-3.7381718158721924
1761401819464833800,4.945833740234375,0.7924807667732239,-8.974664688110352,-3.727323055267334
1761401819474915000,4.9559150390625,0.7960720658302307,-8.992547035217285,-3.728595018386841
1761401819484996000,4.96599609375,0.8105120658874512,-8.969801902770996,-3.698742389678955
1761401819495077400,4.976077392578125,0.7795370817184448,-8.978331565856934,-3.6747255325317383
1761401819505130800,4.986130859375,0.7737760543823242,-8.981847763061523,-3.6843771934509277
1761401819515240200,4.996240234375,0.8036287426948547,-9.00317096710205,-3.6893150806427
1761401819525320700,5.00632080078125,0.8143278360366821,-9.001974105834961,-3.694178342819214
1761401819535402000,5.016402099609375,0.8120084404945374,-8.999579429626465,-3.691709280014038
1761401819545476900,5.026476806640625,0.8311620950698853,-8.976835250854492,-3.6869957447052
1761401819555564000,5.03656396484375,0.8382698893547058,-8.981548309326172,-3.689464807510376
1761401819565645300,5.046645263671875,0.8429834842681885,-9.020902633666992,-3.6978445053100586
1761401819575726300,5.056726318359375,0.8274959921836853,-9.048511505126953,-3.6822822093963623
1761401819585807600,5.0668076171875,0.8227075338363647,-9.02943229675293,-3.687070608139038
1761401819595888600,5.076888671875,0.8179939985275269,-9.00436782836914,-3.6846015453338623
1761401819605970000,5.086969970703125,0.8048258423805237,-8.987683296203613,-3.6893150806427
1761401819616051000,5.097051025390625,0.8108113408088684,-9.00317096710205,-3.690512180328369
1761401819626132000,5.107132080078125,0.8203133344650269,-9.015067100524902,-3.7049522399902344
1761401819636213200,5.117213134765625,0.8489689826965332,-9.007735252380371,-3.709815502166748
1761401819646294800,5.127294677734375,0.8633341789245605,-8.992172241210938,-3.7146787643432617
1761401819656375600,5.13737548828125,0.8549544811248779,-8.965910911560059,-3.713406801223755
1761401819666456600,5.14745654296875,0.8353519439697266,-8.956559181213379,-3.7346553802490234
1761401819676537900,5.157537841796875,0.8341548442840576,-8.961347579956055,-3.751339912414551
1761401819686619000,5.167618896484375,0.8257002830505371,-8.978106498718262,-3.7561283111572266
1761401819696700200,5.1777001953125,0.8293664455413818,-8.985289573669434,-3.7358524799346924
1761401819706756600,5.187756591796875,0.8162731528282166,-8.986486434936523,-3.7321863174438477
1761401819716836000,5.197836181640625,0.8496423363685608,-8.973243713378906,-3.744307041168213
1761401819726942700,5.207942626953125,0.8616133332252502,-8.962394714355469,-3.7574751377105713
1761401819737025000,5.21802490234375,0.867598831653595,-8.965986251831055,-3.7538838386535645
1761401819747061500,5.2280615234375,0.8596680760383606,-8.973018646240234,-3.7397429943084717
1761401819757187000,5.23818701171875,0.8573486804962158,-8.977882385253906,-3.714603900909424
1761401819767242500,5.248242431640625,0.8549544811248779,-8.99935531616211,-3.6979193687438965
1761401819777349400,5.258349365234375,0.8598176836967468,-9.025691032409668,-3.681234836578369
1761401819787430100,5.26843017578125,0.8478466868400574,-9.001824378967285,-3.6931309700012207
1761401819797511400,5.278511474609375,0.834678590297699,-8.988731384277344,-3.7013609409332275
1761401819807593200,5.28859326171875,0.8453776836395264,-8.97548770904541,-3.711012601852417
1761401819817673500,5.298673583984375,0.8429834842681885,-8.985064506530762,-3.713406801223755
1761401819827754800,5.308754638671875,0.8641571998596191,-8.982745170593262,-3.7025580406188965
1761401819837836300,5.318836181640625,0.8964040875434875,-9.005340576171875,-3.6919338703155518
1761401819847917600,5.32891748046875,0.9204209446907043,-9.007659912109375,-3.6681413650512695
1761401819857996300,5.338996337890625,0.9394997358322144,-8.994417190551758,-3.6861727237701416
1761401819868075300,5.3490751953125,0.9130886793136597,-8.97773265838623,-3.7170729637145996
1761401819878158800,5.359158935546875,0.867598831653595,-8.97316837310791,-3.7491703033447266
1761401819888229000,5.36922900390625,0.8568249344825745,-8.982745170593262,-3.740715742111206
1761401819898322700,5.37932275390625,0.8341548442840576,-8.999579429626465,-3.7358524799346924
1761401819908387000,5.389386962890625,0.8342296481132507,-9.000777244567871,-3.7143795490264893
1761401819918484700,5.399484619140625,0.8258499503135681,-8.987683296203613,-3.7119104862213135
1761401819928566300,5.409566162109375,0.8390180468559265,-8.981698036193848,-3.7059998512268066
1761401819938647600,5.4196474609375,0.8497171401977539,-8.964863777160645,-3.739518642425537
1761401819948728800,5.429728759765625,0.8640075325965881,-8.977956771850586,-3.7490954399108887
1761401819958782500,5.439782470703125,0.8545055389404297,-8.973243713378906,-3.7359273433685303
1761401819968890600,5.449890625,0.8438064455986023,-8.981623649597168,-3.700014352798462
1761401819978971600,5.4599716796875,0.8450035452842712,-8.984017372131348,-3.6988918781280518
1761401819989053000,5.470052978515625,0.8609399795532227,-8.970699310302734,-3.7169981002807617
1761401819999134000,5.480134033203125,0.8572738170623779,-8.97661018371582,-3.731363296508789
1761401820009215000,5.490215087890625,0.8727613091468811,-8.981324195861816,-3.750516891479492
1761401820019295200,5.500295166015625,0.8631845116615295,-8.97541332244873,-3.754108190536499
1761401820029371000,5.510370849609375,0.8476970195770264,-8.97309398651123,-3.739668130874634
1761401820039458800,5.520458740234375,0.8285434246063232,-8.985139846801758,-3.738396406173706
1761401820049514200,5.53051416015625,0.8310124278068542,-8.988731384277344,-3.715726137161255
1761401820059620900,5.540620849609375,0.8251017332077026,-9.013870239257812,-3.6989667415618896
1761401820069702000,5.550701904296875,0.8310124278068542,-9.007959365844727,-3.672630548477173
1761401820079779000,5.560779052734375,0.8262240290641785,-9.006762504577637,-3.672630548477173
1761401820089864400,5.570864501953125,0.8310124278068542,-9.001974105834961,-3.6762218475341797
1761401820099945200,5.5809453125,0.8155249357223511,-8.997260093688965,-3.6618566513061523
1761401820110026800,5.59102685546875,0.8023568391799927,-8.993669509887695,-3.674875259399414
1761401820120107500,5.601107421875,0.8023568391799927,-8.993669509887695,-3.6832549571990967
1761401820130188500,5.6111884765625,0.8046762347221375,-9.010428428649902,-3.6916346549987793
1761401820140269600,5.62126953125,0.8035539388656616,-9.006836891174316,-3.6785411834716797
1761401820150347000,5.631346923828125,0.8107365369796753,-8.998457908630371,-3.6665701866149902
1761401820160393700,5.641393798828125,0.8202385306358337,-8.99239730834961,-3.6821324825286865
1761401820170488000,5.651488037109375,0.8081927299499512,-8.996063232421875,-3.7036056518554688
1761401820180594400,5.661594482421875,0.8046014308929443,-8.998457908630371,-3.7274727821350098
1761401820190675500,5.671675537109375,0.7926303744316101,-8.994866371154785,-3.7286698818206787
1761401820200756500,5.681756591796875,0.8046014308929443,-8.981698036193848,-3.7083940505981445
1761401820210834000,5.691833984375,0.8106617331504822,-9.012747764587402,-3.696497678756714
1761401820220918800,5.701918701171875,0.8130559325218201,-9.011550903320312,-3.6845266819000244
1761401820231000000,5.712,0.8305635452270508,-8.998457908630371,-3.6939539909362793
1761401820241081300,5.722081298828125,0.8400655388832092,-8.981698036193848,-3.7155017852783203
1761401820251162000,5.732162109375,0.8352771401405334,-8.974514961242676,-3.7297921180725098
1761401820261244000,5.742243896484375,0.8280196785926819,-8.976984024047852,-3.7357776165008545
1761401820271323100,5.7523232421875,0.7945756912231445,-8.99621295928955,-3.728445529937744
1761401820281401600,5.762401611328125,0.7886649966239929,-8.9843168258667,-3.7116858959198
1761401820291470600,5.772470703125,0.7828291654586792,-8.984391212463379,-3.686546802520752
1761401820301568000,5.782568115234375,0.7888146638870239,-9.004667282104492,-3.6722564697265625
1761401820311648800,5.792648681640625,0.7881412506103516,-9.005640029907227,-3.676146984100342
1761401820321730000,5.80272998046875,0.7820809483528137,-9.00092601776123,-3.697620153427124
1761401820331811800,5.812811767578125,0.7748235464096069,-8.9889554977417,-3.7190182209014893
1761401820341867300,5.8228671875,0.7867945432662964,-8.972195625305176,-3.7298669815063477
1761401820362054700,5.8430546875,0.8083423376083374,-9.00436782836914,-3.719242811203003
1761401820372136200,5.85313623046875,0.8035539388656616,-9.006762504577637,-3.717970848083496
1761401820382217700,5.8632177734375,0.814253032207489,-9.013870239257812,-3.7276225090026855
1761401820392298200,5.87329833984375,0.8309376239776611,-9.00900650024414,-3.737273931503296
1761401820402375400,5.88337548828125,0.8286182284355164,-8.99351978302002,-3.7324109077453613
1761401820412449800,5.89344970703125,0.8203133344650269,-9.001898765563965,-3.70974063873291
1761401820422541800,5.903541748046875,0.7725789546966553,-8.991349220275879,-3.6867713928222656
1761401820432623000,5.913623046875,0.7391349673271179,-8.985589027404785,-3.679439067840576
1761401820442704400,5.923704345703125,0.7427262663841248,-8.989105224609375,-3.678316831588745
1761401820452785000,5.933784912109375,0.7618050575256348,-8.99860668182373,-3.6891655921936035
1761401820462866200,5.9438662109375,0.7772177457809448,-9.005640029907227,-3.7143046855926514
1761401820472943600,5.953943603515625,0.8161234855651855,-8.993743896484375,-3.730914354324341
1761401820483028200,5.9640283203125,0.8268225789070129,-8.980575561523438,-3.742960214614868
1761401820493109000,5.97410888671875,0.8232312798500061,-8.999654769897461,-3.7393689155578613
1761401820503190300,5.984190185546875,0.8077437877655029,-8.993743896484375,-3.7321114540100098
1761401820513272600,5.9942724609375,0.7922562956809998,-8.989105224609375,-3.7116858959198
1761401820523352600,6.0043525390625,0.7768436074256897,-8.997559547424316,-3.687743902206421
1761401820533430000,6.014429931640625,0.751779317855835,-9.01559066772461,-3.66851544380188
1761401820543498200,6.024498291015625,0.7433996200561523,-9.022773742675781,-3.6577415466308594
1761401820553596200,6.03459619140625,0.732700526714325,-9.014469146728516,-3.6600611209869385
1761401820563678000,6.044677978515625,0.7469161152839661,-9.004817008972168,-3.6840779781341553
1761401820573758500,6.054758544921875,0.7600842118263245,-8.996362686157227,-3.6960489749908447
1761401820583840000,6.064840087890625,0.7910591959953308,-8.991498947143555,-3.7176713943481445
1761401820593895400,6.0748955078125,0.8005611896514893,-8.98543930053711,-3.7260513305664062
1761401820603998200,6.084998291015625,0.7969698905944824,-8.977059364318848,-3.7368252277374268
1761401820614083600,6.09508349609375,0.7957727909088135,-8.965163230895996,-3.7463271617889404
1761401820624164400,6.105164306640625,0.7921814918518066,-8.987833023071289,-3.751115560531616
1761401820634245600,6.11524560546875,0.7826046943664551,-9.009381294250488,-3.7475242614746094
1761401820644302600,6.125302490234375,0.7886649966239929,-9.006986618041992,-3.7164742946624756
1761401820654368800,6.13536865234375,0.7839514017105103,-8.987908363342285,-3.709291696548462
1761401820664489200,6.1454892578125,0.7863456010818481,-8.991498947143555,-3.7009119987487793
1761401820674573000,6.155572998046875,0.789936900138855,-8.989105224609375,-3.704503297805786
1761401820684651500,6.165651611328125,0.7754969000816345,-8.992696762084961,-3.73555326461792
1761401820694732000,6.17573193359375,0.7731027007102966,-8.986710548400879,-3.737947463989258
1761401820704813000,6.18581298828125,0.7946504950523376,-8.986710548400879,-3.7152771949768066
1761401820714894300,6.195894287109375,0.7782651782035828,-8.991424560546875,-3.6962733268737793
1761401820724949800,6.20594970703125,0.7926303744316101,-8.99853229522705,-3.6915597915649414
1761401820745138200,6.22613818359375,0.7603086829185486,-9.005864143371582,-3.687818765640259
1761401820755219000,6.236218994140625,0.772279679775238,-9.026140213012695,-3.681908130645752
1761401820765300000,6.246300048828125,0.7854477763175964,-9.040431022644043,-3.675997495651245
1761401820775381500,6.256381591796875,0.7986159324645996,-9.035567283630371,-3.676072359085083
1761401820785462300,6.266462158203125,0.8105869293212891,-9.00204849243164,-3.678466558456421
1761401820795542800,6.276542724609375,0.8103624582290649,-8.969876289367676,-3.705850124359131
1761401820805624600,6.28662451171875,0.7852981686592102,-8.969951629638672,-3.6985926628112793
1761401820815706000,6.2967060546875,0.7758709788322449,-8.990377426147461,-3.659163236618042
1761401820825787400,6.306787353515625,0.7662941813468933,-9.044171333312988,-3.6471922397613525
1761401820835842800,6.3168427734375,0.7627028822898865,-9.038186073303223,-3.6531777381896973
1761401820845942800,6.32694287109375,0.7566425800323486,-9.011924743652344,-3.6793642044067383
1761401820856030500,6.337030517578125,0.7469909191131592,-8.983269691467285,-3.711536407470703
1761401820866111200,6.347111328125,0.7707833051681519,-8.990302085876465,-3.7415387630462646
1761401820876193000,6.357193115234375,0.773626446723938,-8.992547035217285,-3.7345805168151855
1761401820886273500,6.3672734375,0.7844751477241516,-8.9889554977417,-3.6904375553131104
1761401820896355000,6.37735498046875,0.7833528518676758,-8.98775863647461,-3.673678159713745
1761401820906435800,6.387435791015625,0.7869441509246826,-8.990152359008789,-3.6856491565704346
1761401820916516900,6.397516845703125,0.7904606461524963,-8.9912748336792,-3.701211452484131
1761401820926599000,6.407598876953125,0.8035539388656616,-8.997185707092285,-3.720365047454834
1761401820936679400,6.417679443359375,0.7999626398086548,-9.006762504577637,-3.7095911502838135
1761401820946735400,6.4277353515625,0.8012345433235168,-9.012747764587402,-3.691709280014038
1761401820956841500,6.437841552734375,0.7677905559539795,-9.026065826416016,-3.6855742931365967
1761401820966922800,6.4479228515625,0.7737012505531311,-9.029582023620605,-3.697545289993286
1761401820977003500,6.45800341796875,0.7772925496101379,-9.028385162353516,-3.701211452484131
1761401820987084800,6.468084716796875,0.7784896492958069,-9.021202087402344,-3.6928317546844482
1761401820997165800,6.478165771484375,0.7642740607261658,-9.02367115020752,-3.6593127250671387
1761401821007247000,6.4882470703125,0.7703344225883484,-9.001001358032227,-3.647341728210449
1761401821017327900,6.498327880859375,0.7667431235313416,-8.99621295928955,-3.6353707313537598
1761401821027409400,6.508409423828125,0.7595604658126831,-8.987908363342285,-3.6460700035095215
1761401821037490200,6.518490234375,0.7693617343902588,-9.00092601776123,-3.646294355392456
1761401821047572700,6.52857275390625,0.7764695286750793,-9.022324562072754,-3.6750247478485107
1761401821057629200,6.538629150390625,0.7752724289894104,-9.003246307373047,-3.670236349105835
1761401821067733800,6.548733642578125,0.7752724289894104,-9.00204849243164,-3.670161485671997
1761401821077815000,6.55881494140625,0.7776666283607483,-9.02711296081543,-3.6570682525634766
1761401821087896000,6.56889599609375,0.7800608277320862,-9.039084434509277,-3.6547489166259766
1761401821097980200,6.578980224609375,0.7776666283607483,-9.023521423339844,-3.6546740531921387
1761401821108054300,6.58905419921875,0.7812579274177551,-8.999654769897461,-3.673827648162842
1761401821118135600,6.599135498046875,0.7986159324645996,-8.991349220275879,-3.6855742931365967
1761401821128202800,6.60920263671875,0.812831461429596,-8.980501174926758,-3.7131075859069824
1761401821138293500,6.61929345703125,0.8080430626869202,-8.984092712402344,-3.725078582763672
1761401821148358000,6.62935791015625,0.8080430626869202,-8.984092712402344,-3.7309892177581787
1761401821158440400,6.6394404296875,0.7841758728027344,-9.00092601776123,-3.7178211212158203
1761401821168520200,6.649520263671875,0.7710825800895691,-9.014169692993164,-3.685499429702759
1761401821178600400,6.659600341796875,0.7962216734886169,-9.003320693969727,-3.6867713928222656
1761401821188708000,6.6697080078125,0.7890390753746033,-9.003320693969727,-3.6867713928222656
1761401821198788600,6.67978857421875,0.7961468696594238,-8.985363960266113,-3.696348190307617
1761401821208869600,6.68986962890625,0.8093149662017822,-8.979378700256348,-3.7071220874786377
1761401821218950700,6.69995068359375,0.7996633648872375,-8.984167098999023,-3.7166240215301514
1761401821239109000,6.720109130859375,0.8080430626869202,-9.003246307373047,-3.7083191871643066
1761401821249194500,6.730194580078125,0.8129063248634338,-9.006836891174316,-3.7024085521698
1761401821259276000,6.740276123046875,0.8010101318359375,-9.015291213989258,-3.678466558456421
1761401821269356500,6.7503564453125,0.7878419756889343,-9.004592895507812,-3.675997495651245
1761401821279420400,6.76042041015625,0.7858967185020447,-9.02591609954834,-3.676146984100342
1761401821289518800,6.770518798828125,0.7691373229026794,-9.018808364868164,-3.672481060028076
1761401821299596000,6.780595947265625,0.7680150270462036,-9.006912231445312,-3.6617817878723145
1761401821309681000,6.790680908203125,0.778714120388031,-9.00204849243164,-3.6773440837860107
1761401821319762200,6.80076220703125,0.7846248149871826,-8.996063232421875,-3.7048027515411377
1761401821329817900,6.81081787109375,0.8108862042427063,-8.981623649597168,-3.7120602130889893
1761401821339925000,6.820925048828125,0.8072949051856995,-8.9935941696167,-3.6977696418762207
1761401821350005500,6.831005615234375,0.8097639083862305,-8.99239730834961,-3.6774189472198486
1761401821360083000,6.8410830078125,0.8152256608009338,-9.003320693969727,-3.6652984619140625
1761401821370167800,6.851167724609375,0.8045265674591064,-9.003395080566406,-3.6664206981658936
1761401821380248800,6.861248779296875,0.7972691655158997,-9.003395080566406,-3.6878936290740967
1761401821390330000,6.871330078125,0.7769184708595276,-8.997485160827637,-3.703381061553955
1761401821400411100,6.8814111328125,0.789936900138855,-8.99740982055664,-3.726125955581665
1761401821410492200,6.8914921875,0.8043769598007202,-8.993743896484375,-3.7154269218444824
1761401821420573400,6.901573486328125,0.7841010689735413,-8.998682022094727,-3.6890158653259277
1761401821430651000,6.91165087890625,0.8008604645729065,-9.011700630187988,-3.679588794708252
1761401821440711000,6.9217109375,0.8114847540855408,-9.034445762634277,-3.6712090969085693
1761401821450817000,6.931817138671875,0.7780407071113586,-9.040580749511719,-3.6746506690979004
1761401821460898000,6.94189794921875,0.7732523083686829,-9.035792350769043,-3.6746506690979004
1761401821470979000,6.95197900390625,0.7721300721168518,-9.01791000366211,-3.661482572555542
1761401821481058800,6.962058837890625,0.7841010689735413,-8.99277114868164,-3.6542999744415283
1761401821491137300,6.97213720703125,0.7864952683448792,-8.978405952453613,-3.6554970741271973
1761401821501198300,6.9821982421875,0.7660697102546692,-8.980875015258789,-3.6840779781341553
1761401821511303700,6.9923037109375,0.7695114016532898,-9.003470420837402,-3.716399669647217
1761401821521385200,7.00238525390625,0.7579892873764038,-9.003395080566406,-3.7093665599823
1761401821531468300,7.01246826171875,0.7605331540107727,-9.008183479309082,-3.677119731903076
1761401821541547500,7.022547607421875,0.778564453125,-9.002198219299316,-3.6461446285247803
1761401821551622700,7.03262255859375,0.7821557521820068,-9.001001358032227,-3.6365678310394287
1761401821561683700,7.04268359375,0.7510311603546143,-9.007061958312988,-3.6471922397613525
1761401821571790600,7.05279052734375,0.7414543628692627,-9.011924743652344,-3.66387677192688
1761401821581871600,7.06287158203125,0.7510311603546143,-9.021427154541016,-3.6447980403900146
1761401821591953200,7.072953125,0.7426514625549316,-9.025017738342285,-3.6471922397613525
1761401821602033700,7.08303369140625,0.7345709800720215,-9.029731750488281,-3.6460700035095215
1761401821612115200,7.093115234375,0.7465420365333557,-9.02254867553711,-3.6437504291534424
1761401821622192000,7.103192138671875,0.758438229560852,-9.011775016784668,-3.650933027267456
1761401821632277200,7.11327734375,0.7548469305038452,-8.989029884338379,-3.6688148975372314
1761401821642359300,7.123359375,0.7523778676986694,-9.006912231445312,-3.6903626918792725
1761401821652439800,7.133439697265625,0.7296329736709595,-9.01663875579834,-3.6878936290740967
1761401821662497000,7.1434970703125,0.7214028835296631,-9.01903247833252,-3.6459951400756836
1761401821672602400,7.153602294921875,0.7154921889305115,-9.040580749511719,-3.630507707595825
1761401821682657800,7.16365771484375,0.7079355120658875,-9.058686256408691,-3.6278889179229736
1761401821692764200,7.17376416015625,0.7043442130088806,-9.04319953918457,-3.6254947185516357
1761401821702845000,7.183844970703125,0.7163152098655701,-9.019257545471191,-3.6362686157226562
1761401821712926500,7.193926513671875,0.735319197177887,-9.004817008972168,-3.6554222106933594
1761401821722982100,7.203982177734375,0.715043306350708,-9.008482933044434,-3.6493618488311768
1761401821733063400,7.2140634765625,0.7245453000068665,-9.039532661437988,-3.6578164100646973
1761401821743169500,7.22416943359375,0.7233482003211975,-9.04903507232666,-3.6530280113220215
1761401821753247200,7.234247314453125,0.7245453000068665,-9.05142879486084,-3.6506338119506836
1761401821763332600,7.24433251953125,0.7636755108833313,-9.037063598632812,-3.6685903072357178
1761401821773413400,7.254413330078125,0.768389105796814,-9.033397674560547,-3.6925323009490967
1761401821783494400,7.264494384765625,0.7695862054824829,-9.045369148254395,-3.690138101577759
1761401821793574700,7.27457470703125,0.7529764175415039,-9.046640396118164,-3.664999008178711
1761401821803640000,7.28464013671875,0.7495347857475281,-9.038335800170898,-3.6231753826141357
1761401821813733400,7.2947333984375,0.7698854804039001,-9.033473014831543,-3.6064908504486084
1761401821823818800,7.30481884765625,0.7781903743743896,-9.046566009521484,-3.617339611053467
1761401821833900000,7.314900146484375,0.7781155705451965,-9.028609275817871,-3.6424038410186768
1761401821843955700,7.324955810546875,0.7725789546966553,-8.99853229522705,-3.683180093765259
1761401821854062000,7.33506201171875,0.7868693470954895,-8.975787162780762,-3.7083191871643066
1761401821864144100,7.34514404296875,0.754547655582428,-8.991424560546875,-3.7070472240448
1761401821874224400,7.355224365234375,0.7487117648124695,-9.008258819580078,-3.6675429344177246
1761401821884301600,7.365301513671875,0.7259668707847595,-9.026215553283691,-3.6782419681549072
1761401821894386400,7.375386474609375,0.7438485622406006,-9.05599308013916,-3.675997495651245
1761401821904473600,7.3854736328125,0.7689876556396484,-9.053524017333984,-3.672481060028076
1761401821914548700,7.395548828125,0.7821557521820068,-9.054720878601074,-3.6557962894439697
1761401821924611800,7.40561181640625,0.795024573802948,-9.036913871765137,-3.625793933868408
1761401821934711000,7.4157109375,0.7974936366081238,-9.003470420837402,-3.610231637954712
1761401821944792800,7.425792724609375,0.7831284403800964,-8.983194351196289,-3.6185367107391357
1761401821954850300,7.435850341796875,0.7794622778892517,-8.99157428741455,-3.6471922397613525
1761401821964954600,7.44595458984375,0.7805845737457275,-8.991498947143555,-3.683030366897583
1761401821975035600,7.45603564453125,0.786420464515686,-8.995016098022461,-3.702183961868286
1761401821985117000,7.466116943359375,0.7876923680305481,-8.990227699279785,-3.6938042640686035
1761401821995197700,7.47619775390625,0.7722048759460449,-9.01903247833252,-3.66155743598938
1761401822005279200,7.486279296875,0.7633762359619141,-9.043947219848633,-3.645097255706787
1761401822015360300,7.4963603515625,0.7658452391624451,-9.054720878601074,-3.6140475273132324
1761401822025416200,7.506416259765625,0.7586626410484314,-9.028459548950195,-3.6187610626220703
1761401822035522600,7.5165224609375,0.7670423984527588,-9.009305953979492,-3.6367175579071045
1761401822045558000,7.52655810546875,0.7777414321899414,-9.009231567382812,-3.651082754135132
1761401822055684600,7.5366845703125,0.7776666283607483,-9.012823104858398,-3.667842149734497
1761401822075821800,7.55682177734375,0.7382371425628662,-9.016563415527344,-3.6688897609710693
1761401822085928000,7.566927978515625,0.7407061457633972,-9.029582023620605,-3.670161485671997
1761401822096009200,7.57700927734375,0.7467664480209351,-9.047538757324219,-3.652279853820801
1761401822106090500,7.587090576171875,0.7503577470779419,-9.033173561096191,-3.6403088569641113
1761401822116148500,7.5971484375,0.767192006111145,-9.02599048614502,-3.6129252910614014
1761401822126252800,7.607252685546875,0.7552210092544556,-9.028385162353516,-3.6140475273132324
1761401822136334300,7.617334228515625,0.7587375044822693,-9.042750358581543,-3.6379895210266113
1761401822146415600,7.62741552734375,0.7515549063682556,-9.021202087402344,-3.6569933891296387
1761401822156496000,7.637495849609375,0.7575404047966003,-9.009231567382812,-3.6606595516204834
1761401822166577400,7.647577392578125,0.7583633661270142,-9.010578155517578,-3.6437504291534424
1761401822176658400,7.657658447265625,0.7487865686416626,-9.022624015808105,-3.637690305709839
1761401822186739500,7.667739501953125,0.7475894689559937,-9.05487060546875,-3.629385232925415
1761401822196820500,7.677820556640625,0.7727286219596863,-9.070283889770508,-3.628337860107422
1761401822206902000,7.687902099609375,0.7631517648696899,-9.064373016357422,-3.6390368938446045
1761401822216957700,7.697957763671875,0.758288562297821,-9.05359935760498,-3.655721426010132
1761401822227064000,7.70806396484375,0.75948566198349,-9.029731750488281,-3.656918525695801
1761401822237145000,7.71814501953125,0.7523030638694763,-9.038111686706543,-3.660435199737549
1761401822247189500,7.728189453125,0.7667431235313416,-9.009381294250488,-3.632976531982422
1761401822257307600,7.7383076171875,0.7536498308181763,-9.003470420837402,-3.6162171363830566
1761401822267373600,7.74837353515625,0.7644237279891968,-9.006986618041992,-3.6198832988739014
1761401822277469400,7.758469482421875,0.7858219146728516,-9.042750358581543,-3.6331262588500977
1761401822287550700,7.76855078125,0.7738508582115173,-9.039234161376953,-3.6402339935302734
1761401822297631700,7.7786318359375,0.7857470512390137,-9.036765098571777,-3.6629788875579834
1761401822307713000,7.788713134765625,0.8084920048713684,-9.02471923828125,-3.667842149734497
1761401822317794000,7.7987939453125,0.7929296493530273,-9.017611503601074,-3.6653730869293213
1761401822327875600,7.80887548828125,0.7781155705451965,-9.01903247833252,-3.660285472869873
1761401822337956900,7.818956787109375,0.768538773059845,-9.021501541137695,-3.659088373184204
1761401822348035800,7.829035888671875,0.7721300721168518,-9.023896217346191,-3.6471173763275146
1761401822358072300,7.839072265625,0.7733271718025208,-8.997559547424316,-3.661482572555542
1761401822368175000,7.849175048828125,0.7422773241996765,-8.971447944641113,-3.6589386463165283
1761401822378281200,7.85928125,0.7362170219421387,-8.976236343383789,-3.674426317214966
1761401822388337400,7.86933740234375,0.7398083209991455,-8.992920875549316,-3.6804118156433105
1761401822398443300,7.879443359375,0.7397335171699524,-9.004817008972168,-3.6923828125
1761401822408524000,7.88952392578125,0.7525275349617004,-9.018882751464844,-3.6880433559417725
1761401822418605600,7.89960546875,0.7549217343330383,-9.021202087402344,-3.676072359085083
1761401822428686300,7.909686279296875,0.765770435333252,-9.02239990234375,-3.648688554763794
1761401822438767600,7.919767578125,0.7502829432487488,-9.010578155517578,-3.6342484951019287
1761401822448845300,7.92984521484375,0.7419780492782593,-9.015366554260254,-3.625868797302246
1761401822458910700,7.93991064453125,0.7240215539932251,-8.999954223632812,-3.6222026348114014
1761401822469011700,7.95001171875,0.728884756565094,-8.99509048461914,-3.6150200366973877
1761401822479092500,7.960092529296875,0.7240215539932251,-9.010652542114258,-3.634099006652832
1761401822489174000,7.970174072265625,0.74040687084198,-9.031003952026367,-3.656769037246704
1761401822499257000,7.980257080078125,0.7689876556396484,-9.042750358581543,-3.6712839603424072
1761401822509335800,7.990335693359375,0.7857470512390137,-9.037961959838867,-3.671358585357666
1761401822519413200,8.000413330078125,0.798840343952179,-9.039084434509277,-3.672630548477173
1761401822529476000,8.01047607421875,0.7869441509246826,-9.041553497314453,-3.6605846881866455
1761401822539579100,8.0205791015625,0.7727286219596863,-9.041627883911133,-3.6378397941589355
1761401822549660000,8.030659912109375,0.7751228213310242,-9.033247947692871,-3.6342484951019287
1761401822559741700,8.04074169921875,0.759635329246521,-9.036913871765137,-3.6150949001312256
1761401822569822200,8.050822265625,0.754547655582428,-9.023896217346191,-3.6316299438476562
1761401822579899600,8.060899658203125,0.7651718854904175,-9.025017738342285,-3.659163236618042
1761401822589984500,8.070984619140624,0.7603834867477417,-9.008258819580078,-3.685424566268921
1761401822600065800,8.081065673828125,0.772279679775238,-8.9843168258667,-3.702183961868286
1761401822610125300,8.091125244140626,0.7770680785179138,-8.980725288391113,-3.6985926628112793
1761401822620228000,8.10122802734375,0.7842506766319275,-8.995016098022461,-3.680711030960083
1761401822630309600,8.1113095703125,0.7903110384941101,-9.02247428894043,-3.6664206981658936
1761401822640386300,8.12138623046875,0.7819313406944275,-9.02015495300293,-3.6700119972229004
1761401822650471200,8.13147119140625,0.7846996188163757,-9.014019966125488,-3.6665701866149902
1761401822660552700,8.141552734375,0.7846996188163757,-9.014019966125488,-3.676146984100342
1761401822670608400,8.1516083984375,0.7620295286178589,-8.99972915649414,-3.6688897609710693
1761401822680703200,8.161703125,0.740556538105011,-9.005864143371582,-3.6508584022521973
1761401822690801400,8.171801513671875,0.7250690460205078,-8.982071876525879,-3.6292357444763184
1761401822700877600,8.181877685546874,0.7288099527359009,-8.986860275268555,-3.5970635414123535
1761401822710954200,8.191954345703126,0.7371896505355835,-8.995165824890137,-3.5934722423553467
1761401822721039000,8.2020390625,0.7597849369049072,-9.016563415527344,-3.6210803985595703
1761401822731121200,8.21212109375,0.7641992568969727,-9.026140213012695,-3.6496613025665283
1761401822741201400,8.222201416015626,0.7796119451522827,-9.051130294799805,-3.6700868606567383
1761401822751282400,8.232282470703124,0.7939771413803101,-9.052251815795898,-3.676146984100342
1761401822761342000,8.242342041015625,0.8274211287498474,-9.033023834228516,-3.672630548477173
1761401822771441700,8.252441650390624,0.8334066271781921,-9.02823543548584,-3.670311212539673
1761401822781526300,8.2625263671875,0.8215104341506958,-9.030704498291016,-3.648763418197632
1761401822791607600,8.272607666015626,0.83714759349823,-9.023447036743164,-3.6332759857177734
1761401822801688600,8.2826884765625,0.8347533941268921,-9.022250175476074,-3.6368672847747803
1761401822811769600,8.29276953125,0.7926303744316101,-9.015291213989258,-3.6700119972229004
1761401822821850600,8.3028505859375,0.7757961750030518,-9.02135181427002,-3.702258825302124
1761401822831931600,8.312931640625,0.7949497699737549,-9.012897491455078,-3.696348190307617
1761401822842008800,8.3230087890625,0.828393816947937,-9.00436782836914,-3.7107882499694824
1761401822852094200,8.33309423828125,0.8355764150619507,-8.99120044708252,-3.716773748397827
1761401822862143500,8.3431435546875,0.8642320036888123,-8.988656044006348,-3.710937738418579
1761401822872256300,8.35325634765625,0.8463503122329712,-8.986336708068848,-3.7084689140319824
1761401822882337300,8.363337158203125,0.8188918232917786,-8.987683296203613,-3.700014352798462
1761401822892419300,8.37341943359375,0.788739800453186,-8.9843168258667,-3.6926071643829346
1761401822902496000,8.38349609375,0.7540987133979797,-8.98925495147705,-3.691260576248169
1761401822912580900,8.393580810546876,0.7576900124549866,-8.98925495147705,-3.6960489749908447
1761401822922662000,8.403661865234374,0.7815572023391724,-8.985513687133789,-3.704503297805786
1761401822932725200,8.413725341796875,0.8162731528282166,-8.990227699279785,-3.685499429702759
1761401822942824200,8.42382421875,0.8365490436553955,-8.996063232421875,-3.6856491565704346
1761401822952905200,8.4339052734375,0.8568997383117676,-9.010354042053223,-3.676146984100342
1761401822962971400,8.443971435546874,0.8414122462272644,-9.014019966125488,-3.6569933891296387
1761401822973067800,8.45406787109375,0.8139537572860718,-9.018882751464844,-3.658041000366211
1761401822983148500,8.4641484375,0.786420464515686,-8.999878883361816,-3.6698622703552246
1761401822993229800,8.474229736328125,0.7767688035964966,-9.014244079589844,-3.6913352012634277
1761401823003285800,8.48428564453125,0.7732523083686829,-9.002347946166992,-3.6805613040924072
1761401823023473700,8.5044736328125,0.8102876543998718,-8.992621421813965,-3.681908130645752
1761401823033550600,8.514550537109375,0.8162731528282166,-9.02486801147461,-3.679588794708252
1761401823043616000,8.524615966796874,0.8258499503135681,-9.011700630187988,-3.674875259399414
1761401823053683000,8.534682861328125,0.8239794969558716,-9.000701904296875,-3.6786909103393555
1761401823063797000,8.544796875,0.8299649953842163,-8.999505043029785,-3.663128614425659
1761401823073855000,8.55485498046875,0.8072949051856995,-9.013944625854492,-3.665447950363159
1761401823083959800,8.564959716796874,0.8120084404945374,-9.025840759277344,-3.6786160469055176
1761401823094037500,8.57503759765625,0.7892635464668274,-9.02591609954834,-3.695225954055786
1761401823104122400,8.585122314453125,0.7856722474098206,-8.999654769897461,-3.701211452484131
1761401823114203400,8.595203369140625,0.7749731540679932,-8.982970237731934,-3.6951510906219482
1761401823124284400,8.605284423828126,0.7677905559539795,-8.974664688110352,-3.6962733268737793
1761401823134365400,8.615365478515624,0.8033294677734375,-8.9889554977417,-3.6951510906219482
1761401823144421400,8.62542138671875,0.7962216734886169,-9.002123832702637,-3.6676926612854004
1761401823154528000,8.635528076171875,0.7939023375511169,-8.99860668182373,-3.655721426010132
1761401823164605000,8.64560498046875,0.8034791350364685,-8.973467826843262,-3.6617069244384766
1761401823174690000,8.65568994140625,0.811784029006958,-8.986560821533203,-3.680860757827759
1761401823184771300,8.665771240234376,0.7985410690307617,-8.993743896484375,-3.7047278881073
1761401823194852600,8.6758525390625,0.8020575642585754,-9.028385162353516,-3.7131075859069824
1761401823204933600,8.68593359375,0.812831461429596,-9.018733024597168,-3.7083940505981445
1761401823215014700,8.6960146484375,0.8274959921836853,-9.036540031433105,-3.687070608139038
1761401823225096200,8.70609619140625,0.8132055997848511,-9.044994354248047,-3.671508312225342
1761401823235177000,8.716177001953126,0.81440269947052,-9.041403770446777,-3.663128614425659
1761401823255317000,8.73631689453125,0.8001871109008789,-9.004443168640137,-3.646294355392456
1761401823265420300,8.746420166015625,0.7654711604118347,-8.991424560546875,-3.656843900680542
1761401823275476500,8.7564765625,0.7701847553253174,-9.012897491455078,-3.676072359085083
1761401823285583400,8.766583251953126,0.7737760543823242,-9.029582023620605,-3.680860757827759
1761401823295639600,8.7766396484375,0.8010101318359375,-9.031976699829102,-3.6712839603424072
1761401823305745700,8.78674560546875,0.8022820353507996,-8.997335433959961,-3.655721426010132
1761401823315826200,8.796826171875,0.8165724277496338,-8.985363960266113,-3.6712839603424072
1761401823325907000,8.806906982421875,0.7842506766319275,-9.001001358032227,-3.68430233001709
1761401823335988200,8.81698828125,0.7854477763175964,-9.006986618041992,-3.6843771934509277
1761401823346070300,8.8270703125,0.7854477763175964,-9.012897491455078,-3.6867713928222656
1761401823356151000,8.837151123046874,0.7711573839187622,-9.016563415527344,-3.6723313331604004
1761401823366231600,8.8472314453125,0.7711573839187622,-9.004667282104492,-3.662754535675049
1761401823376313300,8.857313232421875,0.7768436074256897,-8.997559547424316,-3.6674680709838867
1761401823386394400,8.867394287109375,0.7769184708595276,-8.996362686157227,-3.661482572555542
1761401823396475000,8.877474853515626,0.7828291654586792,-8.990377426147461,-3.6770448684692383
1761401823406557000,8.887556884765624,0.805499255657196,-9.006986618041992,-3.6759226322174072
1761401823416637400,8.897637451171875,0.8019827604293823,-9.002198219299316,-3.662754535675049
1761401823426719000,8.907718994140625,0.7912088632583618,-9.023746490478516,-3.6723313331604004
1761401823436800000,8.917800048828125,0.786420464515686,-9.01663875579834,-3.6734535694122314
1761401823446881500,8.927881591796876,0.7804349064826965,-9.02022933959961,-3.662679672241211
1761401823456961800,8.9379619140625,0.7842506766319275,-9.014244079589844,-3.634099006652832
1761401823467043000,8.94804296875,0.7783399820327759,-9.027412414550781,-3.6257193088531494
1761401823477124000,8.9581240234375,0.7794622778892517,-9.042900085449219,-3.634099006652832
1761401823487205600,8.96820556640625,0.7662941813468933,-9.033397674560547,-3.637615442276001
1761401823497286400,8.978286376953125,0.7770680785179138,-9.02022933959961,-3.6424038410186768
1761401823507324200,8.98832421875,0.7878419756889343,-9.014169692993164,-3.6448729038238525
1761401823517448400,8.998448486328124,0.8093149662017822,-9.032051086425781,-3.647341728210449
1761401823527530000,9.008530029296875,0.8081927299499512,-9.033247947692871,-3.6342484951019287
1761401823537611000,9.018611083984375,0.8051999807357788,-9.036689758300781,-3.6153194904327393
1761401823547693000,9.028693115234375,0.7896376252174377,-9.052251815795898,-3.620033025741577
1761401823557773300,9.038773193359376,0.7752724289894104,-9.045144081115723,-3.625943660736084
1761401823567854000,9.04885400390625,0.7668179273605347,-9.027262687683105,-3.654599189758301
1761401823577935600,9.058935546875,0.7822306156158447,-9.018808364868164,-3.6797382831573486
1761401823588013300,9.069013427734374,0.7834277153015137,-9.008034706115723,-3.6857237815856934
1761401823598093800,9.07909375,0.7954735159873962,-9.016339302062988,-3.672630548477173
1761401823608154400,9.089154296875,0.8026561141014099,-9.022324562072754,-3.663128614425659
1761401823618260200,9.09926025390625,0.8067711591720581,-9.008183479309082,-3.6640264987945557
1761401823628341200,9.10934130859375,0.7817068696022034,-9.014244079589844,-3.659088373184204
1761401823638422500,9.119422607421875,0.7780407071113586,-9.002347946166992,-3.6782419681549072
1761401823648503800,9.12950390625,0.7624784111976624,-9.007136344909668,-3.684152603149414
1761401823658584800,9.139584716796875,0.7686135768890381,-8.985663414001465,-3.6494367122650146
1761401823668661800,9.149661865234375,0.7625532150268555,-9.004817008972168,-3.661407709121704
1761401823678747000,9.159746826171874,0.7590367794036865,-9.004817008972168,-3.635146379470825
1761401823688828200,9.169828125,0.7554454803466797,-9.01319694519043,-3.642254114151001
1761401823698879200,9.179879150390626,0.7703344225883484,-9.029657363891602,-3.6330513954162598
1761401823708990200,9.189990234375,0.7763199210166931,-9.038036346435547,-3.621155261993408
1761401823719071500,9.200071533203126,0.7703344225883484,-9.035642623901367,-3.628262996673584
1761401823729145600,9.2101455078125,0.7799112200737,-9.02247428894043,-3.625868797302246
1761401823739233500,9.220233642578124,0.7882909178733826,-9.02127742767334,-3.624746561050415
1761401823749314600,9.230314453125,0.7930045127868652,-9.008034706115723,-3.646294355392456
1761401823759396000,9.24039599609375,0.7845499515533447,-9.012823104858398,-3.6665701866149902
1761401823769477000,9.25047705078125,0.779761552810669,-9.011700630187988,-3.6688897609710693
1761401823779558000,9.260557861328126,0.7573907375335693,-9.030778884887695,-3.654599189758301
1761401823789639200,9.27063916015625,0.7609820365905762,-9.02486801147461,-3.6403088569641113
1761401823799696400,9.2806962890625,0.7383119463920593,-9.033323287963867,-3.6401591300964355
1761401823809802000,9.290802001953125,0.7454197406768799,-9.042824745178223,-3.646219491958618
1761401823819883300,9.30088330078125,0.7729530334472656,-9.029582023620605,-3.6379895210266113
1761401823829964500,9.310964599609376,0.782529890537262,-9.015216827392578,-3.6391866207122803
1761401823840026400,9.3210263671875,0.8123825788497925,-9.011475563049316,-3.644049882888794
1761401823850126000,9.3311259765625,0.8040028810501099,-9.000777244567871,-3.6524295806884766
1761401823860181500,9.341181396484375,0.7733271718025208,-8.998756408691406,-3.6662709712982178
1761401823870262800,9.3512626953125,0.7386112213134766,-9.01207447052002,-3.666121244430542
1761401823880370000,9.361369873046876,0.730231523513794,-9.024045944213867,-3.6636524200439453
1761401823890425300,9.37142529296875,0.7111527323722839,-9.030105590820312,-3.6659717559814453
1761401823900532000,9.381531982421874,0.7434744238853455,-9.020379066467285,-3.6529531478881836
1761401823910612700,9.39161279296875,0.7625532150268555,-9.029881477355957,-3.6519057750701904
1761401823920690200,9.401690185546874,0.7805097699165344,-9.029806137084961,-3.6507835388183594
1761401823930775300,9.411775390625,0.7864952683448792,-9.02022933959961,-3.6459951400756836
1761401823940856000,9.42185595703125,0.778714120388031,-9.014094352722168,-3.624671697616577
1761401823950937900,9.431937744140624,0.758438229560852,-8.999878883361816,-3.610231637954712
1761401823961018600,9.4420185546875,0.7357681393623352,-9.011924743652344,-3.6017770767211914
1761401823971100400,9.452100341796875,0.7249941825866699,-9.053823471069336,-3.6029741764068604
1761401823981181200,9.46218115234375,0.7321767807006836,-9.059734344482422,-3.610231637954712
1761401823991223800,9.472223876953125,0.7571662664413452,-9.048885345458984,-3.626991033554077
1761401824001343200,9.48234326171875,0.7714566588401794,-9.018882751464844,-3.652130126953125
1761401824011424300,9.49242431640625,0.7606079578399658,-9.016563415527344,-3.677194595336914
1761401824021505500,9.502505615234375,0.7650970816612244,-9.028534889221191,-3.685499429702759
1761401824031586300,9.51258642578125,0.7497591972351074,-9.010727882385254,-3.63881254196167
1761401824041683700,9.52268359375,0.7391349673271179,-8.998906135559082,-3.598111152648926
1761401824051748000,9.532748046875,0.7653963565826416,-9.013121604919434,-3.608959674835205
1761401824061829600,9.54282958984375,0.7879916429519653,-9.036839485168457,-3.630582332611084
1761401824071911400,9.552911376953125,0.7998878359794617,-9.052327156066895,-3.6414310932159424
1761401824081992000,9.562991943359375,0.7867945432662964,-9.050007820129395,-3.6401591300964355
1761401824092073200,9.5730732421875,0.7915829420089722,-9.038036346435547,-3.630657196044922
1761401824102154200,9.583154296875,0.7909095883369446,-9.029507637023926,-3.6332759857177734
1761401824112235800,9.59323583984375,0.7669675350189209,-9.015216827392578,-3.645097255706787
1761401824122312700,9.603312744140625,0.7788637280464172,-9.030704498291016,-3.667842149734497
1761401824132397800,9.613397705078125,0.7812579274177551,-9.035492897033691,-3.6630537509918213
1761401824142478800,9.623478759765625,0.7729530334472656,-9.047463417053223,-3.6296098232269287
1761401824152560000,9.63356005859375,0.7730278968811035,-9.06063175201416,-3.6045455932617188
1761401824162641200,9.64364111328125,0.7623288035392761,-9.045144081115723,-3.604470729827881
1761401824172722400,9.653722412109374,0.7598597407341003,-9.040355682373047,-3.6139726638793945
1761401824182777900,9.66377783203125,0.7369652390480042,-9.041777610778809,-3.61262583732605
1761401824192884500,9.673884521484375,0.7417536377906799,-9.027412414550781,-3.609034538269043
1761401824202966000,9.683966064453125,0.7297825813293457,-9.025093078613281,-3.61494517326355
1761401824213047000,9.694047119140626,0.7333738803863525,-9.01551628112793,-3.6185367107391357
1761401824223128000,9.704128173828124,0.7512556314468384,-9.021427154541016,-3.61262583732605
1761401824233209000,9.714208984375,0.7452700734138489,-9.036989212036133,-3.626991033554077
1761401824243286300,9.724286376953126,0.7583633661270142,-9.048810958862305,-3.6449475288391113
1761401824253371400,9.734371337890625,0.7475894689559937,-9.050082206726074,-3.6472671031951904
1761401824263452400,9.744452392578125,0.7487117648124695,-9.033323287963867,-3.654449701309204
1761401824273510100,9.75451025390625,0.75948566198349,-9.029731750488281,-3.649735927581787
1761401824283614700,9.76461474609375,0.7523778676986694,-9.036913871765137,-3.631779432296753
1761401824293695700,9.77469580078125,0.759635329246521,-9.032125473022461,-3.6210803985595703
1761401824303751700,9.784751708984375,0.7524527311325073,-9.011850357055664,-3.6162171363830566
1761401824313854200,9.794854248046875,0.741678774356842,-9.014244079589844,-3.6233251094818115
1761401824323939300,9.804939208984376,0.741678774356842,-9.025017738342285,-3.630507707595825
1761401824334020600,9.8150205078125,0.7356932759284973,-9.032200813293457,-3.6209309101104736
1761401824344076500,9.82507666015625,0.7414543628692627,-9.01559066772461,-3.611279249191284
1761401824354157600,9.835157470703125,0.7641244530677795,-9.035792350769043,-3.611353874206543
1761401824364239600,9.845239501953126,0.755669891834259,-9.062053680419922,-3.6412816047668457
1761401824374319600,9.855319580078126,0.7758709788322449,-9.076269149780273,-3.6712090969085693
1761401824384401200,9.865401123046874,0.7711573839187622,-9.030928611755371,-3.6711342334747314
1761401824394507000,9.875507080078124,0.7699602842330933,-8.99628734588623,-3.6699371337890625
1761401824404588300,9.88558837890625,0.7639747858047485,-8.99509048461914,-3.6651487350463867
1761401824414669600,9.895669677734375,0.756866991519928,-8.996362686157227,-3.661482572555542
1761401824424725800,9.905725830078126,0.7541735172271729,-9.01559066772461,-3.6554222106933594
1761401824444910800,9.925910888671876,0.7625532150268555,-9.021501541137695,-3.6519057750701904
1761401824454994000,9.935993896484375,0.7541735172271729,-9.022698402404785,-3.6709845066070557
1761401824465075200,9.9460751953125,0.7433996200561523,-9.019182205200195,-3.666121244430542
1761401824475156500,9.956156494140625,0.727837324142456,-9.008482933044434,-3.6756234169006348
1761401824485237500,9.966237548828126,0.7374141216278076,-9.008482933044434,-3.6768205165863037
1761401824495318500,9.976318603515624,0.7338228225708008,-8.997709274291992,-3.6828060150146484
1761401824505400300,9.986400390625,0.7364414930343628,-9.019107818603516,-3.6757729053497314
1761401824515480600,9.99648046875,0.7437736988067627,-9.027486801147461,-3.632827043533325
1761401824525537500,10.00653759765625,0.7594108581542969,-9.036989212036133,-3.5993828773498535
1761401824535643000,10.016642822265625,0.75948566198349,-9.057339668273926,-3.5731215476989746
1761401824545685000,10.02668505859375,0.7618798613548279,-9.05135440826416,-3.5684080123901367
1761401824555805400,10.036805419921874,0.75948566198349,-9.059734344482422,-3.5731215476989746
1761401824565887200,10.04688720703125,0.7523030638694763,-9.052626609802246,-3.5719244480133057
1761401824575967700,10.0569677734375,0.7487117648124695,-9.059808731079102,-3.587411880493164
1761401824586049000,10.067049072265625,0.7606079578399658,-9.046566009521484,-3.604246139526367
1761401824596129800,10.0771298828125,0.7700351476669312,-9.041702270507812,-3.630507707595825
1761401824606211300,10.08721142578125,0.7796119451522827,-9.05359935760498,-3.6425533294677734
1761401824616292000,10.0972919921875,0.7760206460952759,-9.042900085449219,-3.634173631668091
1761401824626348000,10.10734814453125,0.7617302536964417,-9.036989212036133,-3.6161422729492188
1761401824636455200,10.117455078125,0.7653963565826416,-9.01663875579834,-3.608959674835205
1761401824646536400,10.127536376953126,0.7629273533821106,-8.99396800994873,-3.6304328441619873
1761401824656617000,10.137616943359374,0.7616553902626038,-8.983194351196289,-3.665073871612549
1761401824666697700,10.14769775390625,0.7588871121406555,-8.966509819030762,-3.6900634765625
1761401824676779300,10.157779296875,0.7504326105117798,-8.982071876525879,-3.711536407470703
1761401824686876000,10.1678759765625,0.767192006111145,-8.99277114868164,-3.7175967693328857
1761401824696941000,10.177941162109375,0.7731775045394897,-9.001075744628906,-3.709217071533203
1761401824707022300,10.188022216796876,0.7827543020248413,-9.004667282104492,-3.687818765640259
1761401824717103600,10.198103515625,0.8007856607437134,-9.004592895507812,-3.6723313331604004
1761401824727184600,10.2081845703125,0.7959972620010376,-9.001075744628906,-3.6747255325317383
1761401824737266000,10.218265869140625,0.7947252988815308,-9.017760276794434,-3.677119731903076
1761401824747347700,10.22834765625,0.783801794052124,-9.01783561706543,-3.686546802520752
1761401824757428200,10.23842822265625,0.7719804048538208,-9.013121604919434,-3.6697874069213867
1761401824767509200,10.24850927734375,0.7647978067398071,-9.026365280151367,-3.6506338119506836
1761401824777566500,10.25856640625,0.7601590156555176,-9.015666007995605,-3.62070631980896
1761401824787671600,10.268671630859375,0.7637503147125244,-9.026365280151367,-3.615992784500122
1761401824797753300,10.27875341796875,0.7601590156555176,-9.04791259765625,-3.6231753826141357
1761401824807833600,10.28883349609375,0.7672668099403381,-9.041851997375488,-3.636343479156494
1761401824817890000,10.29889013671875,0.7588871121406555,-9.017985343933105,-3.637465715408325
1761401824827994000,10.308994140625,0.7739257216453552,-9.02127742767334,-3.630657196044922
1761401824838073300,10.3190732421875,0.7870938181877136,-9.016489028930664,-3.628337860107422
1761401824848155000,10.32915478515625,0.7906851172447205,-9.045144081115723,-3.6164417266845703
1761401824858239500,10.339239501953125,0.7895628213882446,-9.053524017333984,-3.600879430770874
1761401824868320500,10.349320556640626,0.7847744226455688,-9.040431022644043,-3.5948939323425293
1761401824878397700,10.359397705078125,0.782380223274231,-9.033247947692871,-3.6127755641937256
1761401824888482800,10.36948291015625,0.7727286219596863,-9.02367115020752,-3.631854295730591
1761401824898564000,10.379564208984375,0.758288562297821,-9.011775016784668,-3.656843900680542
1761401824908645000,10.38964501953125,0.7567921876907349,-9.005864143371582,-3.6698622703552246
1761401824918726100,10.39972607421875,0.7425017952919006,-8.985663414001465,-3.659013509750366
1761401824928807400,10.409807373046876,0.7544727921485901,-8.99157428741455,-3.657891273498535
1761401824938888400,10.419888427734374,0.795024573802948,-8.9866361618042,-3.6736032962799072
1761401824948944100,10.429944091796875,0.8093898296356201,-9.017611503601074,-3.678466558456421
1761401824959050800,10.44005078125,0.8272715210914612,-9.015142440795898,-3.692906379699707
1761401824969132000,10.450132080078125,0.8391677141189575,-9.00549030303955,-3.7120602130889893
1761401824979213000,10.460213134765626,0.8295160531997681,-9.009156227111816,-3.720365047454834
1761401824989294300,10.47029443359375,0.8092401623725891,-9.012823104858398,-3.7059249877929688
1761401824999375000,10.480375,0.7961468696594238,-9.014094352722168,-3.6915597915649414
1761401825009452500,10.49045263671875,0.8069207668304443,-9.027188301086426,-3.680860757827759
1761401825019537700,10.50053759765625,0.8165724277496338,-9.036689758300781,-3.6581904888153076
1761401825029593900,10.51059375,0.8261492252349854,-9.037886619567871,-3.645097255706787
1761401825039700000,10.520699951171874,0.8298153281211853,-9.013944625854492,-3.647491455078125
1761401825049781200,10.53078125,0.8105869293212891,-9.014019966125488,-3.6653730869293213
1761401825059849000,10.540848876953126,0.7867197394371033,-8.99740982055664,-3.6676177978515625
1761401825069943000,10.550943115234375,0.7731027007102966,-8.984466552734375,-3.6792895793914795
1761401825080020500,10.5610205078125,0.7695114016532898,-8.976086616516113,-3.6828808784484863
1761401825090105600,10.571105712890626,0.7946504950523376,-8.98080062866211,-3.6746506690979004
1761401825100212700,10.581212646484374,0.8114098906517029,-9.011775016784668,-3.6699371337890625
1761401825110267600,10.591267578125,0.8138041496276855,-9.010578155517578,-3.653252601623535
1761401825120349200,10.60134912109375,0.7959223985671997,-9.01663875579834,-3.6519806385040283
1761401825130430000,10.611429931640625,0.7767688035964966,-9.000028610229492,-3.660210609436035
1761401825140507400,10.62150732421875,0.8030301928520203,-9.011850357055664,-3.657966136932373
1761401825150592300,10.63159228515625,0.8094646334648132,-9.027188301086426,-3.648613691329956
1761401825160654300,10.641654296875,0.8118588328361511,-9.017611503601074,-3.651007890701294
1761401825170754800,10.6517548828125,0.8082675337791443,-9.020079612731934,-3.6366426944732666
1761401825180835800,10.6618359375,0.8058733344078064,-9.02486801147461,-3.6378397941589355
1761401825190916900,10.671916748046876,0.8141782283782959,-9.02479362487793,-3.6617817878723145
1761401825200974600,10.681974609375,0.7962216734886169,-9.014094352722168,-3.6688897609710693
1761401825211079200,10.6920791015625,0.812981128692627,-9.006836891174316,-3.667767286300659
1761401825221160400,10.702160400390625,0.8225579261779785,-8.98888111114502,-3.676146984100342
1761401825231241000,10.712240966796875,0.8213608264923096,-8.992471694946289,-3.674949884414673
1761401825241322500,10.722322509765625,0.8034043312072754,-9.02359676361084,-3.6688897609710693
1761401825251403800,10.73240380859375,0.7998130321502686,-9.029582023620605,-3.6676926612854004
1761401825261484800,10.74248486328125,0.7962216734886169,-9.010502815246582,-3.6664955615997314
1761401825271541000,10.752541015625,0.8046014308929443,-8.981772422790527,-3.6712839603424072
1761401825281647000,10.762647216796875,0.8069956302642822,-8.996137619018555,-3.6712839603424072
1761401825291729000,10.77272900390625,0.8010101318359375,-9.011700630187988,-3.67966365814209
1761401825301809400,10.782809326171876,0.8129063248634338,-9.033098220825195,-3.6773440837860107
1761401825311890400,10.792890380859374,0.8084171414375305,-9.02823543548584,-3.6798131465911865
1761401825321928400,10.802928466796875,0.7929296493530273,-9.00204849243164,-3.671358585357666
1761401825332049200,10.813049072265626,0.8096891045570374,-8.992471694946289,-3.669039249420166
1761401825352190200,10.833190185546876,0.7893383502960205,-9.009231567382812,-3.6820578575134277
1761401825362296300,10.84329638671875,0.7870190143585205,-8.997335433959961,-3.6593875885009766
1761401825372377300,10.85337744140625,0.7918074131011963,-8.99853229522705,-3.6605846881866455
1761401825382458600,10.863458740234375,0.8132055997848511,-9.001974105834961,-3.673827648162842
1761401825392507600,10.873507568359376,0.815599799156189,-9.021052360534668,-3.6750247478485107
1761401825402617000,10.8836171875,0.8215852975845337,-9.000701904296875,-3.689389944076538
1761401825412684000,10.89368408203125,0.834678590297699,-9.006612777709961,-3.691859006881714
1761401825422783000,10.903782958984374,0.8417863249778748,-9.020977973937988,-3.7002387046813965
1761401825432843500,10.913843505859376,0.8239046335220337,-9.028160095214844,-3.695375442504883
1761401825442943200,10.923943115234374,0.8096142411231995,-9.025840759277344,-3.6846015453338623
1761401825453026800,10.93402685546875,0.8072949051856995,-9.017536163330078,-3.6642508506774902
1761401825463082500,10.94408251953125,0.7905354499816895,-9.016413688659668,-3.6581904888153076
1761401825473188600,10.954188720703126,0.7738508582115173,-9.017685890197754,-3.656918525695801
1761401825483270000,10.964269775390624,0.781033456325531,-9.006912231445312,-3.651007890701294
1761401825493351200,10.97435107421875,0.7835025191307068,-8.992547035217285,-3.6414310932159424
1761401825503432000,10.984431884765625,0.7798363566398621,-8.99853229522705,-3.651007890701294
1761401825513513200,10.99451318359375,0.7822306156158447,-8.997335433959961,-3.6593127250671387
1761401825523590700,11.004590576171875,0.7809586524963379,-8.997335433959961,-3.6688897609710693
1761401825533675800,11.01467578125,0.7917325496673584,-8.998457908630371,-3.6773440837860107
1761401825543754500,11.02475439453125,0.7917325496673584,-9.012823104858398,-3.6797382831573486
1761401825553837800,11.034837890625,0.7808090448379517,-9.029657363891602,-3.677269458770752
1761401825563919000,11.044919189453125,0.7891139388084412,-9.020005226135254,-3.6880433559417725
1761401825573999900,11.054999755859376,0.7832032442092896,-9.005714416503906,-3.6891655921936035
1761401825584081200,11.0650810546875,0.8047510385513306,-9.003246307373047,-3.673752784729004
1761401825594158300,11.075158447265625,0.8035539388656616,-9.009231567382812,-3.6665701866149902
1761401825604243500,11.085243408203125,0.8166472315788269,-9.013944625854492,-3.6833295822143555
1761401825614324700,11.09532470703125,0.8202385306358337,-9.025840759277344,-3.6846015453338623
1761401825624405800,11.10540576171875,0.8166472315788269,-9.021127700805664,-3.673827648162842
1761401825634487000,11.115487060546876,0.7931541204452515,-9.035417556762695,-3.6762967109680176
1761401825644568600,11.125568603515624,0.7800608277320862,-9.033098220825195,-3.667842149734497
1761401825654611500,11.135611572265624,0.7932289242744446,-9.011550903320312,-3.647566318511963
1761401825664730400,11.14573046875,0.8087912797927856,-9.031826972961426,-3.640533208847046
1761401825674811600,11.155811767578125,0.7992892861366272,-9.02471923828125,-3.6272904872894287
1761401825684893200,11.16589306640625,0.7933037877082825,-9.007959365844727,-3.6320788860321045
1761401825694974000,11.175973876953124,0.7813327312469482,-8.99007797241211,-3.642703056335449
1761401825705054700,11.1860546875,0.7574655413627625,-8.979453086853027,-3.645022392272949
1761401825715136500,11.196136474609375,0.7449707984924316,-8.997634887695312,-3.643526077270508
1761401825725217500,11.206217529296875,0.736591100692749,-9.037063598632812,-3.6291608810424805
1761401825735298000,11.216298095703126,0.7605331540107727,-9.059659004211426,-3.6293106079101562
1761401825745379800,11.2263798828125,0.7640495896339417,-9.060855865478516,-3.6281135082244873
1761401825755460900,11.2364609375,0.8022820353507996,-9.046341896057129,-3.648613691329956
1761401825765542100,11.246542236328125,0.811784029006958,-9.021202087402344,-3.6629788875579834
1761401825775623200,11.256623046875,0.8081927299499512,-9.009231567382812,-3.673678159713745
1761401825785704400,11.266704345703126,0.7663689851760864,-8.999878883361816,-3.6639516353607178
1761401825795785200,11.27678515625,0.7294085025787354,-8.973767280578613,-3.6470425128936768
1761401825805866800,11.28686669921875,0.7258920073509216,-8.983344078063965,-3.6362686157226562
1761401825815947300,11.296947265625,0.7581389546394348,-8.997559547424316,-3.634024143218994
1761401825826028800,11.30702880859375,0.792705237865448,-9.033247947692871,-3.653327226638794
1761401825836110600,11.317110595703125,0.811784029006958,-9.036765098571777,-3.6557962894439697
1761401825846191600,11.327191650390626,0.8296657204627991,-9.034296035766602,-3.669039249420166
1761401825856272000,11.33727197265625,0.8081178665161133,-9.031976699829102,-3.6832549571990967
1761401825866353000,11.347352783203124,0.7710825800895691,-9.032125473022461,-3.681908130645752
1761401825876433400,11.357433349609375,0.7654711604118347,-9.02127742767334,-3.6629042625427246
1761401825896583700,11.377583740234375,0.7894132137298584,-9.028385162353516,-3.6343233585357666
1761401825906677500,11.387677490234376,0.7919570207595825,-9.037961959838867,-3.604470729827881
1761401825916758800,11.3977587890625,0.7692121267318726,-9.042824745178223,-3.602001667022705
1761401825926835500,11.40783544921875,0.763301432132721,-9.034520149230957,-3.5959413051605225
1761401825936920800,11.4179208984375,0.7608324289321899,-9.030928611755371,-3.609109401702881
1761401825947003000,11.4280029296875,0.7536498308181763,-9.038111686706543,-3.6222026348114014
1761401825957083100,11.438083251953126,0.7482628226280212,-9.01439380645752,-3.642254114151001
1761401825967164200,11.4481640625,0.7494599223136902,-8.998906135559082,-3.64345121383667
1761401825977245200,11.4582451171875,0.7518541812896729,-9.01319694519043,-3.638662815093994
1761401825987326700,11.46832666015625,0.7566425800323486,-9.01200008392334,-3.641057014465332
1761401825997408000,11.478407958984375,0.7602338790893555,-9.035866737365723,-3.6339492797851562
1761401826007488800,11.48848876953125,0.769810676574707,-9.027486801147461,-3.6280386447906494
1761401826017526800,11.49852685546875,0.7614309787750244,-9.029881477355957,-3.6243724822998047
1761401826027651000,11.508651123046874,0.7579144835472107,-9.021576881408691,-3.61838698387146
1761401826037732600,11.518732666015625,0.7604582905769348,-9.029806137084961,-3.637690305709839
1761401826047788000,11.5287880859375,0.7640495896339417,-9.038111686706543,-3.6460700035095215
1761401826057916200,11.538916259765625,0.7700351476669312,-9.029731750488281,-3.6424787044525146
1761401826067977700,11.548977783203124,0.7687631845474243,-9.044096946716309,-3.654449701309204
1761401826078052900,11.559052978515625,0.7532756924629211,-9.034594535827637,-3.641206741333008
1761401826088134100,11.569134033203126,0.7688380479812622,-9.033323287963867,-3.6508584022521973
1761401826098215000,11.57921484375,0.7891139388084412,-9.016563415527344,-3.653327226638794
1761401826108300300,11.58930029296875,0.7855226397514343,-9.016563415527344,-3.6700119972229004
1761401826118381300,11.59938134765625,0.7829787731170654,-9.02135181427002,-3.6747255325317383
1761401826128425000,11.609425048828125,0.7769184708595276,-9.005864143371582,-3.6890158653259277
1761401826138520300,11.619520263671875,0.7530512809753418,-8.988058090209961,-3.684152603149414
1761401826148625400,11.62962548828125,0.7638999819755554,-9.001151084899902,-3.662679672241211
1761401826158683000,11.639682861328126,0.7591115832328796,-9.010727882385254,-3.6495115756988525
1761401826168787200,11.649787109375,0.7603834867477417,-9.01671314239502,-3.6316299438476562
1761401826178847700,11.65984765625,0.7674912810325623,-9.033397674560547,-3.6483893394470215
1761401826188949200,11.66994921875,0.7603086829185486,-9.028609275817871,-3.657891273498535
1761401826199030500,11.680030517578125,0.7715315222740173,-9.016413688659668,-3.67966365814209
1761401826209111800,11.69011181640625,0.7702595591545105,-9.008034706115723,-3.6904375553131104
1761401826219192600,11.700192626953125,0.7822306156158447,-9.00204849243164,-3.6869208812713623
1761401826229269800,11.710269775390625,0.760757565498352,-9.002123832702637,-3.676072359085083
1761401826239355000,11.72035498046875,0.7763947248458862,-9.005714416503906,-3.6617817878723145
1761401826249436200,11.730436279296875,0.8026561141014099,-8.999579429626465,-3.649960517883301
1761401826259517400,11.740517333984375,0.8074445128440857,-9.021127700805664,-3.646369218826294
1761401826269598700,11.7505986328125,0.7953987121582031,-9.033098220825195,-3.670236349105835
1761401826279679700,11.7606796875,0.7950994372367859,-9.02239990234375,-3.7024085521698
1761401826289756700,11.770756591796875,0.7879168391227722,-9.014019966125488,-3.7047278881073
1761401826299816700,11.780816650390625,0.7903858423233032,-9.010502815246582,-3.6820578575134277
1761401826309884400,11.790884521484376,0.7844003438949585,-9.009305953979492,-3.6688897609710693
1761401826320004400,11.80100439453125,0.7868693470954895,-9.009305953979492,-3.6617069244384766
1761401826330040000,11.8110400390625,0.7844751477241516,-9.020079612731934,-3.6629042625427246
1761401826340166400,11.82116650390625,0.7784896492958069,-9.034445762634277,-3.654524326324463
1761401826350247700,11.83124755859375,0.7832780480384827,-9.038036346435547,-3.652130126953125
1761401826360324900,11.841324951171876,0.7660697102546692,-9.019182205200195,-3.6470425128936768
1761401826370409700,11.85140966796875,0.7731775045394897,-9.01200008392334,-3.6482396125793457
1761401826380491000,11.861490966796875,0.7659949064254761,-9.010802268981934,-3.666121244430542
1761401826390572000,11.871572021484376,0.7778910994529724,-9.002347946166992,-3.6781671047210693
1761401826400607000,11.88160693359375,0.7731027007102966,-8.984466552734375,-3.6828808784484863
1761401826410734800,11.89173486328125,0.7659949064254761,-8.986860275268555,-3.6780924797058105
1761401826420811500,11.9018115234375,0.7671172022819519,-8.997634887695312,-3.6840779781341553
1761401826430896400,11.911896484375,0.7814823985099792,-9.008333206176758,-3.684152603149414
1761401826440952600,11.92195263671875,0.762104332447052,-9.009231567382812,-3.6797382831573486
1761401826451059000,11.932058837890626,0.762104332447052,-9.015216827392578,-3.672555685043335
1761401826461140500,11.942140380859374,0.7800608277320862,-9.033098220825195,-3.671433448791504
1761401826471221000,11.952220947265625,0.7644985318183899,-9.047463417053223,-3.670161485671997
1761401826481298400,11.96229833984375,0.7752724289894104,-9.035492897033691,-3.6534769535064697
1761401826491383300,11.97238330078125,0.7812579274177551,-9.021127700805664,-3.673827648162842
1761401826501446400,11.9824462890625,0.802730917930603,-8.99120044708252,-3.6834793090820312
1761401826511527700,11.992527587890624,0.8098387122154236,-9.011401176452637,-3.6954503059387207
1761401826521603600,12.002603515625,0.7953987121582031,-9.021127700805664,-3.6857986450195312
1761401826531708000,12.0127080078125,0.7895628213882446,-9.033098220825195,-3.648688554763794
1761401826541789700,12.022789794921875,0.7764695286750793,-9.02127742767334,-3.628337860107422
1761401826551887000,12.03288720703125,0.7728034257888794,-9.02367115020752,-3.6379146575927734
1761401826561951200,12.042951171875,0.7775170207023621,-9.052251815795898,-3.6534769535064697
1761401826572033000,12.053032958984375,0.7858967185020447,-9.034296035766602,-3.665447950363159
1761401826582113500,12.063113525390625,0.7990648150444031,-9.011550903320312,-3.6535518169403076
1761401826592195300,12.0731953125,0.7907599210739136,-8.981772422790527,-3.6415059566497803
1761401826602276400,12.0832763671875,0.7972691655158997,-8.991498947143555,-3.6495864391326904
1761401826612354300,12.093354248046875,0.7793126702308655,-9.02022933959961,-3.6554970741271973
1761401826622438400,12.1034384765625,0.7792378067970276,-9.033397674560547,-3.679439067840576
1761401826632519400,12.11351953125,0.7624784111976624,-9.028684616088867,-3.6733787059783936
1761401826642557200,12.12355712890625,0.7636007070541382,-9.010727882385254,-3.694851875305176
1761401826652681500,12.133681396484375,0.7636007070541382,-8.990377426147461,-3.7187938690185547
1761401826662762800,12.1437626953125,0.7815572023391724,-8.990302085876465,-3.710488796234131
1761401826672844000,12.153843994140624,0.7733271718025208,-8.990377426147461,-3.6685903072357178
1761401826682901200,12.1639013671875,0.7953987121582031,-8.984167098999023,-3.6605846881866455
1761401826693006300,12.17400634765625,0.7894132137298584,-8.996137619018555,-3.6617817878723145
1761401826713173000,12.194173095703125,0.7713818550109863,-9.006912231445312,-3.6903626918792725
1761401826723249700,12.204249755859376,0.7820809483528137,-9.016413688659668,-3.6868462562561035
1761401826733293000,12.21429296875,0.7761702537536621,-9.02239990234375,-3.67966365814209
1761401826743408400,12.224408447265626,0.7726537585258484,-9.026065826416016,-3.6652984619140625
1761401826753493000,12.234492919921875,0.8037036061286926,-9.041478157043457,-3.6558711528778076
1761401826763574000,12.244573974609375,0.8034791350364685,-9.047538757324219,-3.653402090072632
1761401826773631200,12.25463134765625,0.8035539388656616,-9.041553497314453,-3.624746561050415
1761401826783736300,12.264736328125,0.7879916429519653,-9.024943351745605,-3.630582332611084
1761401826793817300,12.2748173828125,0.7712322473526001,-9.01903247833252,-3.6400845050811768
1761401826803894800,12.284894775390624,0.7652466893196106,-9.01783561706543,-3.6495864391326904
1761401826813979600,12.294979736328125,0.7676409482955933,-9.007061958312988,-3.6531777381896973
1761401826824061000,12.30506103515625,0.7795370817184448,-8.99621295928955,-3.6747255325317383
1761401826834142200,12.31514208984375,0.7890390753746033,-8.989029884338379,-3.6866965293884277
1761401826844225500,12.3252255859375,0.7962216734886169,-8.996137619018555,-3.679588794708252
1761401826854291000,12.335291015625,0.7902361750602722,-9.016489028930664,-3.6736032962799072
1761401826864385500,12.345385498046875,0.7579892873764038,-9.013047218322754,-3.680636167526245
1761401826874462700,12.355462646484375,0.7567921876907349,-9.015440940856934,-3.6710593700408936
1761401826884536600,12.36553662109375,0.7687631845474243,-9.013047218322754,-3.6687400341033936
1761401826894628600,12.375628662109374,0.7639747858047485,-9.013047218322754,-3.6675429344177246
1761401826904728000,12.38572802734375,0.7687631845474243,-9.01783561706543,-3.659163236618042
1761401826914791200,12.395791259765625,0.7855226397514343,-9.001001358032227,-3.6616322994232178
1761401826924872200,12.4058720703125,0.7808838486671448,-9.003395080566406,-3.650933027267456
1761401826934928400,12.415928466796874,0.7665186524391174,-9.003395080566406,-3.660435199737549
1761401826945035000,12.426034912109374,0.7617302536964417,-9.001075744628906,-3.6651487350463867
1761401826955115500,12.436115478515624,0.7450456619262695,-9.021427154541016,-3.656769037246704
1761401826965196800,12.44619677734375,0.7438485622406006,-9.027412414550781,-3.6495864391326904
1761401826975277800,12.45627783203125,0.7606079578399658,-9.027337074279785,-3.6400845050811768
1761401826985358800,12.46635888671875,0.7665934562683105,-9.01895809173584,-3.6496613025665283
1761401826995440000,12.476440185546876,0.754547655582428,-9.028534889221191,-3.659163236618042
1761401827005521700,12.486521728515624,0.7677905559539795,-9.034445762634277,-3.672481060028076
1761401827015602400,12.4966025390625,0.7808838486671448,-9.012823104858398,-3.6868462562561035
1761401827025648000,12.506648193359375,0.7856722474098206,-9.00204849243164,-3.6880433559417725
1761401827035764700,12.5167646484375,0.7714566588401794,-8.993818283081055,-3.6700868606567383
1761401827045820700,12.526820556640626,0.7559691667556763,-9.011775016784668,-3.6508584022521973
1761401827055926800,12.5369267578125,0.7763199210166931,-9.034445762634277,-3.621155261993408
1761401827066009900,12.547009765625,0.760757565498352,-9.052401542663574,-3.6342484951019287
1761401827086145300,12.567145263671875,0.7427262663841248,-9.007061958312988,-3.6723313331604004
1761401827096251400,12.57725146484375,0.7270891070365906,-8.999954223632812,-3.705700397491455
1761401827106332700,12.587332763671874,0.7510311603546143,-8.972345352172852,-3.703381061553955
1761401827116413700,12.59741357421875,0.7713818550109863,-8.96269416809082,-3.6915597915649414
1761401827126495200,12.6074951171875,0.7892635464668274,-8.993669509887695,-3.6868462562561035
1761401827136576000,12.617575927734375,0.8037036061286926,-8.998457908630371,-3.671358585357666
1761401827146658000,12.627657958984376,0.8120084404945374,-9.013944625854492,-3.673827648162842
1761401827156738300,12.63773828125,0.8120084404945374,-9.021127700805664,-3.672630548477173
1761401827166819600,12.647819580078124,0.7960720658302307,-9.041627883911133,-3.6688148975372314
1761401827176899800,12.65789990234375,0.772279679775238,-9.041777610778809,-3.6447980403900146
1761401827186975000,12.66797509765625,0.7377133965492249,-9.034744262695312,-3.6255695819854736
1761401827197052400,12.678052490234375,0.7269394993782043,-9.025242805480957,-3.621903419494629
1761401827207143700,12.688143798828126,0.7555950880050659,-9.029881477355957,-3.639934778213501
1761401827217225200,12.69822509765625,0.7782651782035828,-9.02022933959961,-3.6519806385040283
1761401827227282400,12.708282470703125,0.7769932746887207,-9.010652542114258,-3.6675429344177246
1761401827237387300,12.71838720703125,0.791358470916748,-9.004592895507812,-3.652055501937866
1761401827247468500,12.728468505859375,0.7745990753173828,-9.022698402404785,-3.636418342590332
1761401827257549600,12.738549560546875,0.7686135768890381,-9.020304679870605,-3.6315550804138184
1761401827267631400,12.74863134765625,0.7471405863761902,-9.006089210510254,-3.6314802169799805
1761401827277712000,12.7587119140625,0.7291840314865112,-9.001375198364258,-3.6302082538604736
1761401827287793200,12.768793212890625,0.7303811311721802,-9.000178337097168,-3.643376350402832
1761401827297874200,12.778874267578125,0.7350199222564697,-9.001300811767578,-3.6780176162719727
1761401827307955700,12.788955810546875,0.7612065076828003,-9.01431941986084,-3.6960489749908447
1761401827318011100,12.79901123046875,0.7875427007675171,-9.008258819580078,-3.6997897624969482
1761401827328113700,12.80911376953125,0.7941267490386963,-9.024643898010254,-3.7048773765563965
1761401827338196500,12.819196533203124,0.8096891045570374,-9.024643898010254,-3.695375442504883
1761401827348280300,12.8292802734375,0.819340705871582,-9.020977973937988,-3.6774938106536865
1761401827358360800,12.83936083984375,0.8240543007850647,-9.020977973937988,-3.6942532062530518
1761401827368442000,12.849442138671876,0.8264485001564026,-9.011401176452637,-3.683554172515869
1761401827378519300,12.859519287109375,0.820537805557251,-8.992321968078613,-3.671508312225342
1761401827388604400,12.8696044921875,0.7835025191307068,-9.004443168640137,-3.673752784729004
1761401827398685400,12.879685546875,0.7595604658126831,-8.995016098022461,-3.676072359085083
1761401827408766700,12.8897666015625,0.7470657229423523,-8.984466552734375,-3.6960489749908447
1761401827418847700,12.89984765625,0.7554454803466797,-8.97848129272461,-3.694851875305176
1761401827428929000,12.909928955078126,0.7852981686592102,-8.986710548400879,-3.703381061553955
1761401827438984200,12.919984130859374,0.7971943616867065,-9.014094352722168,-3.703455924987793
1761401827449091600,12.930091552734375,0.8150760531425476,-9.02599048614502,-3.7071220874786377
1761401827459172400,12.94017236328125,0.8186673521995544,-9.016413688659668,-3.7059249877929688
1761401827469253600,12.950253662109375,0.8175450563430786,-8.980575561523438,-3.696348190307617
1761401827479334400,12.96033447265625,0.8104372620582581,-8.965087890625,-3.6926820278167725
1761401827489416200,12.970416259765624,0.807968258857727,-8.990152359008789,-3.6951510906219482
1761401827499496700,12.98049658203125,0.8199392557144165,-9.016413688659668,-3.6904375553131104
1761401827509574100,12.99057421875,0.8151508569717407,-9.02479362487793,-3.6939539909362793
1761401827519659300,13.0006591796875,0.807968258857727,-9.018808364868164,-3.7071220874786377
1761401827529740300,13.010740234375,0.7959223985671997,-9.008109092712402,-3.726125955581665
1761401827539821300,13.0208212890625,0.7970446944236755,-8.982970237731934,-3.747673749923706
1761401827549902600,13.030902587890624,0.7839514017105103,-8.977059364318848,-3.7464020252227783
1761401827559958800,13.040958740234375,0.7791630029678345,-8.96037483215332,-3.737947463989258
