time,seconds_elapsed,z,y,x
1761402677777049300,0.08704931640625,-0.036065101623535156,-0.007967833429574966,0.0036886483430862427
1761402677797243600,0.10724365234375,-0.05041790008544922,0.00016780570149421692,-0.0022215619683265686
1761402677817406200,0.12740625,-0.04143810272216797,-0.0022334642708301544,0.0028542503714561462
1761402677837568500,0.147568603515625,-0.03493213653564453,-0.004607759416103363,0.0028630122542381287
1761402677857731000,0.16773095703125,-0.04992961883544922,-0.003872327506542206,0.003249146044254303
1761402677877868300,0.187868408203125,-0.046586036682128906,0.002191498875617981,0.006511874496936798
1761402677898052000,0.208052001953125,-0.05052471160888672,0.0009958818554878235,0.0007029995322227478
1761402677918229800,0.228229736328125,-0.04819488525390625,-0.004155401140451431,0.0017076954245567322
1761402677938377200,0.248377197265625,-0.04312705993652344,0.00042549893260002136,0.003933951258659363
1761402677958544100,0.268544189453125,-0.05140399932861328,-0.0016374923288822174,-0.00014127790927886963
1761402677978706400,0.28870654296875,-0.05162239074707031,0.0033071599900722504,0.004391930997371674
1761402677998854000,0.30885400390625,-0.051367759704589844,-0.0036847181618213654,0.007812947034835815
1761402678019029500,0.329029541015625,-0.05085468292236328,-0.0020878277719020844,0.003982633352279663
1761402678039168500,0.34916845703125,-0.053605079650878906,-0.0007132627069950104,0.006479218602180481
1761402678059356200,0.369356201171875,-0.047369956970214844,0.002050887793302536,0.006413154304027557
1761402678079518200,0.389518310546875,-0.04290294647216797,-0.0008062012493610382,0.005394674837589264
1761402678099680800,0.4096806640625,-0.04777717590332031,-0.0003976114094257355,0.006801426410675049
1761402678119843300,0.42984326171875,-0.045745849609375,0.00004909932613372803,0.00385449081659317
1761402678140006000,0.450005859375,-0.045342445373535156,-0.0015635304152965546,0.008356072008609772
1761402678160168000,0.47016796875,-0.046843528747558594,-0.0003532096743583679,0.0025843828916549683
1761402678180305400,0.490305419921875,-0.04839515686035156,0.004884269088506699,0.0049400851130485535
1761402678200473300,0.510473388671875,-0.049475669860839844,0.0010458528995513916,-0.0032666921615600586
1761402678220655900,0.53065576171875,-0.04924201965332031,0.0013931207358837128,0.0054922401905059814
1761402678240818700,0.550818603515625,-0.04327869415283203,0.0032369978725910187,0.008008234202861786
1761402678260977200,0.57097705078125,-0.040882110595703125,-0.00004307553172111511,0.0070350319147109985
1761402678281123300,0.591123291015625,-0.04670906066894531,0.0034539029002189636,0.004431985318660736
1761402678301293300,0.611293212890625,-0.05143547058105469,0.006107550114393234,0.006029307842254639
1761402678321442800,0.63144287109375,-0.053287506103515625,0.003365457057952881,0.006979428231716156
1761402678341631200,0.65163134765625,-0.04615211486816406,0.007820144295692444,0.0035144537687301636
1761402678361788200,0.6717880859375,-0.05062294006347656,0.0031833089888095856,0.008796654641628265
1761402678381930500,0.691930419921875,-0.05245494842529297,-0.0027431249618530273,0.0049479007720947266
1761402678402073000,0.712072998046875,-0.043128013610839844,0.00754881277680397,-0.0008583590388298035
1761402678422272500,0.7322724609375,-0.04125499725341797,0.0022694580256938934,0.0045098066329956055
1761402678442443300,0.752443359375,-0.04665565490722656,0.001823466271162033,0.0026522502303123474
1761402678462605600,0.77260546875,-0.05068778991699219,0.0013850554823875427,-0.0013840645551681519
1761402678482784000,0.792783935546875,-0.048980712890625,-0.0004868507385253906,-0.00002086162567138672
1761402678502931200,0.81293115234375,-0.05134391784667969,-0.0007807128131389618,0.004920795559883118
1761402678523089200,0.833089111328125,-0.046311378479003906,-0.0012546628713607788,0.005351550877094269
1761402678543211800,0.853211669921875,-0.04695892333984375,0.0014543235301971436,0.008417308330535889
1761402678563379700,0.873379638671875,-0.048858642578125,-0.004785265773534775,0.005010068416595459
1761402678583577000,0.8935771484375,-0.04164600372314453,-0.005155917257070541,0.0032871291041374207
1761402678603750700,0.913750732421875,-0.050201416015625,-0.0018522851169109344,0.002072080969810486
1761402678623905300,0.9339052734375,-0.051947593688964844,-0.002349451184272766,0.00043920427560806274
1761402678644064000,0.95406396484375,-0.04864692687988281,0.006074491888284683,0.009657014161348343
1761402678664193000,0.974193115234375,-0.04569435119628906,0.0026461146771907806,0.005305811762809753
1761402678684390400,0.994390380859375,-0.05376625061035156,0.00034431740641593933,0.008976798504590988
1761402678704530200,1.0145302734375,-0.05370140075683594,0.0022886954247951508,0.005396701395511627
1761402678724717800,1.0347177734375,-0.04679298400878906,-0.0012286081910133362,0.0065324753522872925
1761402678744855600,1.05485546875,-0.04810619354248047,0.0023632608354091644,0.004309207201004028
1761402678765043000,1.07504296875,-0.048995018005371094,0.00351652130484581,0.0024315640330314636
1761402678785218600,1.095218505859375,-0.041731834411621094,-0.0009940266609191895,0.007877185940742493
1761402678805367600,1.115367431640625,-0.04219627380371094,-0.002162318676710129,0.0017256885766983032
1761402678825530400,1.1355302734375,-0.04419994354248047,0.0006924718618392944,0.004334986209869385
1761402678845693400,1.155693359375,-0.04364490509033203,0.0012627318501472473,0.006920456886291504
1761402678865855200,1.175855224609375,-0.044013023376464844,0.0023938454687595367,0.004955984652042389
1761402678886017500,1.196017578125,-0.04800605773925781,0.003224942833185196,0.003974266350269318
1761402678906180600,1.2161806640625,-0.04322338104248047,0.0013938210904598236,0.0013386458158493042
1761402678926342700,1.2363427734375,-0.040490150451660156,0.000748075544834137,0.003033585846424103
1761402678946505200,1.256505126953125,-0.040660858154296875,0.005015965551137924,0.009828560054302216
1761402678966667800,1.276667724609375,-0.04680919647216797,0.005880765616893768,-0.0003519579768180847
1761402678986830000,1.296830078125,-0.042243003845214844,-0.0034811943769454956,0.005694977939128876
1761402679006992400,1.316992431640625,-0.04651927947998047,-0.0033752843737602234,0.006131283938884735
1761402679027155200,1.3371552734375,-0.04831504821777344,-0.002828948199748993,0.002431534230709076
1761402679047317800,1.35731787109375,-0.048023223876953125,0.005161222070455551,-0.0008305832743644714
1761402679067480000,1.37747998046875,-0.04551219940185547,-0.0012910589575767517,-0.002415485680103302
1761402679087619000,1.397619140625,-0.048148155212402344,0.0007054135203361511,0.0005794242024421692
1761402679107805000,1.417804931640625,-0.050864219665527344,0.0005250349640846252,-0.00046228617429733276
1761402679127967700,1.4379677734375,-0.05183601379394531,-0.0015120580792427063,0.001387953758239746
1761402679148126000,1.4581259765625,-0.04645347595214844,0.0035103820264339447,0.0045213401317596436
1761402679168292400,1.478292236328125,-0.04323101043701172,0.004053525626659393,0.002321891486644745
1761402679188452400,1.498452392578125,-0.04609489440917969,0.007279850542545319,0.006284348666667938
1761402679208617500,1.518617431640625,-0.05038928985595703,0.007552981376647949,0.005106516182422638
1761402679228779800,1.53877978515625,-0.04514503479003906,0.00939905270934105,0.007801055908203125
1761402679248921000,1.558921142578125,-0.047972679138183594,0.0006371736526489258,0.00411706417798996
1761402679269105000,1.57910498046875,-0.046947479248046875,-0.0018071569502353668,0.0015558302402496338
1761402679289267700,1.599267822265625,-0.041556358337402344,0.0070005618035793304,0.0002541467547416687
1761402679309430500,1.619430419921875,-0.03968620300292969,0.0014018341898918152,0.0018397793173789978
1761402679329593600,1.639593505859375,-0.045684814453125,0.00320536270737648,0.006080992519855499
1761402679349751000,1.6597509765625,-0.051972389221191406,0.0012268759310245514,-0.0003269612789154053
1761402679369892000,1.67989208984375,-0.0398101806640625,0.0015899688005447388,0.0018243491649627686
1761402679390079700,1.700079833984375,-0.04408073425292969,0.001093987375497818,0.006966382265090942
1761402679410238500,1.720238525390625,-0.044617652893066406,0.00407356396317482,0.003019951283931732
1761402679430379300,1.740379150390625,-0.04881095886230469,0.0011443383991718292,-0.0012602433562278748
1761402679450543000,1.760543212890625,-0.05173206329345703,0.001739606261253357,0.005779370665550232
1761402679470756000,1.780756103515625,-0.0526123046875,-0.00224917009472847,-0.0018542557954788208
1761402679490892000,1.80089208984375,-0.04359245300292969,0.0014088824391365051,0.003775574266910553
1761402679511032000,1.821031982421875,-0.04690837860107422,0.0031215958297252655,-0.00011723488569259644
1761402679531217200,1.841217041015625,-0.051177978515625,0.0020472295582294464,0.001010112464427948
1761402679551355000,1.86135498046875,-0.044193267822265625,-0.0011714063584804535,0.003198191523551941
1761402679571517200,1.88151708984375,-0.04681682586669922,0.0005954168736934662,0.001400575041770935
1761402679591705000,1.901705078125,-0.04192352294921875,0.005614921450614929,0.005243629217147827
1761402679611867100,1.9218671875,-0.04759693145751953,0.008715920150279999,0.003928951919078827
1761402679632028200,1.942028076171875,-0.04289722442626953,0.005253113806247711,0.004564836621284485
1761402679652192000,1.96219189453125,-0.053788185119628906,0.0013847164809703827,-0.001837216317653656
1761402679672350500,1.9823505859375,-0.04362010955810547,-0.0051985085010528564,0.002255372703075409
1761402679692491500,2.002491455078125,-0.047913551330566406,-0.003709070384502411,0.005193300545215607
1761402679712654000,2.022654052734375,-0.046985626220703125,0.007189415395259857,0.0019242987036705017
1761402679732838100,2.042838134765625,-0.042075157165527344,-0.00005595758557319641,0.002387009561061859
1761402679753004800,2.0630048828125,-0.048435211181640625,0.0008872300386428833,0.0009080320596694946
1761402679773167000,2.0831669921875,-0.050889015197753906,0.0017529353499412537,0.0036119967699050903
1761402679793329400,2.103329345703125,-0.04946708679199219,0.0057685486972332,0.005469083786010742
1761402679813488000,2.123488037109375,-0.045416831970214844,0.007393352687358856,0.005486935377120972
1761402679833630200,2.143630126953125,-0.04904460906982422,-0.004155568778514862,0.0009674951434135437
1761402679853817000,2.163817138671875,-0.051326751708984375,-0.0036614909768104553,0.0032740533351898193
1761402679873979100,2.183979248046875,-0.04262828826904297,0.0022382140159606934,0.0016429871320724487
1761402679894141700,2.2041416015625,-0.04589653015136719,0.00024038925766944885,0.00212058424949646
1761402679914281700,2.22428173828125,-0.04590797424316406,-0.00339314341545105,0.0017338171601295471
1761402679934443500,2.244443603515625,-0.04819202423095703,-0.007620282471179962,-0.0009445995092391968
1761402679954615000,2.264614990234375,-0.05018901824951172,0.0016732849180698395,0.0001177862286567688
1761402679974766600,2.2847666015625,-0.04645538330078125,0.0005858056247234344,-0.00008312612771987915
1761402679994954000,2.3049541015625,-0.048508644104003906,0.005112018436193466,0.004690296947956085
1761402680015100700,2.3251005859375,-0.044582366943359375,-0.003092799335718155,0.0005312412977218628
1761402680035279600,2.345279541015625,-0.04811286926269531,-0.0005648992955684662,0.0025146305561065674
1761402680055442200,2.365442138671875,-0.04348468780517578,0.0008385255932807922,0.00018861889839172363
1761402680075599400,2.385599365234375,-0.04335594177246094,0.0033171623945236206,-0.0016623958945274353
1761402680095741200,2.4057412109375,-0.04941082000732422,0.0003618597984313965,0.0019889771938323975
1761402680115929600,2.4259296875,-0.04845237731933594,-0.004379909485578537,0.005987323820590973
1761402680136073200,2.4460732421875,-0.04213142395019531,0.00706089660525322,0.0004854649305343628
1761402680156254200,2.466254150390625,-0.04461479187011719,0.0047368817031383514,0.002837918698787689
1761402680176391000,2.486390869140625,-0.04378032684326172,0.005485080182552338,0.0004898607730865479
1761402680196577300,2.506577392578125,-0.044899940490722656,0.0030478984117507935,0.00475262850522995
1761402680216720000,2.526719970703125,-0.044983863830566406,0.004275165498256683,-0.001617714762687683
1761402680236896000,2.54689599609375,-0.04660320281982422,0.0012969262897968292,0.0032406970858573914
1761402680257066200,2.567066162109375,-0.04393482208251953,-0.0017123371362686157,0.0015729442238807678
1761402680277210000,2.587210205078125,-0.048140525817871094,0.0079277865588665,0.004105500876903534
1761402680297391600,2.6073916015625,-0.04932975769042969,0.0015636160969734192,0.00650835782289505
1761402680317529000,2.627529052734375,-0.045067787170410156,0.004975892603397369,-0.0004267692565917969
1761402680337691400,2.64769140625,-0.045670509338378906,0.002551332116127014,0.00226014107465744
1761402680357879300,2.66787939453125,-0.04689311981201172,0.006016425788402557,0.0032946616411209106
1761402680378015000,2.688014892578125,-0.04630470275878906,0.0018976442515850067,-0.0004783645272254944
1761402680398202000,2.7082021484375,-0.0429229736328125,-0.00025707483291625977,0.0007195547223091125
1761402680418366700,2.72836669921875,-0.04655742645263672,0.006269030272960663,-0.002762041985988617
1761402680438503700,2.748503662109375,-0.040752410888671875,0.006544720381498337,0.005026951432228088
1761402680458648600,2.768648681640625,-0.048976898193359375,-0.0017828233540058136,0.005648508667945862
1761402680478825200,2.7888251953125,-0.04433727264404297,0.0021592266857624054,0.005491621792316437
1761402680499012000,2.80901220703125,-0.046607017517089844,0.0024674423038959503,0.002147383987903595
1761402680519153200,2.829153076171875,-0.04904937744140625,0.007395576685667038,0.0038865134119987488
1761402680539341300,2.84934130859375,-0.04096031188964844,0.0073745884001255035,0.002269245684146881
1761402680559469600,2.869469482421875,-0.054656028747558594,0.00009890273213386536,0.006427474319934845
1761402680579641900,2.889641845703125,-0.04812908172607422,0.0006615817546844482,0.006213098764419556
1761402680599828700,2.909828857421875,-0.04961967468261719,0.0033104903995990753,0.004639782011508942
1761402680619991000,2.929990966796875,-0.05241966247558594,0.002451900392770767,0.010162707418203354
1761402680640153300,2.9501533203125,-0.04609870910644531,0.004559844732284546,0.0012673139572143555
1761402680660316000,2.97031591796875,-0.04833984375,0.005875956267118454,0.0015954896807670593
1761402680680465000,2.99046484375,-0.047222137451171875,0.001765277236700058,0.0014968588948249817
1761402680700641000,3.01064111328125,-0.048061370849609375,0.0017233602702617645,0.00273093581199646
1761402680720804400,3.030804443359375,-0.05304241180419922,0.005744583904743195,0.006891682744026184
1761402680740940800,3.05094091796875,-0.05057048797607422,-0.0033844485878944397,0.003137245774269104
1761402680761124900,3.071124755859375,-0.04565238952636719,-0.0006651431322097778,0.0018229708075523376
1761402680781291500,3.09129150390625,-0.04686737060546875,-0.002963416278362274,0.005607984960079193
1761402680801453300,3.111453369140625,-0.04718303680419922,-0.0014335960149765015,0.0027560293674468994
1761402680821611800,3.13161181640625,-0.04028034210205078,0.0020814910531044006,0.005579210817813873
1761402680841778200,3.151778076171875,-0.04448509216308594,0.003913819789886475,0.0009210705757141113
1761402680861940700,3.171940673828125,-0.04613208770751953,0.0005236268043518066,0.0018349215388298035
1761402680882091800,3.192091796875,-0.04369544982910156,0.005140166729688644,0.00377829372882843
1761402680902265600,3.212265625,-0.04913806915283203,0.0010619647800922394,0.0021053552627563477
1761402680922428200,3.23242822265625,-0.04662609100341797,0.005585871636867523,0.0034884214401245117
1761402680942609700,3.252609619140625,-0.049590110778808594,0.002484537661075592,0.0021712854504585266
1761402680962753800,3.27275390625,-0.05169868469238281,-0.0007612966001033783,0.0023581460118293762
1761402680982886100,3.29288623046875,-0.045495033264160156,-0.000042695552110672,0.000049740076065063477
1761402681003078700,3.31307861328125,-0.04494476318359375,0.0023437924683094025,0.004604749381542206
1761402681023240400,3.333240478515625,-0.04971599578857422,0.0006841309368610382,0.012176446616649628
1761402681043403000,3.353403076171875,-0.040574073791503906,-0.0033090561628341675,0.004156462848186493
1761402681063565800,3.37356591796875,-0.04393959045410156,0.0035904832184314728,0.0007478371262550354
1761402681083703000,3.393703125,-0.046576499938964844,0.0066660381853580475,0.005738250911235809
1761402681103890400,3.413890380859375,-0.05011177062988281,0.0015225335955619812,0.005454406142234802
1761402681124053500,3.434053466796875,-0.047637939453125,-0.0008493140339851379,0.007553171366453171
1761402681144212200,3.454212158203125,-0.05235862731933594,-0.0007793642580509186,0.000398389995098114
1761402681164377300,3.47437744140625,-0.05476188659667969,-0.00045732781291007996,0.003988496959209442
1761402681184540400,3.49454052734375,-0.04622650146484375,-0.0032350830733776093,0.005193211138248444
1761402681204703500,3.514703369140625,-0.04842185974121094,-0.0010952167212963104,0.00517968088388443
1761402681224865300,3.534865234375,-0.04414176940917969,0.003932066261768341,0.00011335313320159912
1761402681245002800,3.555002685546875,-0.05054187774658203,0.0020480677485466003,0.0036723092198371887
1761402681265190100,3.575190185546875,-0.04977130889892578,0.002836417406797409,0.00248689204454422
1761402681285352700,3.595352783203125,-0.0488739013671875,0.0007596388459205627,0.005555287003517151
1761402681305515500,3.615515625,-0.055919647216796875,0.002507716417312622,0.005172945559024811
1761402681325652700,3.63565283203125,-0.03988838195800781,-0.005968555808067322,0.00009974837303161621
1761402681345840400,3.65584033203125,-0.04303455352783203,-0.0005071572959423065,0.005584396421909332
1761402681366003000,3.6760029296875,-0.047110557556152344,0.0001821555197238922,-0.00237448513507843
1761402681386165000,3.6961650390625,-0.048720359802246094,-0.0015141107141971588,0.0032607391476631165
1761402681406328000,3.716328125,-0.043689727783203125,0.0003742016851902008,0.0037705153226852417
1761402681426490000,3.736489990234375,-0.047547340393066406,0.00167783722281456,0.0009471699595451355
1761402681446652400,3.75665234375,-0.043247222900390625,0.008907943964004517,0.004074864089488983
1761402681466815200,3.776815185546875,-0.052605628967285156,0.00457826629281044,0.008570250123739243
1761402681486977500,3.7969775390625,-0.04746055603027344,0.001916598528623581,0.0070931389927864075
1761402681507140000,3.81714013671875,-0.048203468322753906,0.002598084509372711,0.0015567690134048462
1761402681527303200,3.83730322265625,-0.04931449890136719,0.003879457712173462,0.0052164047956466675
1761402681547465000,3.85746484375,-0.04360485076904297,-0.0036306232213974,0.005605325102806091
1761402681567627500,3.87762744140625,-0.046905517578125,0.00280969962477684,0.008229095488786697
1761402681587789800,3.897789794921875,-0.04831504821777344,-0.0020926296710968018,-0.0013745427131652832
1761402681607953200,3.917953125,-0.04678916931152344,-0.0003195852041244507,0.007415488362312317
1761402681628110600,3.938110595703125,-0.05002307891845703,-0.00213734433054924,0.004387691617012024
1761402681648273000,3.95827294921875,-0.04808330535888672,-0.0028549395501613617,0.0021711140871047974
1761402681668439800,3.978439697265625,-0.042049407958984375,-0.0026760920882225037,0.003445848822593689
1761402681688602400,3.998602294921875,-0.04380226135253906,-0.0022433698177337646,0.007454268634319305
1761402681708765200,4.01876513671875,-0.054352760314941406,-0.002026055008172989,0.00091543048620224
1761402681728927200,4.03892724609375,-0.045889854431152344,-0.004169311374425888,-0.0003926977515220642
1761402681749064400,4.059064453125,-0.05254364013671875,0.003918297588825226,0.003049194812774658
1761402681769252400,4.07925244140625,-0.043575286865234375,0.0032501928508281708,0.002347223460674286
1761402681789414700,4.09941455078125,-0.05763053894042969,-0.0018237419426441193,0.004296056926250458
1761402681809577200,4.1195771484375,-0.03825950622558594,-0.003375742584466934,0.004458151757717133
1761402681829739500,4.139739501953125,-0.0460968017578125,-0.0001849643886089325,0.007841944694519043
1761402681849902000,4.159902099609375,-0.04733753204345703,0.000876452773809433,0.003778606653213501
1761402681870064600,4.180064697265625,-0.044440269470214844,0.0036971867084503174,0.0033731013536453247
1761402681890194700,4.200194580078125,-0.04656028747558594,-0.00012816861271858215,0.0029614418745040894
1761402681910385400,4.220385498046875,-0.05030059814453125,-0.004312623292207718,0.0022330209612846375
1761402681930552000,4.240552001953125,-0.049935340881347656,-0.0017799921333789825,0.0014079436659812927
1761402681950714400,4.26071435546875,-0.04812908172607422,-0.004765782505273819,0.004163414239883423
1761402681970872800,4.280872802734375,-0.047852516174316406,0.004536248743534088,0.003548070788383484
1761402681991039200,4.301039306640625,-0.047641754150390625,0.001416236162185669,0.0026188790798187256
1761402682011201800,4.321201904296875,-0.047043800354003906,-0.0034664981067180634,0.002325110137462616
1761402682031340000,4.341340087890625,-0.04949951171875,0.002731308341026306,0.004130065441131592
1761402682051526700,4.361526611328125,-0.05075359344482422,0.0007028728723526001,0.008000470697879791
1761402682071689500,4.381689453125,-0.0493011474609375,-0.0025498420000076294,0.0059297531843185425
1761402682091851800,4.401851806640625,-0.038086891174316406,-0.0016786456108093262,0.00630614161491394
1761402682112014000,4.42201416015625,-0.04601478576660156,-0.001083511859178543,0.0030289068818092346
1761402682132151600,4.442151611328125,-0.04506206512451172,-0.0026810169219970703,0.003691472113132477
1761402682152339000,4.4623388671875,-0.045744895935058594,-0.0035347267985343933,0.006782248616218567
1761402682172501500,4.48250146484375,-0.04749011993408203,-0.0038050301373004913,0.0014440640807151794
1761402682192639500,4.502639404296875,-0.045340538024902344,-0.005033820867538452,0.007062472403049469
1761402682212814000,4.52281396484375,-0.05581855773925781,-0.0007881894707679749,0.0031160488724708557
1761402682232984800,4.54298486328125,-0.04507160186767578,0.004942502826452255,0.006844289600849152
1761402682253151500,4.5631513671875,-0.048305511474609375,0.010824616998434067,0.008731797337532043
1761402682273313800,4.583313720703125,-0.045853614807128906,0.0031885653734207153,0.0049544647336006165
1761402682293472000,4.603471923828125,-0.048562049865722656,0.006195463240146637,0.004071056842803955
1761402682313600300,4.623600341796875,-0.039948463439941406,-0.0020134299993515015,-0.0011642277240753174
1761402682333801700,4.6438017578125,-0.04827404022216797,-0.00422297790646553,0.006331607699394226
1761402682353964000,4.663964111328125,-0.04857063293457031,0.00033472105860710144,0.003430016338825226
1761402682374100700,4.684100830078125,-0.05161094665527344,0.0008741579949855804,0.004891194403171539
1761402682394288600,4.70428857421875,-0.04831504821777344,0.0004111640155315399,0.007264271378517151
1761402682414451200,4.724451171875,-0.04559803009033203,0.00474456325173378,0.002650447189807892
1761402682434613800,4.74461376953125,-0.04826068878173828,-0.001186758279800415,0.005924120545387268
1761402682454776300,4.7647763671875,-0.04833793640136719,0.005162887275218964,0.00564131885766983
1761402682474939000,4.78493896484375,-0.05114555358886719,-0.0020629242062568665,0.004087597131729126
1761402682495101200,4.80510107421875,-0.051258087158203125,0.0012490786612033844,-0.0011559948325157166
1761402682515237600,4.825237548828125,-0.045639991760253906,0.004371248185634613,-0.0035756081342697144
1761402682535426000,4.845426025390625,-0.043089866638183594,0.003345225006341934,0.007852576673030853
1761402682555589000,4.865589111328125,-0.049880027770996094,0.002763744443655014,0.0055662766098976135
1761402682575751200,4.885751220703125,-0.04863548278808594,0.002383217215538025,0.005594722926616669
1761402682595888000,4.90588818359375,-0.04300689697265625,-0.0008930452167987823,0.0074588581919670105
1761402682616075800,4.92607568359375,-0.0517120361328125,0.0019419491291046143,-0.00032345205545425415
1761402682636210200,4.946210205078125,-0.042690277099609375,-0.0019398704171180725,0.00038608163595199585
1761402682656401000,4.96640087890625,-0.043613433837890625,-0.0016921423375606537,-0.004717588424682617
1761402682676563500,4.9865634765625,-0.05024147033691406,-0.0029497630894184113,-0.004375234246253967
1761402682696727000,5.00672705078125,-0.04656219482421875,-0.0037950947880744934,0.0013096705079078674
1761402682716888300,5.026888427734375,-0.046837806701660156,0.003974754363298416,0.0037942081689834595
1761402682737051000,5.04705078125,-0.04905128479003906,0.001645699143409729,0.010910071432590485
1761402682757213200,5.067213134765625,-0.04316997528076172,-0.005920417606830597,0.0037108957767486572
1761402682777355000,5.08735498046875,-0.04142284393310547,0.0031312070786952972,0.0020310059189796448
1761402682797538000,5.1075380859375,-0.0489654541015625,0.003187134861946106,0.004518628120422363
1761402682817700600,5.12770068359375,-0.04715919494628906,-0.000701121985912323,0.0015184581279754639
1761402682837864000,5.147864013671875,-0.04753303527832031,-0.0024068132042884827,0.001375339925289154
1761402682858021000,5.168021240234375,-0.04998779296875,-0.001913364976644516,0.00021238625049591064
1761402682878162400,5.188162353515625,-0.04812145233154297,0.0023746229708194733,0.005584798753261566
1761402682898350600,5.2083505859375,-0.037296295166015625,0.003931887447834015,0.005054652690887451
1761402682918513200,5.22851318359375,-0.04371833801269531,0.0026639141142368317,-0.002996191382408142
1761402682938676000,5.248676025390625,-0.049750328063964844,-0.0003641769289970398,-0.00028605014085769653
1761402682958838300,5.26883837890625,-0.047699928283691406,-0.0006654448807239532,0.003511078655719757
1761402682978976800,5.288976806640625,-0.04677867889404297,0.001607738435268402,0.004195474088191986
1761402682999159000,5.309158935546875,-0.054187774658203125,0.003977801650762558,0.0033577680587768555
1761402683019299800,5.3292998046875,-0.047598838806152344,0.0022857561707496643,0.0040122345089912415
1761402683039488300,5.34948828125,-0.04592323303222656,-0.002777792513370514,0.0035899579524993896
1761402683059646700,5.369646728515625,-0.04900646209716797,-0.0002741403877735138,-0.000047400593757629395
1761402683079813400,5.3898134765625,-0.050889015197753906,-0.002198740839958191,0.0008955672383308411
1761402683099975700,5.4099755859375,-0.043366432189941406,-0.0032626204192638397,0.00717906653881073
1761402683120134000,5.4301337890625,-0.05058860778808594,-0.0014637336134910583,0.005276679992675781
1761402683140300500,5.450300537109375,-0.04761314392089844,0.0011821798980236053,0.007846884429454803
1761402683160462800,5.470462890625,-0.05129528045654297,-0.002032686024904251,0.009743645787239075
1761402683180626000,5.4906259765625,-0.04806232452392578,-0.00030596181750297546,0.0030819103121757507
1761402683200787700,5.51078759765625,-0.053565025329589844,0.00009050965309143066,0.0013462752103805542
1761402683220950000,5.530949951171875,-0.04732704162597656,0.0020175129175186157,0.004689797759056091
1761402683241112600,5.551112548828125,-0.036759376525878906,0.006511613726615906,0.007359392940998077
1761402683261275400,5.571275390625,-0.045884132385253906,-0.0014066174626350403,0.004702046513557434
1761402683281437700,5.591437744140625,-0.047000885009765625,0.000772673636674881,0.001953139901161194
1761402683301600000,5.61160009765625,-0.04420280456542969,0.0036852173507213593,0.002539239823818207
1761402683321759000,5.631759033203125,-0.048285484313964844,0.0028835684061050415,0.0021545588970184326
1761402683341925000,5.651925048828125,-0.048308372497558594,0.0028920024633407593,-0.0015966743230819702
1761402683362087200,5.672087158203125,-0.04412841796875,0.00011230260133743286,-0.000772431492805481
1761402683382246100,5.69224609375,-0.04886627197265625,-0.003455791622400284,-0.004053868353366852
1761402683402412300,5.712412353515625,-0.04837608337402344,0.004650488495826721,0.0027549639344215393
1761402683422574800,5.732574951171875,-0.051560401916503906,0.0028643012046813965,0.0006955936551094055
1761402683442712000,5.752712158203125,-0.05360603332519531,0.004221577197313309,0.0054550617933273315
1761402683462900000,5.77289990234375,-0.043254852294921875,0.004035603255033493,0.003743082284927368
1761402683483038200,5.7930380859375,-0.052323341369628906,0.0009301342070102692,0.0023038387298583984
1761402683503224600,5.813224609375,-0.04429435729980469,0.003457430750131607,-0.0011280104517936707
1761402683523387100,5.83338720703125,-0.048071861267089844,0.003455761820077896,0.0002471059560775757
1761402683543549700,5.8535498046875,-0.051117897033691406,0.0022673942148685455,0.0005955547094345093
1761402683563712300,5.873712158203125,-0.047514915466308594,0.00014304369688034058,0.0030670836567878723
1761402683583875300,5.893875244140625,-0.046082496643066406,-0.00538591668009758,0.003080204129219055
1761402683604037000,5.914037109375,-0.048905372619628906,0.004427853971719742,0.0020719915628433228
1761402683624199400,5.934199462890625,-0.049373626708984375,0.004747014492750168,0.0014935210347175598
1761402683644358100,5.954358154296875,-0.04649066925048828,0.005648761987686157,-0.0006233677268028259
1761402683664524500,5.974524658203125,-0.04783344268798828,-0.002126358449459076,0.0020272433757781982
1761402683684688000,5.99468798828125,-0.045975685119628906,-0.0023355185985565186,0.00006942451000213623
1761402683704849400,6.014849365234375,-0.043651580810546875,-0.0005911774933338165,0.0037679970264434814
1761402683725011700,6.03501171875,-0.04411602020263672,0.001859772950410843,0.002500467002391815
1761402683745170200,6.055170166015625,-0.04669475555419922,0.003944166004657745,0.004084140062332153
1761402683765337000,6.075337158203125,-0.045166015625,-0.001592092216014862,0.0008646249771118164
1761402683785499100,6.0954990234375,-0.044760704040527344,-0.00005557015538215637,0.003803059458732605
1761402683805662000,6.115661865234375,-0.04274463653564453,-0.00012215971946716309,0.006217949092388153
1761402683825824300,6.13582421875,-0.049590110778808594,0.004546850919723511,0.002861104905605316
1761402683845987000,6.155987060546875,-0.04478931427001953,0.0017774775624275208,0.006404593586921692
1761402683866149000,6.176149169921875,-0.050850868225097656,0.00167190283536911,0.0029453858733177185
1761402683886311400,6.1963115234375,-0.04604148864746094,0.005509428679943085,0.0036887899041175842
1761402683906448600,6.21644873046875,-0.0511627197265625,0.008847005665302277,0.0007726326584815979
1761402683926636500,6.236636474609375,-0.04569435119628906,0.0006325356662273407,0.003835320472717285
1761402683946799000,6.256799072265625,-0.05350303649902344,0.002530660480260849,0.0048809051513671875
1761402683966962000,6.2769619140625,-0.04941844940185547,0.0037428438663482666,0.002132311463356018
1761402683987124200,6.297124267578125,-0.05172157287597656,0.003221627324819565,0.0019295215606689453
1761402684007286500,6.31728662109375,-0.049035072326660156,-0.00514322891831398,-0.002193666994571686
1761402684027449300,6.337449462890625,-0.05148792266845703,0.0018153861165046692,0.002234235405921936
1761402684047611400,6.357611328125,-0.05506420135498047,-0.00007352232933044434,0.0034902244806289673
1761402684067765200,6.37776513671875,-0.050782203674316406,0.0009631477296352386,0.00215129554271698
1761402684087936300,6.397936279296875,-0.056990623474121094,-0.004841107875108719,0.0031687840819358826
1761402684108083200,6.418083251953125,-0.04599761962890625,-0.005258966237306595,0.004448547959327698
1761402684128261400,6.438261474609375,-0.050293922424316406,-0.0018552988767623901,0.005427226424217224
1761402684148420000,6.458420166015625,-0.05091285705566406,-0.0026500895619392395,0.0030523985624313354
1761402684168586200,6.478586181640625,-0.044281005859375,-0.00002326071262359619,0.003857530653476715
1761402684188748800,6.498748779296875,-0.050067901611328125,-0.0005644746124744415,-0.0002572089433670044
1761402684208886800,6.51888671875,-0.042613983154296875,0.0001868121325969696,0.003068387508392334
1761402684229073700,6.53907373046875,-0.04805469512939453,-0.0036660805344581604,0.0046173036098480225
1761402684249236200,6.559236328125,-0.05312919616699219,-0.0033736228942871094,0.0030706822872161865
1761402684269398500,6.5793984375,-0.04105091094970703,-0.00006869062781333923,-0.0017799511551856995
1761402684289560800,6.599560791015625,-0.049094200134277344,0.0007705166935920715,0.005873039364814758
1761402684309723400,6.619723388671875,-0.053999900817871094,-0.0009137876331806183,0.008263114839792252
1761402684329886200,6.63988623046875,-0.048854827880859375,0.00632915273308754,0.0007956400513648987
1761402684350048300,6.66004833984375,-0.0446624755859375,0.0012957118451595306,0.002184547483921051
1761402684370193400,6.680193359375,-0.05054473876953125,-0.0033995546400547028,0.008041776716709137
1761402684390373400,6.700373291015625,-0.048404693603515625,-0.0027230605483055115,0.004985056817531586
1761402684410535700,6.72053564453125,-0.04251861572265625,-0.003391433507204056,0.0016844645142555237
1761402684430698200,6.7406982421875,-0.04840087890625,0.002272665500640869,0.0006616935133934021
1761402684450860500,6.760860595703125,-0.05126380920410156,0.0040135495364665985,0.0047040581703186035
1761402684471019300,6.781019287109375,-0.04392242431640625,0.001609712839126587,0.001447521150112152
1761402684491185700,6.801185546875,-0.045777320861816406,0.004586946219205856,0.002860844135284424
1761402684511348500,6.821348388671875,-0.04863548278808594,-0.0027492977678775787,-0.002466753125190735
1761402684531506700,6.841506591796875,-0.0480804443359375,0.0005143806338310242,0.0005445629358291626
1761402684551672800,6.8616728515625,-0.052216529846191406,-0.0045919641852378845,0.0022598356008529663
1761402684571809500,6.8818095703125,-0.050803184509277344,0.0017878785729408264,0.003155149519443512
1761402684591998200,6.901998291015625,-0.049538612365722656,0.0038106590509414673,0.001565389335155487
1761402684612161300,6.922161376953125,-0.04555034637451172,0.0027935728430747986,-0.003561735153198242
1761402684632297500,6.94229736328125,-0.047608375549316406,0.0038759298622608185,0.0006998032331466675
1761402684652485600,6.962485595703125,-0.047486305236816406,-0.004597418010234833,-0.0019425377249717712
1761402684672649000,6.98264892578125,-0.051387786865234375,0.001324143260717392,0.0006342604756355286
1761402684692810200,7.002810302734375,-0.050675392150878906,-0.0001696459949016571,0.0029669851064682007
1761402684712972800,7.022972900390625,-0.052039146423339844,-0.007056795060634613,0.0012809187173843384
1761402684733135600,7.043135498046875,-0.05188274383544922,-0.0024644434452056885,0.007548019289970398
1761402684753297700,7.063297607421875,-0.04761505126953125,-0.0032919608056545258,0.0036927014589309692
1761402684773435000,7.083434814453125,-0.04705524444580078,-0.000001173466444015503,0.0010075494647026062
1761402684793597400,7.103597412109375,-0.048697471618652344,-0.0020288079977035522,0.006346475332975388
1761402684813785000,7.12378515625,-0.04170703887939453,0.004862889647483826,0.0018630027770996094
1761402684833947400,7.143947509765625,-0.049195289611816406,0.004617329686880112,0.005760788917541504
1761402684854106400,7.1641064453125,-0.04819011688232422,-0.00003388524055480957,0.0035690441727638245
1761402684874253800,7.18425390625,-0.045960426330566406,0.0022050775587558746,0.005171008408069611
1761402684894435000,7.20443505859375,-0.04142189025878906,0.0032966993749141693,-0.000052541494369506836
1761402684914572300,7.224572265625,-0.040401458740234375,-0.001667797565460205,0.0035145729780197144
1761402684934760200,7.24476025390625,-0.050750732421875,0.0022968649864196777,0.00362280011177063
1761402684954922500,7.264922607421875,-0.05018043518066406,0.004311058670282364,-0.0012694448232650757
1761402684975084800,7.285084716796875,-0.05053520202636719,-0.0002885162830352783,0.0004029572010040283
1761402684995247400,7.305247314453125,-0.044074058532714844,0.0013796575367450714,0.007430188357830048
1761402685015409700,7.32540966796875,-0.04858970642089844,0.004170384258031845,0.0027668774127960205
1761402685035572500,7.345572509765625,-0.04489707946777344,-0.001330006867647171,0.0017268061637878418
1761402685055725600,7.3657255859375,-0.04757213592529297,-0.0016923919320106506,0.00019982457160949707
1761402685075897000,7.38589697265625,-0.052390098571777344,0.003129616379737854,0.0012597590684890747
1761402685096059400,7.406059326171875,-0.04654979705810547,-0.001061614602804184,0.0017804279923439026
1761402685116222700,7.42622265625,-0.04845714569091797,-0.005395270884037018,0.004475004971027374
1761402685136384800,7.446384765625,-0.050217628479003906,-0.002300497144460678,0.0035559162497520447
1761402685156547000,7.466547119140625,-0.04958820343017578,-0.0017977431416511536,0.004580274224281311
1761402685176710000,7.4867099609375,-0.05473041534423828,0.0029344484210014343,0.0025499388575553894
1761402685196831700,7.506831787109375,-0.048867225646972656,0.0023326650261878967,-0.001380734145641327
1761402685217034500,7.527034423828125,-0.044147491455078125,-0.006065305322408676,-0.00035556405782699585
1761402685237196800,7.54719677734375,-0.04511737823486328,-0.0007034726440906525,0.005084812641143799
1761402685257359400,7.567359375,-0.042801856994628906,0.0007069483399391174,0.0019495338201522827
1761402685277521700,7.587521728515625,-0.04512596130371094,0.0009050667285919189,0.0027214661240577698
1761402685297684500,7.6076845703125,-0.044452667236328125,-0.004068870097398758,-0.0028316304087638855
1761402685317846800,7.6278466796875,-0.04388236999511719,-0.0019308067858219147,0.0025576427578926086
1761402685337984000,7.64798388671875,-0.041321754455566406,-0.0037706568837165833,0.0036838725209236145
1761402685358169600,7.668169677734375,-0.04285144805908203,-0.0013260804116725922,0.00033479928970336914
1761402685378309600,7.6883095703125,-0.050212860107421875,-0.0059190839529037476,0.0033542439341545105
1761402685398496500,7.70849658203125,-0.04132270812988281,-0.003965169191360474,-0.00126657634973526
1761402685418634000,7.728634033203125,-0.04210376739501953,0.0021002888679504395,0.004012264311313629
1761402685438821600,7.748821533203125,-0.044106483459472656,0.0024986863136291504,-0.0007743909955024719
1761402685458958800,7.768958740234375,-0.047829627990722656,0.0015775375068187714,-0.0024355873465538025
1761402685479140400,7.789140380859375,-0.042296409606933594,-0.00412740558385849,0.0014549866318702698
1761402685499308800,7.809308837890625,-0.04871654510498047,-0.0025811083614826202,0.0031521469354629517
1761402685519471400,7.829471435546875,-0.04685497283935547,0.004323076456785202,0.00003451108932495117
1761402685539634000,7.849634033203125,-0.046271324157714844,0.0009511075913906097,-0.0008491575717926025
1761402685559792600,7.869792724609375,-0.04799842834472656,-0.006329767405986786,0.0037530511617660522
1761402685579959000,7.889958984375,-0.05498695373535156,0.0005631186068058014,0.004496753215789795
1761402685600121000,7.91012109375,-0.04890918731689453,-0.002808842808008194,0.004622623324394226
1761402685620280000,7.930280029296875,-0.050909996032714844,0.003008786588907242,0.003081098198890686
1761402685640446200,7.9504462890625,-0.04653167724609375,0.00853036716580391,0.007439814507961273
1761402685660609500,7.970609619140625,-0.042999267578125,0.0048283301293849945,0.00531584769487381
1761402685680750600,7.99075048828125,-0.04592609405517578,-0.0025614798069000244,0.0028300732374191284
1761402685700934100,8.01093408203125,-0.046576499938964844,0.0043045394122600555,-0.001026943325996399
1761402685721096000,8.031095947265625,-0.049353599548339844,-0.00019280984997749329,-0.000600770115852356
1761402685741258800,8.0512587890625,-0.04695320129394531,0.0017755255103111267,0.00543193519115448
1761402685761421300,8.07142138671875,-0.042357444763183594,-0.00006113946437835693,-0.00156470388174057
1761402685781583400,8.091583251953125,-0.04453468322753906,0.006502542644739151,0.007781229913234711
1761402685801721000,8.11172119140625,-0.03937721252441406,-0.0002937428653240204,0.0013459250330924988
1761402685821908200,8.131908203125,-0.040581703186035156,-0.003717038780450821,0.0022259950637817383
1761402685842071600,8.152071533203125,-0.042633056640625,0.004375103861093521,-0.0005364716053009033
1761402685862227200,8.172227294921875,-0.046761512756347656,0.003395598381757736,0.001043066382408142
1761402685882392600,8.192392578125,-0.04907417297363281,0.006003621965646744,0.005439773201942444
1761402685902558500,8.212558349609376,-0.045952796936035156,-0.0013161003589630127,0.0022151395678520203
1761402685922720800,8.232720703125,-0.04219245910644531,-0.0030336081981658936,0.0021952837705612183
1761402685942879000,8.25287890625,-0.045973777770996094,0.005069013684988022,0.004252016544342041
1761402685963045600,8.273045654296874,-0.042995452880859375,-0.0008989833295345306,0.00026410073041915894
1761402685983208000,8.2932080078125,-0.04918861389160156,0.003756862133741379,0.0009751617908477783
1761402686003366700,8.31336669921875,-0.04302215576171875,-0.0003514699637889862,0.003915995359420776
1761402686023532800,8.33353271484375,-0.041855812072753906,0.0011972859501838684,0.003266632556915283
1761402686043695600,8.353695556640625,-0.044106483459472656,0.0022003725171089172,0.005216538906097412
1761402686063858000,8.37385791015625,-0.04006195068359375,-0.0028340332210063934,-0.0050305649638175964
1761402686084020200,8.394020263671875,-0.0487060546875,-0.0006861202418804169,0.002945743501186371
1761402686104182800,8.414182861328126,-0.046154022216796875,-0.0023707300424575806,-0.003316730260848999
1761402686124345300,8.434345458984374,-0.04428291320800781,0.0021067075431346893,0.002336934208869934
1761402686144508000,8.4545078125,-0.046154022216796875,-0.0020811893045902252,0.0033032074570655823
1761402686164670000,8.474669921875,-0.04992198944091797,-0.00047653913497924805,0.0041307732462882996
1761402686184832500,8.49483251953125,-0.046860694885253906,0.0007965080440044403,0.007523205131292343
1761402686204992300,8.5149921875,-0.047102928161621094,0.0032071582973003387,0.0028325840830802917
1761402686225157600,8.53515771484375,-0.041294097900390625,0.005693912506103516,0.003136470913887024
1761402686245337900,8.555337890625,-0.05061531066894531,0.002467334270477295,-0.0013618841767311096
1761402686265483000,8.57548291015625,-0.05009937286376953,-0.0009661875665187836,0.0030881017446517944
1761402686285645800,8.595645751953125,-0.04355049133300781,-0.0008425898849964142,-0.0027772709727287292
1761402686305807400,8.615807373046875,-0.04444122314453125,0.001478627324104309,0.00353027880191803
1761402686325970400,8.635970458984374,-0.04698657989501953,0.00019638612866401672,0.00001627206802368164
1761402686346132200,8.65613232421875,-0.04143714904785156,-0.0017776787281036377,0.004747360944747925
1761402686366257200,8.676257080078125,-0.04639911651611328,0.004451077431440353,0.004037134349346161
1761402686386458000,8.6964580078125,-0.043819427490234375,0.008369475603103638,0.00468667596578598
1761402686406619600,8.71661962890625,-0.04632759094238281,-0.0012057460844516754,0.0012673065066337585
1761402686426782200,8.7367822265625,-0.04058647155761719,-0.0036515630781650543,-0.0034378021955490112
1761402686446945500,8.756945556640625,-0.0460052490234375,-0.0027289502322673798,0.008168477565050125
1761402686467107600,8.777107666015626,-0.04538726806640625,-0.0018049515783786774,0.002869158983230591
1761402686487244500,8.79724462890625,-0.04481315612792969,0.0023719780147075653,-0.0005749985575675964
1761402686507432200,8.81743212890625,-0.04587745666503906,0.0036704987287521362,0.005174756050109863
1761402686527595500,8.837595458984374,-0.048247337341308594,0.0009400583803653717,0.0008297190070152283
1761402686547757800,8.8577578125,-0.03950691223144531,0.0038433000445365906,0.003459066152572632
1761402686567894000,8.87789404296875,-0.045444488525390625,-0.005433715879917145,0.006431892514228821
1761402686588078300,8.898078369140626,-0.042672157287597656,0.0067756399512290955,-0.0010970309376716614
1761402686608219100,8.91821923828125,-0.04467964172363281,-0.001490183174610138,0.0019645169377326965
1761402686628384800,8.938384765625,-0.05025291442871094,-0.0012502819299697876,0.0032530128955841064
1761402686648544000,8.9585439453125,-0.04885673522949219,0.00388910248875618,0.005018770694732666
1761402686668732400,8.978732421875,-0.04606056213378906,0.005585271865129471,0.004067160189151764
1761402686688894700,8.998894775390625,-0.038826942443847656,-0.003645222634077072,0.004799380898475647
1761402686709052700,9.019052734375,-0.05084514617919922,0.00027726590633392334,0.0005203336477279663
1761402686729219300,9.03921923828125,-0.047707557678222656,0.0012388154864311218,0.0023857131600379944
1761402686749381600,9.059381591796875,-0.04514884948730469,0.003200884908437729,0.006878994405269623
1761402686769540000,9.0795400390625,-0.047149658203125,0.0035031065344810486,-0.0029965341091156006
1761402686789706500,9.09970654296875,-0.04644966125488281,-0.0016219541430473328,0.0046062171459198
1761402686809869000,9.119869140625,-0.05516242980957031,-0.001615229994058609,0.0014403089880943298
1761402686830031400,9.14003125,-0.04155158996582031,-0.0016768015921115875,0.0038268566131591797
1761402686850194200,9.160194091796875,-0.043868064880371094,-0.00303596630692482,0.006044566631317139
1761402686870346800,9.1803466796875,-0.037690162658691406,-0.0005126893520355225,0.005149431526660919
1761402686890519000,9.20051904296875,-0.041556358337402344,0.004115451127290726,-0.0006128177046775818
1761402686910681300,9.220681396484375,-0.04674720764160156,0.0037841126322746277,-0.00020665675401687622
1761402686930844000,9.240843994140626,-0.04641532897949219,0.002135124057531357,0.006785795092582703
1761402686951006200,9.261006103515625,-0.04826068878173828,-0.0006818100810050964,-0.0006724074482917786
1761402686971169000,9.2811689453125,-0.05159282684326172,0.00021117553114891052,0.007325034588575363
1761402686991329000,9.3013291015625,-0.05226707458496094,-0.0010584071278572083,0.004875414073467255
1761402687011483000,9.32148291015625,-0.04752159118652344,-0.00047135353088378906,-0.0016550347208976746
1761402687031652000,9.341652099609375,-0.04889106750488281,-0.005546219646930695,0.0047980546951293945
1761402687051818500,9.361818603515625,-0.045215606689453125,-0.0025076158344745636,0.0016320571303367615
1761402687071981600,9.381981689453125,-0.036635398864746094,-0.0005256235599517822,0.0024436190724372864
1761402687092139500,9.402139404296875,-0.048239707946777344,0.0029830262064933777,0.0018570050597190857
1761402687112306000,9.422305908203125,-0.040920257568359375,-0.00035985931754112244,-0.0016676634550094604
1761402687132468200,9.44246826171875,-0.04450035095214844,0.005476698279380798,0.0019011422991752625
1761402687152631000,9.462631103515625,-0.043457984924316406,0.00186987966299057,0.007263127714395523
1761402687172792300,9.482792236328125,-0.04340934753417969,0.0013698488473892212,-0.0005130842328071594
1761402687192930600,9.5029306640625,-0.04833507537841797,-0.0009839385747909546,0.0038557127118110657
1761402687213118200,9.5231181640625,-0.045477867126464844,0.001624956727027893,0.0008291229605674744
1761402687233255700,9.543255615234376,-0.04776573181152344,0.00025561824440956116,0.0005762279033660889
1761402687253442800,9.56344287109375,-0.046718597412109375,0.0016968846321105957,0.004090055823326111
1761402687273605400,9.58360546875,-0.045749664306640625,0.0021753646433353424,0.004288278520107269
1761402687293768200,9.603768310546876,-0.0430450439453125,0.0019066371023654938,0.004997275769710541
1761402687313930200,9.62393017578125,-0.038651466369628906,0.00047217682003974915,0.005514569580554962
1761402687334067500,9.6440673828125,-0.047451019287109375,-0.0018559619784355164,0.002277873456478119
1761402687354251500,9.66425146484375,-0.044783592224121094,0.0028721392154693604,-0.004894189536571503
1761402687374418000,9.68441796875,-0.040912628173828125,0.008687809109687805,-0.0008064135909080505
1761402687394580500,9.70458056640625,-0.04560279846191406,0.0015225596725940704,0.000921003520488739
1761402687414743000,9.724742919921875,-0.04839515686035156,0.0008933320641517639,-0.003547467291355133
1761402687434905000,9.744905029296875,-0.041202545166015625,-0.000023417174816131592,-0.006996922194957733
1761402687455046100,9.765046142578125,-0.043601036071777344,-0.0022139661014080048,0.00523877888917923
1761402687475230200,9.785230224609375,-0.043735504150390625,0.003251008689403534,0.00466175377368927
1761402687495392500,9.805392578125,-0.04068565368652344,-0.006984639912843704,0.0026443153619766235
1761402687515555000,9.82555517578125,-0.04252433776855469,0.0017952099442481995,0.004440762102603912
1761402687535693300,9.845693359375,-0.04881000518798828,0.0001124553382396698,0.004147127270698547
1761402687555880200,9.865880126953124,-0.04047584533691406,-0.0026699043810367584,0.0002961158752441406
1761402687576042200,9.886042236328125,-0.042931556701660156,0.004437107592821121,0.0028128772974014282
1761402687596205000,9.906205078125,-0.05585479736328125,-0.0034500136971473694,-0.0002936720848083496
1761402687616367400,9.926367431640625,-0.054024696350097656,-0.001737702637910843,0.002240404486656189
1761402687636530000,9.946530029296875,-0.045577049255371094,0.0039029717445373535,0.00020700693130493164
1761402687656692200,9.966692138671876,-0.04369068145751953,-0.0029001906514167786,0.0014995783567428589
1761402687676855300,9.986855224609375,-0.042181968688964844,-0.0011861436069011688,0.0025659576058387756
1761402687697017300,10.007017333984376,-0.05379295349121094,-0.0021073147654533386,0.005335107445716858
1761402687717154800,10.02715478515625,-0.05267810821533203,-0.00007516145706176758,0.0022046715021133423
1761402687737342200,10.04734228515625,-0.05210113525390625,0.0015174634754657745,0.0019511580467224121
1761402687757504500,10.06750439453125,-0.04812335968017578,-0.0020232945680618286,0.0016436055302619934
1761402687777667300,10.087667236328125,-0.04651451110839844,-0.0019932426512241364,-0.000993676483631134
1761402687797829400,10.107829345703125,-0.04452991485595703,0.0020439736545085907,0.00002454221248626709
1761402687817992400,10.127992431640624,-0.04812431335449219,0.0073979198932647705,-0.0007465332746505737
1761402687838150400,10.148150390625,-0.037354469299316406,0.004967011511325836,-0.001998007297515869
1761402687858288400,10.168288330078125,-0.05222797393798828,0.0004752315580844879,0.0012362897396087646
1761402687878476800,10.188476806640624,-0.05176734924316406,0.0016438141465187073,-0.0035863667726516724
1761402687898641700,10.2086416015625,-0.044259071350097656,0.0016436614096164703,0.00014214962720870972
1761402687918800100,10.228800048828125,-0.03815460205078125,-0.0020714029669761658,0.007506035268306732
1761402687938966500,10.248966552734375,-0.048621177673339844,0.002398066222667694,-0.0020834803581237793
1761402687959129000,10.269129150390626,-0.045411109924316406,-0.00020804628729820251,0.003484472632408142
1761402687979292200,10.289292236328125,-0.04429340362548828,-0.003173351287841797,0.00023981183767318726
1761402687999454000,10.309453857421875,-0.04577827453613281,-0.0024245716631412506,0.002242274582386017
1761402688019616500,10.329616455078124,-0.04137897491455078,-0.00037499144673347473,0.00214318186044693
1761402688039753700,10.349753662109375,-0.049404144287109375,0.002542659640312195,0.005452573299407959
1761402688059942000,10.36994189453125,-0.04770469665527344,-0.003570050001144409,0.00514095276594162
1761402688080104200,10.390104248046875,-0.044097900390625,0.004397813230752945,-0.001986853778362274
1761402688100248000,10.410248046875,-0.047369956970214844,0.000013552606105804443,-0.0031840652227401733
1761402688120424700,10.4304248046875,-0.04782676696777344,-0.005875036120414734,-0.0001775100827217102
1761402688140591400,10.45059130859375,-0.049088478088378906,-0.0017096661031246185,0.00672246515750885
1761402688160754200,10.470754150390626,-0.038666725158691406,0.0031769052147865295,0.0017703995108604431
1761402688180913000,10.490912841796876,-0.04164886474609375,0.001260027289390564,0.009149868041276932
1761402688201079000,10.5110791015625,-0.04367351531982422,0.006186641752719879,-0.0005109012126922607
1761402688221241000,10.531240966796876,-0.04431915283203125,0.0017099417746067047,0.006982944905757904
1761402688241399600,10.551399658203126,-0.045012474060058594,-0.00109168142080307,0.000022582709789276123
1761402688261566200,10.571566162109375,-0.044129371643066406,0.0017322227358818054,0.0029390156269073486
1761402688281724000,10.591723876953125,-0.04799652099609375,0.0003383457660675049,0.0009570419788360596
1761402688301890800,10.611890869140625,-0.04960060119628906,-0.0018625184893608093,-0.0002444535493850708
1761402688322039800,10.632039794921875,-0.04501152038574219,0.0018877647817134857,-0.0002884715795516968
1761402688342222800,10.652222900390624,-0.04808616638183594,0.0010665468871593475,0.0014162883162498474
1761402688362378200,10.672378173828125,-0.04710674285888672,-0.0020468831062316895,0.0007417500019073486
1761402688382541300,10.692541259765624,-0.042083740234375,0.005255702883005142,0.0005074068903923035
1761402688402711000,10.7127109375,-0.04162311553955078,-0.002914849668741226,-0.0024784505367279053
1761402688422865700,10.73286572265625,-0.04368782043457031,-0.0027710050344467163,0.0017984360456466675
1761402688443024000,10.75302392578125,-0.0385589599609375,0.0008665136992931366,-0.0003669038414955139
1761402688463190500,10.7731904296875,-0.03867530822753906,-0.0038777291774749756,0.0011837780475616455
1761402688483353600,10.793353515625,-0.05007457733154297,0.00019893422722816467,0.005678713321685791
1761402688503511800,10.81351171875,-0.047713279724121094,0.0021506398916244507,0.0024377256631851196
1761402688523678000,10.833677978515626,-0.04803943634033203,0.0030435435473918915,-0.00013469159603118896
1761402688543840500,10.853840576171875,-0.04532814025878906,-0.002274017781019211,0.0017308145761489868
1761402688563999000,10.8739990234375,-0.04994010925292969,0.0020269230008125305,0.0033849626779556274
1761402688584166000,10.894165771484374,-0.050689697265625,0.0016251318156719208,0.00036401301622390747
1761402688604327700,10.91432763671875,-0.04876422882080078,0.0027783364057540894,-0.003799155354499817
1761402688624464100,10.934464111328126,-0.049971580505371094,-0.003842223435640335,-0.0023497045040130615
1761402688644652500,10.954652587890624,-0.04579448699951172,0.0015305131673812866,0.0025437921285629272
1761402688664789500,10.97478955078125,-0.04431629180908203,0.0008096061646938324,0.0018260255455970764
1761402688684978200,10.994978271484374,-0.04207897186279297,-0.006065107882022858,-0.0007560327649116516
1761402688705112300,11.0151123046875,-0.04771232604980469,-0.0013315863907337189,-0.004450589418411255
1761402688725303300,11.03530322265625,-0.05128192901611328,0.0009827278554439545,-0.004617832601070404
1761402688745464300,11.05546435546875,-0.04734230041503906,-0.0028285346925258636,0.0013221874833106995
1761402688765601800,11.075601806640625,-0.03847217559814453,-0.00002522394061088562,-0.00194462388753891
1761402688785789700,11.095789794921876,-0.048679351806640625,0.006910640746355057,0.00028914958238601685
1761402688805952300,11.1159521484375,-0.04840087890625,0.0036492422223091125,0.00024218857288360596
1761402688826114600,11.136114501953125,-0.04861259460449219,-0.0006997250020503998,-0.0019492879509925842
1761402688846278000,11.15627783203125,-0.045464515686035156,-0.004723314195871353,-0.0009810030460357666
1761402688866440000,11.17643994140625,-0.04728507995605469,-0.0010433942079544067,0.002994850277900696
1761402688886602800,11.196602783203126,-0.043801307678222656,0.001030411571264267,-0.0008375868201255798
1761402688906765000,11.21676513671875,-0.043547630310058594,0.0028808005154132843,0.0011737272143363953
1761402688926926800,11.2369267578125,-0.039313316345214844,0.0016150213778018951,-0.0036168619990348816
1761402688947089400,11.25708935546875,-0.04535484313964844,-0.004399038851261139,-0.000040024518966674805
1761402688967252000,11.277251953125,-0.05179119110107422,0.002299059182405472,-0.0022842884063720703
1761402688987414300,11.297414306640626,-0.043595314025878906,-0.0024585016071796417,-0.0008233487606048584
1761402689007576800,11.317576904296875,-0.04503345489501953,-0.0008657500147819519,0.0038737952709198
1761402689027725600,11.3377255859375,-0.04996967315673828,0.004506632685661316,0.000058457255363464355
1761402689047902000,11.35790185546875,-0.04588890075683594,0.0019700229167938232,-0.0005890205502510071
1761402689068060000,11.378059814453126,-0.049202919006347656,-0.0028548501431941986,0.0019356459379196167
1761402689088224500,11.398224609375,-0.04860877990722656,0.001768689602613449,-0.0012585371732711792
1761402689108364000,11.418364013671875,-0.046614646911621094,0.00034875422716140747,-0.0020116716623306274
1761402689128551400,11.438551513671875,-0.052161216735839844,0.004777517169713974,0.0070365071296691895
1761402689148689000,11.45868896484375,-0.048026084899902344,0.0012214705348014832,0.004809483885765076
1761402689168876800,11.478876708984375,-0.0460662841796875,-0.0023422539234161377,0.00397462397813797
1761402689189038800,11.499038818359375,-0.043326377868652344,-0.002093743532896042,0.006246030330657959
1761402689209202000,11.519201904296875,-0.04668998718261719,-0.0032082311809062958,0.0055093467235565186
1761402689229364200,11.5393642578125,-0.052700042724609375,-0.004197761416435242,-0.0021460577845573425
1761402689249526800,11.55952685546875,-0.05140495300292969,-0.0008845999836921692,-0.00007329881191253662
1761402689269684200,11.579684326171876,-0.049839019775390625,-0.0018647164106369019,-0.0018165409564971924
1761402689289851100,11.59985107421875,-0.04816722869873047,0.00014650821685791016,0.0019365474581718445
1761402689310013700,11.620013671875,-0.048614501953125,-0.0007492564618587494,-0.000041581690311431885
1761402689330192100,11.640192138671875,-0.04333972930908203,0.0008178241550922394,0.002596154808998108
1761402689350338800,11.6603388671875,-0.038222312927246094,0.001764252781867981,-0.0033288076519966125
1761402689370500900,11.6805009765625,-0.03990364074707031,0.0018018819391727448,0.0011344552040100098
1761402689390663700,11.70066357421875,-0.04219245910644531,0.0027280598878860474,-0.0006584599614143372
1761402689410825700,11.72082568359375,-0.048111915588378906,0.0029724277555942535,0.00021757930517196655
1761402689430988500,11.740988525390625,-0.0462493896484375,-0.0007877126336097717,0.000642821192741394
1761402689451150800,11.76115087890625,-0.045711517333984375,0.0032114163041114807,0.003680713474750519
1761402689471313400,11.7813134765625,-0.05380821228027344,0.002686731517314911,-0.0031455084681510925
1761402689491475500,11.801475341796875,-0.047664642333984375,0.003828287124633789,-0.0017606541514396667
1761402689511638000,11.821637939453124,-0.03898334503173828,0.0027161240577697754,0.0002952590584754944
1761402689531800300,11.84180029296875,-0.046108245849609375,-0.0002375766634941101,0.0008439570665359497
1761402689551963100,11.861963134765626,-0.052771568298339844,0.001659095287322998,0.004191920161247253
1761402689572125400,11.88212548828125,-0.04938507080078125,-0.0017520412802696228,0.00007525086402893066
1761402689592283600,11.90228369140625,-0.047504425048828125,0.0016524530947208405,-0.0049135759472846985
1761402689612420600,11.922420654296875,-0.04106330871582031,-0.0026504844427108765,0.004782073199748993
1761402689632612900,11.94261279296875,-0.049716949462890625,-0.009951036423444748,0.003294341266155243
1761402689652771300,11.962771240234375,-0.044724464416503906,-0.0009135864675045013,0.005126297473907471
1761402689672937700,11.982937744140624,-0.04516887664794922,0.00036618858575820923,-0.0012402310967445374
1761402689693100300,12.003100341796875,-0.040068626403808594,0.0007926896214485168,0.0025075674057006836
1761402689713262800,12.023262939453126,-0.04266643524169922,-0.002696990966796875,0.002876073122024536
1761402689733431300,12.043431396484374,-0.041312217712402344,0.0027782246470451355,0.0011223778128623962
1761402689753587700,12.063587646484375,-0.047794342041015625,0.001554049551486969,0.003021031618118286
1761402689773750000,12.08375,-0.04370594024658203,0.0004989355802536011,0.0029769688844680786
1761402689793911600,12.10391162109375,-0.047501564025878906,-0.0001760348677635193,0.004907861351966858
1761402689814075000,12.124074951171876,-0.045395851135253906,0.00009796023368835449,0.0030448660254478455
1761402689834237200,12.1442373046875,-0.04721832275390625,0.0011263974010944366,0.005682684481143951
1761402689854377200,12.164377197265624,-0.050950050354003906,-0.004499770700931549,0.004911370575428009
1761402689874562000,12.18456201171875,-0.04514598846435547,-0.0017715953290462494,0.003897443413734436
1761402689894724900,12.204724853515625,-0.04900074005126953,-0.0033554434776306152,0.0028739795088768005
1761402689914887700,12.2248876953125,-0.050841331481933594,-0.0004781186580657959,0.0015755444765090942
1761402689935049700,12.2450498046875,-0.05195808410644531,0.000390470027923584,0.005955040454864502
1761402689955212300,12.26521240234375,-0.04929924011230469,-0.0010511167347431183,0.0033142194151878357
1761402689975375000,12.285375,-0.048384666442871094,-0.0032191239297389984,0.0015779584646224976
1761402689995525600,12.305525634765624,-0.046802520751953125,0.0060057491064071655,0.006279058754444122
1761402690015699500,12.325699462890626,-0.04611015319824219,0.0058593228459358215,-0.0029002130031585693
1761402690035862000,12.345862060546875,-0.047454833984375,-0.0022084414958953857,0.0004756748676300049
1761402690056024600,12.366024658203125,-0.0452423095703125,-0.0012833960354328156,-0.0004350617527961731
1761402690076187000,12.386186767578126,-0.047270774841308594,0.0026832260191440582,-0.0045022666454315186
1761402690096349200,12.40634912109375,-0.0498199462890625,-0.004945229738950729,0.005592145025730133
1761402690116511700,12.42651171875,-0.048750877380371094,0.003121800720691681,0.0034539327025413513
1761402690136648700,12.446648681640625,-0.0475311279296875,0.0012534484267234802,0.009989872574806213
1761402690156836600,12.466836669921875,-0.05199432373046875,-0.0015363730490207672,0.004788003861904144
1761402690176999200,12.486999267578126,-0.05077838897705078,0.0026474110782146454,-0.001810707151889801
1761402690197161700,12.50716162109375,-0.04850196838378906,0.001384090632200241,0.004892989993095398
1761402690217323800,12.52732373046875,-0.042702674865722656,-0.0035500936210155487,0.002750396728515625
1761402690237486300,12.547486328125,-0.04619312286376953,0.0034125931560993195,0.004867449402809143
1761402690257649000,12.56764892578125,-0.045599937438964844,0.001926816999912262,0.0011708736419677734
1761402690277795800,12.5877958984375,-0.04656982421875,0.0006418973207473755,-0.0003805682063102722
1761402690297961500,12.60796142578125,-0.04718303680419922,0.007349550724029541,-0.004423759877681732
1761402690318133000,12.628133056640625,-0.04552268981933594,0.003282882273197174,-0.0014139562845230103
1761402690338298600,12.648298583984374,-0.05091094970703125,0.001249559223651886,-0.0007641538977622986
1761402690358456800,12.668456787109376,-0.047332763671875,0.0026144646108150482,0.0029832497239112854
1761402690378623700,12.688623779296876,-0.04456043243408203,0.00044064968824386597,0.003743566572666168
1761402690398786000,12.7087861328125,-0.04889678955078125,-0.004053860902786255,0.0020705386996269226
1761402690418944500,12.728944580078124,-0.051685333251953125,0.004813436418771744,0.005361631512641907
1761402690439110700,12.749110595703126,-0.049022674560546875,0.002544030547142029,0.0069108083844184875
1761402690459273500,12.7692734375,-0.051609039306640625,-0.0012017302215099335,0.004450589418411255
1761402690479436500,12.7894365234375,-0.04644775390625,-0.0008408427238464355,0.0026536956429481506
1761402690499572700,12.80957275390625,-0.04728507995605469,-0.0018934272229671478,0.0038442090153694153
1761402690519761000,12.829760986328125,-0.04194355010986328,-0.002251081168651581,0.001629076898097992
1761402690539923200,12.849923095703126,-0.04760265350341797,-0.0013870671391487122,0.003038369119167328
1761402690560085800,12.870085693359375,-0.0457000732421875,0.003436140716075897,0.002095624804496765
1761402690580248600,12.89024853515625,-0.047995567321777344,0.007953595370054245,0.005219154059886932
1761402690600411000,12.910410888671874,-0.04265594482421875,-0.0010787136852741241,-0.0022958964109420776
1761402690620592000,12.930592041015625,-0.04843616485595703,0.0014944113790988922,-0.0012871474027633667
1761402690660898000,12.97089794921875,-0.04320526123046875,-0.0006983093917369843,0.0033070892095565796
1761402690681057300,12.991057373046875,-0.04239463806152344,0.0055192820727825165,-0.0014184266328811646
1761402690701223000,13.011222900390624,-0.045311927795410156,0.0019034110009670258,-0.0004927664995193481
1761402690721385200,13.03138525390625,-0.03989219665527344,0.004979632794857025,0.0050423890352249146
1761402690741543700,13.051543701171875,-0.0377349853515625,0.0028958506882190704,0.005854599177837372
1761402690761695700,13.07169580078125,-0.041924476623535156,0.0014143064618110657,0.002349838614463806
1761402690781852200,13.09185205078125,-0.04088592529296875,0.004157699644565582,0.0011746734380722046
1761402690802031000,13.112031005859375,-0.0395050048828125,0.0015365146100521088,0.003278307616710663
1761402690822197500,13.132197509765625,-0.04822349548339844,0.001121528446674347,0.003018006682395935
1761402690842359800,13.15235986328125,-0.05166149139404297,-0.00032018497586250305,0.0003350600600242615
1761402690862522400,13.1725224609375,-0.05313301086425781,0.004721473902463913,0.0020942240953445435
1761402690882685400,13.192685546875,-0.05786418914794922,0.00010411813855171204,0.0009889230132102966
1761402690902847200,13.21284716796875,-0.049347877502441406,0.003349781036376953,0.007643736898899078
1761402690923009500,13.233009521484375,-0.04681587219238281,0.0020126476883888245,0.004473410546779633
1761402690943172000,13.253172119140626,-0.050553321838378906,0.0035590268671512604,0.002041250467300415
1761402690963334700,13.273334716796874,-0.05055809020996094,-0.0008143633604049683,0.00005430728197097778
1761402690983497700,13.293497802734375,-0.04870033264160156,0.0028740912675857544,0.009045995771884918
1761402691003655400,13.313655517578125,-0.04259777069091797,0.0005438178777694702,0.004827819764614105
1761402691023822300,13.333822265625,-0.04734230041503906,0.0007785297930240631,0.009568259119987488
1761402691043985000,13.35398486328125,-0.04845428466796875,0.0030944906175136566,0.0005924999713897705
1761402691064144000,13.374143798828126,-0.04326057434082031,0.0022319145500659943,0.001957312226295471
1761402691084309000,13.39430908203125,-0.043121337890625,-0.002137109637260437,0.003335528075695038
1761402691104471600,13.414471435546876,-0.0401763916015625,-0.0023290887475013733,0.0019442588090896606
1761402691124634600,13.434634521484375,-0.03823661804199219,0.0009461529552936554,-0.0009887441992759705
1761402691144766000,13.454765869140624,-0.05015754699707031,0.0003613568842411041,-0.0026152878999710083
1761402691164958500,13.47495849609375,-0.03986167907714844,-0.0020380988717079163,0.0013052523136138916
1761402691185122000,13.4951220703125,-0.045395851135253906,-0.0023988597095012665,0.000010609626770019531
1761402691205283800,13.515283935546876,-0.042263031005859375,0.001143570989370346,0.009671702980995178
1761402691225446100,13.535446044921875,-0.04548072814941406,0.0059238336980342865,-0.0021485909819602966
1761402691245608700,13.555608642578125,-0.05196666717529297,-0.0026538632810115814,-0.000865548849105835
1761402691265771300,13.575771240234374,-0.04809379577636719,-0.006322480738162994,-0.002616003155708313
1761402691285933800,13.595933837890625,-0.04768657684326172,-0.0014742575585842133,0.0031774044036865234
1761402691306071000,13.616071044921876,-0.04461860656738281,0.001109931617975235,0.0056518688797950745
1761402691326233600,13.636233642578125,-0.04539299011230469,-0.0038899630308151245,0.00006945431232452393
1761402691346421000,13.6564208984375,-0.046759605407714844,-0.0023002102971076965,0.006520397961139679
1761402691366583600,13.67658349609375,-0.05250263214111328,0.005715746432542801,0.00038927048444747925
1761402691386737400,13.6967373046875,-0.0463409423828125,0.001062501221895218,0.004270486533641815
1761402691406883000,13.716883056640626,-0.04776477813720703,-0.00289217010140419,0.004518128931522369
1761402691427071000,13.737071044921874,-0.041759490966796875,-0.0003386363387107849,0.004209592938423157
1761402691447233800,13.75723388671875,-0.04060935974121094,-0.00012042000889778137,0.003203369677066803
1761402691467395600,13.7773955078125,-0.05010223388671875,0.0037812888622283936,-0.0012908652424812317
1761402691487558400,13.797558349609375,-0.04693603515625,-0.0037519410252571106,0.005797460675239563
1761402691507720700,13.817720703125,-0.04842376708984375,-0.0027535483241081238,0.005896970629692078
1761402691527883000,13.837883056640624,-0.04503631591796875,0.0013323985040187836,0.005886197090148926
1761402691548015400,13.858015380859374,-0.04311561584472656,0.00717531144618988,0.0008868053555488586
1761402691568182800,13.878182861328124,-0.052603721618652344,0.004464499652385712,-0.0002939477562904358
1761402691588345900,13.898345947265625,-0.04421710968017578,0.0020851828157901764,0.00022199004888534546
1761402691608532700,13.91853271484375,-0.045963287353515625,-0.0022749900817871094,-0.0025966614484786987
1761402691628697600,13.938697509765625,-0.046329498291015625,0.0023894868791103363,0.0016088932752609253
1761402691648857900,13.95885791015625,-0.04358673095703125,-0.0015934593975543976,0.0033325403928756714
1761402691669020200,13.979020263671876,-0.04155254364013672,0.002251710742712021,0.0030539557337760925
1761402691689161700,13.99916162109375,-0.04413414001464844,0.00033322349190711975,0.0008829012513160706
1761402691709324500,14.019324462890625,-0.049468040466308594,0.0016771666705608368,0.0020931661128997803
1761402691729507600,14.039507568359374,-0.049864768981933594,-0.0015571266412734985,0.004471898078918457
1761402691749670100,14.059670166015625,-0.044981956481933594,0.002552475780248642,0.00042724609375
1761402691769832700,14.079832763671876,-0.05074119567871094,0.002220258116722107,-0.0021910518407821655
1761402691789995000,14.0999951171875,-0.04974079132080078,0.0006175339221954346,-0.0005179047584533691
1761402691810157300,14.1201572265625,-0.04476737976074219,0.0025864392518997192,-0.002785012125968933
1761402691830295600,14.140295654296875,-0.04175567626953125,-0.0028289295732975006,-0.0009022578597068787
1761402691850482200,14.160482177734375,-0.050045013427734375,-0.0038400031626224518,0.004439711570739746
1761402691870645000,14.18064501953125,-0.04780864715576172,0.0009186603128910065,0.004955500364303589
1761402691890803200,14.20080322265625,-0.044350624084472656,-0.004291549324989319,0.004638843238353729
1761402691910969600,14.220969482421875,-0.04720592498779297,-0.0025130845606327057,-0.0008780732750892639
1761402691931132200,14.241132080078126,-0.05318164825439453,-0.001840885728597641,0.002579621970653534
1761402691951269000,14.26126904296875,-0.048438072204589844,0.0024785473942756653,0.004687674343585968
1761402691971456800,14.281456787109375,-0.04970836639404297,0.0008129924535751343,0.005805492401123047
1761402691991619300,14.301619384765624,-0.045844078063964844,0.001976512372493744,0.0030263662338256836
1761402692011781600,14.32178173828125,-0.05214691162109375,0.000467054545879364,0.005815856158733368
1761402692031944200,14.341944091796876,-0.04106712341308594,-0.0034767724573612213,0.002327337861061096
1761402692052107300,14.362107177734375,-0.042713165283203125,-0.004500530660152435,0.0030860230326652527
1761402692072249600,14.38224951171875,-0.04976940155029297,0.0009442195296287537,0.0017202794551849365
1761402692092388000,14.40238818359375,-0.043486595153808594,-0.002555862069129944,0.004833675920963287
1761402692112594000,14.422593994140625,-0.042263031005859375,-0.0028146617114543915,0.002130940556526184
1761402692132756500,14.442756591796876,-0.04670429229736328,0.006757091730833054,-0.0008795633912086487
1761402692152914400,14.46291455078125,-0.03916740417480469,-0.00291341170668602,0.0010678619146347046
1761402692173081600,14.48308154296875,-0.041930198669433594,-0.000842217355966568,-0.0017439424991607666
1761402692193235000,14.50323486328125,-0.04643726348876953,-0.001828990876674652,0.0008325949311256409
1761402692213381000,14.523381103515625,-0.046975135803222656,0.0009581670165061951,0.006540730595588684
1761402692233568500,14.543568603515626,-0.04675865173339844,-0.0001668594777584076,0.003764413297176361
1761402692253731000,14.56373095703125,-0.04880046844482422,0.0030346252024173737,0.001217864453792572
1761402692273868300,14.583868408203125,-0.04346942901611328,-0.00018724799156188965,0.0018124058842658997
1761402692294056400,14.604056396484374,-0.046149253845214844,0.0021544620394706726,0.0019461959600448608
1761402692314219000,14.624218994140625,-0.05202198028564453,-0.008679471909999847,0.004495173692703247
1761402692334363100,14.644363037109375,-0.04476165771484375,0.004352618008852005,0.0009577721357345581
1761402692354543900,14.6645439453125,-0.044541358947753906,0.0005736574530601501,0.00543241947889328
1761402692374706400,14.68470654296875,-0.04638862609863281,-0.0018157027661800385,0.002372242510318756
1761402692394843000,14.7048427734375,-0.04780769348144531,-0.0067570023238658905,0.0013144686818122864
1761402692415030800,14.72503076171875,-0.04741954803466797,-0.0018130354583263397,-0.0021349266171455383
1761402692435193600,14.745193603515625,-0.04613208770751953,-0.002976018935441971,0.0017279833555221558
1761402692455356200,14.765356201171874,-0.04943275451660156,-0.0021950379014015198,-0.00037980079650878906
1761402692475511000,14.785510986328125,-0.05484485626220703,-0.0005120299756526947,0.0032150596380233765
1761402692495680300,14.80568017578125,-0.05050086975097656,-0.001971222460269928,0.007120780646800995
1761402692515843000,14.825843017578125,-0.046131134033203125,-0.0011892467737197876,0.0016373693943023682
1761402692536006000,14.846005859375,-0.04988384246826172,-0.003972209990024567,0.004405416548252106
1761402692556167700,14.866167724609374,-0.044823646545410156,-0.0016016364097595215,0.006333939731121063
1761402692576330500,14.88633056640625,-0.04352283477783203,-0.0016348809003829956,0.008966848254203796
1761402692596492500,14.906492431640626,-0.03911781311035156,-0.0017715319991111755,0.006042979657649994
1761402692616655000,14.926655029296874,-0.045563697814941406,-0.00024023652076721191,0.0014301463961601257
1761402692636807700,14.9468076171875,-0.04165172576904297,-0.0007992126047611237,0.002723217010498047
1761402692656980200,14.966980224609374,-0.041892051696777344,0.002137850970029831,-0.003914229571819305
1761402692677142800,14.987142822265625,-0.04685401916503906,-0.0012090615928173065,0.003228135406970978
1761402692697304800,15.007304931640626,-0.04878520965576172,0.0011475756764411926,0.0021832212805747986
1761402692717467400,15.02746728515625,-0.04915809631347656,-0.0028570033609867096,-0.001047663390636444
1761402692737630000,15.0476298828125,-0.04669475555419922,0.0014872625470161438,-0.0009618997573852539
1761402692757792300,15.067792236328126,-0.04548835754394531,-0.0018291287124156952,0.006767340004444122
1761402692777955000,15.087955078125,-0.04397869110107422,0.00022912770509719849,0.0033811554312705994
1761402692798113500,15.108113525390625,-0.048831939697265625,-0.00037964433431625366,0.00005389004945755005
1761402692818280000,15.128280029296874,-0.044940948486328125,0.0029929615557193756,-0.0008247345685958862
1761402692838442500,15.1484423828125,-0.04926776885986328,0.0028477273881435394,-0.0029623284935951233
1761402692858579700,15.168579833984374,-0.044071197509765625,0.0015923567116260529,0.000034339725971221924
1761402692878767400,15.188767333984375,-0.04439067840576172,-0.004498865455389023,0.0010050609707832336
1761402692898929400,15.208929443359375,-0.040223121643066406,-0.0033805593848228455,-0.0006406381726264954
1761402692919088000,15.229088134765625,-0.048633575439453125,0.004479672759771347,-0.0005760937929153442
1761402692939254300,15.249254150390625,-0.04654693603515625,0.00043696537613868713,0.01035357266664505
1761402692959393300,15.269393310546874,-0.04918098449707031,-0.0041666291654109955,0.0014812126755714417
1761402692979575300,15.2895751953125,-0.04628181457519531,-0.002260323613882065,0.0031235143542289734
1761402692999741400,15.309741455078125,-0.04697608947753906,-0.0021017566323280334,0.004244565963745117
1761402693019904000,15.329904052734374,-0.051433563232421875,0.003357991576194763,-0.0007422268390655518
1761402693040062700,15.350062744140626,-0.040993690490722656,0.0017752572894096375,-0.001116827130317688
1761402693060229000,15.37022900390625,-0.05414009094238281,-0.0022523924708366394,-0.0010330677032470703
1761402693080391200,15.39039111328125,-0.049346923828125,0.0030169598758220673,0.0007537677884101868
1761402693100553700,15.4105537109375,-0.04794502258300781,0.0019436478614807129,-0.002953961491584778
1761402693120716300,15.43071630859375,-0.047809600830078125,0.00033141300082206726,-0.0013671591877937317
1761402693140878600,15.450878662109375,-0.048058509826660156,-0.0012524276971817017,0.003742113709449768
1761402693161020700,15.471020751953125,-0.046703338623046875,-0.00528508797287941,-0.0030046403408050537
1761402693181203700,15.49120361328125,-0.04472064971923828,0.00245068222284317,0.0038902610540390015
1761402693201366000,15.511365966796875,-0.043709754943847656,0.0013168193399906158,-0.00462774932384491
1761402693221522200,15.531522216796875,-0.04586315155029297,-0.0028379224240779877,-0.0032247602939605713
1761402693241686800,15.551686767578126,-0.04334068298339844,-0.0036316365003585815,-0.0003652051091194153
1761402693261853200,15.571853271484375,-0.04611968994140625,0.000453021377325058,-0.00023540109395980835
1761402693281991000,15.591990966796875,-0.05355644226074219,0.004060860723257065,0.004083707928657532
1761402693302174500,15.612174560546874,-0.04668903350830078,0.0020011067390441895,0.005123980343341827
1761402693322317300,15.6323173828125,-0.04735374450683594,0.00224459171295166,0.0055479854345321655
1761402693342488800,15.65248876953125,-0.047389984130859375,-0.003037836402654648,0.0014102905988693237
1761402693362661600,15.67266162109375,-0.04322052001953125,-0.0007846429944038391,0.00415598601102829
1761402693382828500,15.69282861328125,-0.052458763122558594,-0.0035847313702106476,0.002311691641807556
1761402693402990600,15.712990478515625,-0.05177593231201172,-0.0016092956066131592,0.0051783546805381775
1761402693423153000,15.73315283203125,-0.04411506652832031,-0.0038512088358402252,0.009962767362594604
1761402693443315500,15.7533154296875,-0.04662132263183594,0.0009812600910663605,-0.0004231780767440796
1761402693463477800,15.773477783203125,-0.047606468200683594,0.0014275573194026947,-0.0006659254431724548
1761402693483640800,15.793640869140624,-0.04866600036621094,0.0031798556447029114,0.005478382110595703
1761402693503803000,15.813802978515625,-0.048279762268066406,0.0008544959127902985,0.0008816272020339966
1761402693523939800,15.83393994140625,-0.04787731170654297,0.00217234343290329,0.005374573171138763
1761402693544127700,15.854127685546874,-0.04872608184814453,0.0029677487909793854,0.0005417987704277039
1761402693564286500,15.874286376953124,-0.04666709899902344,0.006500471383333206,-0.0015172436833381653
1761402693584452900,15.894452880859374,-0.044587135314941406,0.005018595606088638,0.005804382264614105
1761402693604615000,15.914614990234375,-0.04671192169189453,-0.0022289790213108063,-0.003101646900177002
1761402693624777700,15.93477783203125,-0.04844379425048828,-0.0023360177874565125,-0.0014602765440940857
1761402693644940000,15.95493994140625,-0.048041343688964844,-0.004569746553897858,0.0037866011261940002
1761402693665077000,15.975076904296875,-0.045950889587402344,0.006631419062614441,0.0028450414538383484
1761402693685265200,15.99526513671875,-0.046530723571777344,-0.00018718838691711426,0.00031816959381103516
1761402693705427000,16.015427001953125,-0.04161548614501953,-0.00027117133140563965,0.003941357135772705
1761402693725580000,16.035580078125,-0.047904014587402344,0.0007302537560462952,-0.00007902085781097412
1761402693745751800,16.055751708984374,-0.04795265197753906,-0.002795357257127762,0.0030142590403556824
1761402693765914000,16.0759140625,-0.047962188720703125,-0.00179184228181839,0.002841465175151825
1761402693786077000,16.096076904296876,-0.049225807189941406,0.0006378777325153351,0.0013924092054367065
1761402693806239500,16.116239501953125,-0.051041603088378906,-0.000644586980342865,0.0004453808069229126
1761402693826379800,16.1363798828125,-0.04381561279296875,0.003958437591791153,-0.0017858892679214478
1761402693846564400,16.156564453125,-0.042901039123535156,-0.0013162195682525635,-0.0031455308198928833
1761402693866726700,16.1767265625,-0.048605918884277344,0.0010781548917293549,-0.0040178075432777405
1761402693886889200,16.19688916015625,-0.04693889617919922,0.0025094524025917053,0.0000053942203521728516
1761402693907051300,16.21705126953125,-0.048320770263671875,0.0015188045799732208,-0.002419993281364441
1761402693927195100,16.237195068359377,-0.05169868469238281,-0.003798283636569977,-0.0017110854387283325
1761402693947376000,16.257376220703126,-0.04454994201660156,-0.001745469868183136,-0.00433330237865448
1761402693967538700,16.27753857421875,-0.04480266571044922,-0.005513075739145279,0.004648648202419281
1761402693987676000,16.297676025390626,-0.0372772216796875,-0.00864708423614502,-0.0008436143398284912
1761402694007863600,16.317863525390624,-0.0706644058227539,0.004187077283859253,0.0017057731747627258
1761402694028022000,16.33802197265625,-0.0695943832397461,0.009357959032058716,0.0020972266793251038
1761402694048170500,16.35817041015625,-0.044625282287597656,0.0014281459152698517,-0.007157623767852783
