time,seconds_elapsed,z,y,x
1761400718830513400,0.100513427734375,-0.03060987778007984,0.2811678647994995,0.11046534776687622
1761400718840569000,0.110569091796875,-0.030826378613710403,0.27973562479019165,0.11945845931768417
1761400718850649900,0.12064990234375,-0.02120042033493519,0.2927756607532501,0.10886657238006592
1761400718860756000,0.130755859375,-0.021983154118061066,0.28924500942230225,0.1053859069943428
1761400718870814200,0.140814208984375,-0.03355761989951134,0.2658296227455139,0.09832465648651123
1761400718880917500,0.15091748046875,-0.052376531064510345,0.2579856514930725,0.08984781801700592
1761400718890998500,0.16099853515625,-0.06396764516830444,0.2559038996696472,0.09081374108791351
1761400718901076200,0.171076171875,-0.07139529287815094,0.24751032888889313,0.0939946398139
1761400718911161000,0.1811611328125,-0.19545023143291473,0.30819717049598694,0.10425344109535217
1761400718921241300,0.191241455078125,-0.14277392625808716,0.2354029417037964,0.13081641495227814
1761400718931322400,0.201322265625,-0.057755742222070694,0.216733917593956,0.14622128009796143
1761400718941403100,0.211403076171875,-0.06203579530119896,0.16748832166194916,0.15604709088802338
1761400718951484200,0.221484130859375,-0.043649885803461075,0.11840926110744476,0.1557140052318573
1761400718961561000,0.23156103515625,-0.02238284796476364,0.0563734695315361,0.17783039808273315
1761400718971646000,0.24164599609375,-0.0018652373692020774,-0.016304172575473785,0.22834168374538422
1761400718981726700,0.251726806640625,0.029027756303548813,-0.02864471636712551,0.2869134843349457
1761400718991807700,0.261807861328125,0.08213705569505692,-0.08403560519218445,0.3188556730747223
1761400719001888500,0.271888427734375,0.15451492369174957,-0.0774739682674408,0.3226860463619232
1761400719011969800,0.2819697265625,0.21700038015842438,-0.0976085364818573,0.3382907807826996
1761400719022025000,0.29202490234375,0.2460947483778,-0.2577191889286041,0.34242093563079834
1761400719032127700,0.302127685546875,0.2932586073875427,-0.4525032341480255,0.32633325457572937
1761400719042212900,0.312212890625,0.35692650079727173,-0.5715453624725342,0.3240017294883728
1761400719052293400,0.32229345703125,0.4484896659851074,-0.5843355655670166,0.3758619725704193
1761400719062374100,0.3323740234375,0.5424842834472656,-0.5076443552970886,0.4625788629055023
1761400719072455000,0.342454833984375,0.6437233686447144,-0.3406056761741638,0.5670987963676453
1761400719082536000,0.352535888671875,0.7315727472305298,-0.21260374784469604,0.647537112236023
1761400719092613000,0.362613037109375,0.8240352272987366,-0.23640218377113342,0.6931688189506531
1761400719102697700,0.37269775390625,0.9603973627090454,-0.29335853457450867,0.7796525359153748
1761400719112741400,0.382741455078125,1.0434004068374634,-0.21242055296897888,0.8947310447692871
1761400719122829600,0.39282958984375,1.1057692766189575,-0.22141367197036743,0.9590650796890259
1761400719132915200,0.402915283203125,1.1311498880386353,-0.18414223194122314,0.9849452376365662
1761400719143021800,0.413021728515625,1.0946778059005737,-0.09489394724369049,0.9911238551139832
1761400719153102300,0.423102294921875,1.0545085668563843,0.033041346818208694,0.9766682386398315
1761400719163179500,0.433179443359375,1.0504783391952515,0.15429842472076416,0.9700899720191956
1761400719173264400,0.443264404296875,1.0495957136154175,0.24606144428253174,0.9677584171295166
1761400719183345200,0.45334521484375,1.025947093963623,0.3690338730812073,0.9334680438041687
1761400719193426000,0.463426025390625,0.9701399207115173,0.4934385418891907,0.8384741544723511
1761400719203481600,0.473481689453125,0.9092532396316528,0.5345237255096436,0.7078742384910583
1761400719213588700,0.483588623046875,0.8643209934234619,0.5389370322227478,0.5652168989181519
1761400719223643100,0.49364306640625,0.8487662672996521,0.4912235736846924,0.4076709449291229
1761400719233750000,0.50375,0.8390570282936096,0.4628453254699707,0.2049262970685959
1761400719243830800,0.513830810546875,0.8163577318191528,0.489208459854126,-0.0010991577291861176
1761400719253869000,0.523869140625,0.7534892559051514,0.5152884721755981,-0.15484800934791565
1761400719263992300,0.533992431640625,0.6926358938217163,0.4918064773082733,-0.24286389350891113
1761400719274100500,0.5441005859375,0.6613265872001648,0.39951053261756897,-0.20679153501987457
1761400719284152300,0.55415234375,0.647270679473877,0.23690178990364075,0.04613131657242775
1761400719294235100,0.564235107421875,0.6914867758750916,0.05327584221959114,0.5034142136573792
1761400719304290800,0.574290771484375,0.8336944580078125,-0.14532198011875153,0.8821573257446289
1761400719314397700,0.584397705078125,0.960847020149231,-0.2545049786567688,1.0771912336349487
1761400719324455200,0.594455078125,1.0692139863967896,-0.3397063612937927,1.2102558612823486
1761400719334559500,0.6045595703125,1.0961101055145264,-0.3301636576652527,1.419528841972351
1761400719344640800,0.614640869140625,1.0816044807434082,0.05039471760392189,1.3582757711410522
1761400719354744800,0.624744873046875,0.9159814119338989,0.7231458425521851,0.8694337606430054
1761400719364802000,0.634802001953125,0.5022484660148621,0.9584822058677673,0.577290952205658
1761400719374857700,0.644857666015625,-0.01908537559211254,0.6134799122810364,0.3153083920478821
1761400719384963800,0.6549638671875,-0.436931848526001,0.2200813591480255,-0.14582158625125885
1761400719395043800,0.6650439453125,-0.6317991614341736,0.023598583415150642,-0.668121337890625
1761400719405090800,0.6750908203125,-0.7633983492851257,0.04153483733534813,-1.0919299125671387
1761400719415181300,0.685181396484375,-0.9798824787139893,0.12222300469875336,-1.4025418758392334
1761400719425261600,0.695261474609375,-1.1799458265304565,0.17048601806163788,-1.576974868774414
1761400719435367700,0.70536767578125,-1.171735405921936,0.29021093249320984,-1.6313998699188232
1761400719455504400,0.72550439453125,-0.7747396230697632,0.2738734781742096,-1.5253478288650513
1761400719465590300,0.73559033203125,-0.6237220168113708,0.2509743571281433,-1.4619797468185425
1761400719475704000,0.7457041015625,-0.6277856230735779,0.3421877920627594,-1.3411056995391846
1761400719485773300,0.755773193359375,-0.7738736271858215,0.3634214997291565,-1.1665394306182861
1761400719495853600,0.765853515625,-1.004913330078125,0.11622760444879532,-1.0015825033187866
1761400719505908200,0.775908203125,-1.2102725505828857,-0.23273831605911255,-0.8074812293052673
1761400719516015600,0.786015625,-1.284066081047058,-0.33019697666168213,-0.5415849685668945
1761400719526096000,0.796095947265625,-1.2365025281906128,-0.25147396326065063,-0.21956507861614227
1761400719536176600,0.8061767578125,-1.0342074632644653,-0.1177431046962738,0.16700536012649536
1761400719546258000,0.8162578125,-0.8065652847290039,-0.13712824881076813,0.5385706424713135
1761400719556339000,0.8263388671875,-0.5566234588623047,-0.31702372431755066,0.8582257032394409
1761400719566419500,0.83641943359375,-0.3332446217536926,-0.5045633316040039,1.046264886856079
1761400719576500700,0.846500732421875,-0.021350305527448654,-0.5299272537231445,1.0376049280166626
1761400719586581200,0.856581298828125,0.42567381262779236,-0.4284883141517639,1.1573131084442139
1761400719596662500,0.86666259765625,0.9550681114196777,-0.15936121344566345,1.64229154586792
1761400719606743300,0.876743408203125,1.3925994634628296,0.0691470131278038,2.3315799236297607
1761400719616832800,0.886832763671875,1.7395004034042358,0.11637748777866364,2.7910611629486084
1761400719626905300,0.8969052734375,2.0018160343170166,-0.1040702536702156,2.954685926437378
1761400719636986000,0.906986083984375,2.1010398864746094,-0.7266265153884888,2.9657773971557617
1761400719647067400,0.9170673828125,2.146671772003174,-1.320887804031372,2.92187762260437
1761400719657159000,0.927158935546875,2.1766154766082764,-1.6674222946166992,2.9055733680725098
1761400719667229700,0.937229736328125,2.1824610233306885,-1.8237690925598145,2.9827311038970947
1761400719677310500,0.947310546875,2.152900218963623,-1.9474409818649292,3.136080265045166
1761400719687347500,0.957347412109375,2.1900217533111572,-1.9375486373901367,3.1731019020080566
1761400719697471700,0.9674716796875,2.27335786819458,-1.7436472177505493,2.839374303817749
1761400719707530800,0.97753076171875,2.2443301677703857,-1.2934255599975586,2.1758992671966553
1761400719717633800,0.9876337890625,2.1727516651153564,-1.0544586181640625,1.5096931457519531
1761400719727714300,0.99771435546875,1.9743536710739136,-1.0746431350708008,0.9788998961448669
1761400719737776000,1.007776123046875,1.6794962882995605,-1.1480869054794312,0.6040871143341064
1761400719747876400,1.01787646484375,1.3227530717849731,-1.1317493915557861,0.34005609154701233
1761400719757931800,1.027931884765625,1.0210342407226562,-0.9653602242469788,0.11088170111179352
1761400719768036900,1.038036865234375,0.8036008477210999,-0.7580024600028992,-0.13083307445049286
1761400719778115000,1.048114990234375,0.6110317707061768,-0.6487694978713989,-0.3758619725704193
1761400719788195800,1.05819580078125,0.4070214331150055,-0.5318924188613892,-0.561319887638092
1761400719798277600,1.068277587890625,0.2129867821931839,-0.2825501561164856,-0.6993973851203918
1761400719808336600,1.078336669921875,0.0320754200220108,0.026080014184117317,-0.7664793133735657
1761400719818443000,1.088443115234375,-0.18144428730010986,0.2818506956100464,-0.6955670118331909
1761400719828524000,1.09852392578125,-0.3616895079612732,0.5245147347450256,-0.5679481029510498
1761400719838579200,1.1085791015625,-0.4756688177585602,0.7093064785003662,-0.4554010331630707
1761400719848655400,1.1186552734375,-0.5394532680511475,0.8849718570709229,-0.45323601365089417
1761400719858742500,1.128742431640625,-0.5751259326934814,1.0629022121429443,-0.5736437439918518
1761400719868824600,1.138824462890625,-0.5135731101036072,1.1968162059783936,-0.7432304620742798
1761400719878928600,1.1489287109375,-0.335226446390152,1.1960334777832031,-0.9493891596794128
1761400719889009200,1.159009033203125,-0.05524100363254547,1.2064754962921143,-1.0571233034133911
1761400719899079200,1.1690791015625,0.28348276019096375,1.249259352684021,-1.0389704704284668
1761400719909171500,1.17917138671875,0.6319324374198914,1.304367184638977,-0.8835729360580444
1761400719919237400,1.1892373046875,0.8738470673561096,1.3791598081588745,-0.6957501769065857
1761400719929332700,1.199332763671875,0.875995397567749,1.460480809211731,-0.5486629009246826
1761400719939414000,1.2094140625,0.643839955329895,1.4083707332611084,-0.5889986753463745
1761400719949497000,1.2194970703125,0.30521610379219055,1.3460352420806885,-0.7868137359619141
1761400719959567600,1.229567626953125,0.02934418059885502,1.4600145816802979,-0.9145158529281616
1761400719969656300,1.23965625,-0.11164777725934982,1.6434240341186523,-1.0470143556594849
1761400719979724800,1.249724853515625,-0.09780838340520859,1.6525835990905762,-1.3782938718795776
1761400719989816000,1.259816162109375,-0.43191900849342346,1.4087204933166504,-1.6086506843566895
1761400719999909400,1.269909423828125,-1.4478905200958252,0.9444596171379089,-2.112298011779785
1761400720009958400,1.27995849609375,-2.3241689205169678,0.6914701461791992,-2.557007312774658
1761400720020071000,1.29007080078125,-2.419196128845215,0.49743548035621643,-2.319056272506714
1761400720030130000,1.3001298828125,-1.7469946146011353,-0.1413416862487793,-1.7714592218399048
1761400720040222700,1.31022265625,-0.8017189502716064,-0.648786187171936,-1.262848973274231
1761400720050286300,1.320286376953125,-0.40685489773750305,-0.6113482117652893,-0.9487729668617249
1761400720060384800,1.330384765625,-0.6145457625389099,0.03200880438089371,-0.7073246240615845
1761400720070453200,1.340453369140625,-1.2237788438796997,0.7163843512535095,-0.5126404762268066
1761400720080533800,1.35053369140625,-1.785115361213684,1.0607705116271973,-0.5927124619483948
1761400720090614800,1.36061474609375,-2.1880733966827393,1.1605772972106934,-0.7834995985031128
1761400720100707600,1.37070751953125,-2.307098627090454,0.8557775616645813,-0.8675185441970825
1761400720110777900,1.38077783203125,-2.2107558250427246,0.10646841675043106,-0.7917099595069885
1761400720120866600,1.390866455078125,-2.006662368774414,-0.8595080375671387,-0.8720983862876892
1761400720130951200,1.400951171875,-1.729191541671753,-1.1319658756256104,-1.0925960540771484
1761400720141019000,1.411018798828125,-1.365486979484558,-0.8372917175292969,-1.4373152256011963
1761400720151113000,1.421113037109375,-1.0921630859375,-0.5926791429519653,-1.7209312915802002
1761400720161194200,1.4311943359375,-0.8453522324562073,-0.6634749174118042,-1.9375652074813843
1761400720171262500,1.441262451171875,-0.5324253439903259,-0.7710424661636353,-2.093745470046997
1761400720181341200,1.451341064453125,-0.25788572430610657,-0.7418481707572937,-2.213304042816162
1761400720191424300,1.46142431640625,0.026646247133612633,-0.6695535778999329,-2.309513568878174
1761400720201506600,1.471506591796875,0.2554875612258911,-0.752223551273346,-2.2523906230926514
1761400720211598600,1.4815986328125,0.42609015107154846,-1.026380181312561,-2.1342313289642334
1761400720221669000,1.491669189453125,0.6646906733512878,-1.308613896369934,-2.003131628036499
1761400720231760400,1.501760498046875,0.9465746283531189,-1.5534262657165527,-1.6562974452972412
1761400720241839400,1.51183935546875,1.2455788850784302,-1.4570168256759644,-1.0104923248291016
1761400720251909600,1.52190966796875,1.5234493017196655,-0.8007863759994507,-0.07709092646837234
1761400720261990100,1.531990234375,1.613347053527832,-0.06689873337745667,1.1808117628097534
1761400720272068000,1.542068115234375,1.4613468647003174,0.3948807418346405,2.408254623413086
1761400720282140000,1.552139892578125,1.3003535270690918,0.3285315930843353,3.0209851264953613
1761400720292234000,1.56223388671875,1.2580360174179077,-0.00737767992541194,3.1965837478637695
1761400720302321400,1.5723212890625,1.2151521444320679,-0.40617209672927856,3.3779447078704834
1761400720312406500,1.582406494140625,1.2235957384109497,-0.779336154460907,3.769428253173828
1761400720322475500,1.5924755859375,1.3023686408996582,-1.315675139427185,4.264348983764648
1761400720332569300,1.6025693359375,1.486960530281067,-1.7696772813796997,4.631850719451904
1761400720342638000,1.61263818359375,1.772924780845642,-1.9315698146820068,4.703629016876221
1761400720352729600,1.6227294921875,2.1533331871032715,-2.1499691009521484,4.418464183807373
1761400720362800600,1.632800537109375,2.488609552383423,-2.5078282356262207,3.961947202682495
1761400720372887800,1.6428876953125,2.6860084533691406,-2.792576789855957,3.578890800476074
1761400720382974000,1.652973876953125,2.5911643505096436,-2.628669023513794,3.0698142051696777
1761400720393048300,1.66304833984375,2.2785205841064453,-2.2707598209381104,2.429971218109131
1761400720403125800,1.673125732421875,1.9756860733032227,-2.1942684650421143,1.8832569122314453
1761400720413191400,1.68319140625,1.7340046167373657,-2.1785805225372314,1.450138807296753
1761400720423298000,1.693298095703125,1.5212509632110596,-2.031709671020508,1.142224669456482
1761400720433378600,1.703378662109375,1.3804421424865723,-1.7444965839385986,0.9353498816490173
1761400720443446800,1.71344677734375,1.3641879558563232,-1.3902347087860107,0.7401161789894104
1761400720453540400,1.723540283203125,1.3144594430923462,-1.2132868766784668,0.5646173357963562
1761400720463621600,1.73362158203125,1.1577128171920776,-1.1701033115386963,0.45426857471466064
1761400720473678000,1.743677978515625,1.0126906633377075,-1.0187859535217285,0.32167017459869385
1761400720483763500,1.753763427734375,0.8583755493164062,-0.7960399985313416,0.18509149551391602
1761400720493860000,1.763860107421875,0.7338876128196716,-0.5474804639816284,0.041767992079257965
1761400720503943400,1.773943359375,0.5779404640197754,-0.3192886710166931,-0.07958900928497314
1761400720514008000,1.784008056640625,0.39949387311935425,-0.14573831856250763,-0.15962767601013184
1761400720524107000,1.79410693359375,0.2122873216867447,0.07057924568653107,-0.23663532733917236
1761400720534187800,1.804187744140625,0.04723047465085983,0.5406523942947388,-0.282949835062027
1761400720544257500,1.814257568359375,-0.13473008573055267,1.2497756481170654,-0.23058997094631195
1761400720554337000,1.8243369140625,-0.3844553828239441,2.1561977863311768,-0.2533891499042511
1761400720564415500,1.83441552734375,-0.6688874363899231,2.972705364227295,-0.45816558599472046
1761400720574500000,1.8445,-0.7483265399932861,3.191187858581543,-0.555008053779602
1761400720584592600,1.854592529296875,-0.6319157481193542,3.1374125480651855,-0.7738736271858215
1761400720594653400,1.8646533203125,-0.5084936618804932,3.0906982421875,-1.2318060398101807
1761400720604765000,1.874764892578125,-0.18034513294696808,3.274523973464966,-1.4974192380905151
1761400720614812400,1.8848125,0.07599176466464996,3.600224494934082,-1.5010497570037842
1761400720624915500,1.89491552734375,-0.17443299293518066,3.9996018409729004,-1.465177297592163
1761400720634995500,1.904995361328125,-0.9464747309684753,4.211755752563477,-1.4367823600769043
1761400720645069800,1.91506982421875,-2.079439878463745,3.7075421810150146,-1.4995009899139404
1761400720655158800,1.92515869140625,-2.965677499771118,2.881808280944824,-1.9246418476104736
1761400720665239800,1.93523974609375,-3.266813278198242,2.0551085472106934,-2.4390976428985596
1761400720675320300,1.9453203125,-3.356527805328369,0.5948774814605713,-2.4318697452545166
1761400720685385000,1.955385009765625,-3.4270238876342773,-0.6446060538291931,-1.9613803625106812
1761400720695478800,1.965478759765625,-3.398928642272949,-1.6197254657745361,-1.6552815437316895
1761400720705561000,1.97556103515625,-2.9314370155334473,-1.8326789140701294,-1.717267394065857
1761400720715630300,1.98563037109375,-1.8973627090454102,-0.6246879696846008,-1.6934689283370972
1761400720725725000,1.995724853515625,-1.4275060892105103,0.6450390219688416,-1.1696370840072632
1761400720735793200,2.005793212890625,-1.2532563209533691,1.3503985404968262,-0.48128119111061096
1761400720745887000,2.015886962890625,-0.5808548927307129,1.7099729776382446,-0.1095493882894516
1761400720755966000,2.025966064453125,0.12650306522846222,1.8415554761886597,-0.07176167517900467
1761400720766036000,2.036035888671875,0.3221864402294159,2.2098898887634277,-0.14314031600952148
1761400720776123400,2.046123291015625,0.27189165353775024,2.4867777824401855,-0.36930033564567566
1761400720786197800,2.05619775390625,-0.07064586132764816,1.9875270128250122,-0.6162444353103638
1761400720796291600,2.06629150390625,-0.8122276067733765,0.6797791123390198,-0.727192759513855
1761400720806359600,2.076359619140625,-1.6633586883544922,-0.9865273833274841,-0.5244314670562744
1761400720816415500,2.08641552734375,-2.2777211666107178,-1.5536926984786987,-0.5192354321479797
1761400720826529000,2.096529052734375,-2.490225076675415,-0.9000936150550842,-1.1702532768249512
1761400720836601900,2.106601806640625,-2.164691209793091,-0.66763836145401,-1.9846125841140747
1761400720846696000,2.116696044921875,-1.531226634979248,-1.4910740852355957,-2.4203786849975586
1761400720856751600,2.126751708984375,-0.4417448341846466,-2.666256904602051,-2.6393442153930664
1761400720866845400,2.136845458984375,0.7769546508789062,-3.501666784286499,-2.7857487201690674
1761400720876914700,2.146914794921875,1.5802057981491089,-3.671936273574829,-2.944427013397217
1761400720886994400,2.156994384765625,1.8144428730010986,-3.012608051300049,-3.059821844100952
1761400720897075500,2.167075439453125,1.6856416463851929,-1.6478039026260376,-3.061570644378662
1761400720907157500,2.177157470703125,1.332545518875122,-0.5033309459686279,-2.7840166091918945
1761400720917236700,2.18723681640625,0.9546517729759216,0.22907446324825287,-1.9490398168563843
1761400720927317800,2.19731787109375,0.712104320526123,0.2892949879169464,-0.4907572567462921
1761400720937397800,2.207397705078125,0.6089333891868591,-0.25175708532333374,0.6291012763977051
1761400720947478800,2.217478759765625,0.6353464722633362,-0.7580024600028992,1.2444297075271606
1761400720957569800,2.22756982421875,0.7464446425437927,-1.2297077178955078,1.7918269634246826
1761400720967667000,2.2376669921875,0.9586820602416992,-1.722146987915039,2.2449629306793213
1761400720977747700,2.247747802734375,1.2199817895889282,-2.0218505859375,2.357909917831421
1761400720987829000,2.2578291015625,1.4135833978652954,-1.7682616710662842,2.412151575088501
1761400720997909500,2.267909423828125,1.379692792892456,-1.4407292604446411,2.655748128890991
1761400721007971000,2.27797119140625,1.2816678285598755,-1.261966347694397,3.060521364212036
1761400721018071800,2.28807177734375,1.2775044441223145,-1.2168174982070923,3.5236332416534424
1761400721028143600,2.2981435546875,1.2555712461471558,-1.2981551885604858,3.7720096111297607
1761400721038220800,2.308220703125,1.2450292110443115,-1.3609237670898438,3.677798271179199
1761400721048314000,2.318314208984375,1.2001802921295166,-1.5289783477783203,3.296590566635132
1761400721058382300,2.32838232421875,1.196916103363037,-1.807614803314209,2.764631509780884
1761400721068476200,2.33847607421875,1.298521637916565,-2.0227999687194824,2.2588024139404297
1761400721078560800,2.348560791015625,1.5270131826400757,-2.256387710571289,1.8957639932632446
1761400721088634000,2.358634033203125,1.7379848957061768,-2.3493831157684326,1.5640515089035034
1761400721098707000,2.36870703125,1.81159508228302,-2.11051607131958,1.132765293121338
1761400721108800000,2.378800048828125,1.8314799070358276,-1.770509958267212,0.767944872379303
1761400721118867000,2.388866943359375,1.732555627822876,-1.5472476482391357,0.5574061870574951
1761400721128961800,2.3989619140625,1.4897583723068237,-1.4977189302444458,0.4500884413719177
1761400721139040800,2.409040771484375,1.2408491373062134,-1.4448927640914917,0.3409554064273834
1761400721149100500,2.4191005859375,1.0048466920852661,-1.3875867128372192,0.1809113621711731
1761400721159204000,2.4292041015625,0.7315560579299927,-1.3424712419509888,0.027712097391486168
1761400721169272600,2.4392724609375,0.49542036652565,-1.3414720296859741,-0.03732139989733696
1761400721179366400,2.449366455078125,0.31007906794548035,-1.2168174982070923,-0.05142725631594658
1761400721189447200,2.459447265625,0.14267399907112122,-0.853562593460083,-0.0766412690281868
1761400721199513600,2.469513671875,0.021933192387223244,-0.4293709695339203,-0.14943549036979675
1761400721209609200,2.479609130859375,-0.04258403554558754,-0.031176110729575157,-0.23706834018230438
1761400721219684900,2.489684814453125,-0.1509343385696411,0.3330947458744049,-0.34535202383995056
1761400721229771000,2.49977099609375,-0.41976165771484375,0.6325652599334717,-0.4023250341415405
1761400721239852000,2.50985205078125,-0.5340241193771362,0.7586519718170166,-0.21869908273220062
1761400721249920500,2.51992041015625,-0.4497053921222687,0.8572930693626404,0.013656201772391796
1761400721260012500,2.530012451171875,-0.49660277366638184,1.1272861957550049,0.16172607243061066
1761400721270081800,2.540081787109375,-0.6680047512054443,1.6666561365127563,0.07327718287706375
1761400721280141300,2.550141357421875,-0.8416217565536499,2.5517280101776123,-0.1412084549665451
1761400721290256100,2.560256103515625,-0.9562339186668396,3.1749837398529053,-0.4728543162345886
1761400721300337700,2.570337646484375,-0.9692406058311462,3.2525575160980225,-0.8676517605781555
1761400721310398500,2.5803984375,-1.4034911394119263,2.8669862747192383,-1.0609370470046997
1761400721320490500,2.590490478515625,-1.9842294454574585,2.500467300415039,-1.4065221548080444
1761400721330565400,2.6005654296875,-2.504530668258667,2.24666166305542,-2.0118749141693115
1761400721340648700,2.610648681640625,-2.724012613296509,1.9355168342590332,-2.4581496715545654
1761400721350745900,2.620745849609375,-2.715385913848877,1.0998238325119019,-2.4099864959716797
1761400721360786200,2.6307861328125,-2.822253942489624,0.39359837770462036,-2.480682373046875
1761400721370904000,2.640904052734375,-2.564951181411743,0.11681048572063446,-2.2839996814727783
1761400721380984300,2.650984375,-1.1405760049819946,0.400160014629364,-1.3930658102035522
1761400721391065300,2.6610654296875,0.3637878894805908,1.0341908931732178,-0.5381209850311279
1761400721401142300,2.671142333984375,0.7788864970207214,1.0912305116653442,-0.12255608290433884
1761400721411228400,2.681228515625,0.4327683746814728,0.8864040970802307,-0.09740868955850601
1761400721421308000,2.691307861328125,-0.39518049359321594,0.5285283327102661,-0.569130539894104
1761400721431389000,2.701388916015625,-1.334544062614441,0.24479573965072632,-1.1879063844680786
1761400721441469700,2.7114697265625,-2.1618101596832275,0.5909305214881897,-1.5980087518692017
1761400721451550700,2.72155078125,-2.784316301345825,1.1772146224975586,-1.7053265571594238
1761400721461608700,2.731608642578125,-3.121608018875122,1.7421983480453491,-1.4666261672973633
1761400721471707100,2.74170703125,-3.0473482608795166,2.3015029430389404,-1.2465447187423706
1761400721481793500,2.75179345703125,-2.5035314559936523,2.097625970840454,-0.7149521112442017
1761400721491874300,2.761874267578125,-1.5495126247406006,1.3762121200561523,-0.1962662637233734
1761400721501955300,2.771955322265625,-0.529610812664032,0.5686975121498108,-0.4183294475078583
1761400721512036600,2.78203662109375,0.03144257143139839,-0.6480034589767456,-1.2390172481536865
1761400721522091500,2.792091552734375,0.1070512980222702,-1.8053165674209595,-1.9301376342773438
1761400721532174600,2.802174560546875,0.11507847905158997,-2.2553551197052,-2.0545589923858643
1761400721542254600,2.812254638671875,0.16066022217273712,-2.3612406253814697,-1.88522207736969
1761400721552360000,2.82235986328125,0.13008365035057068,-2.3267171382904053,-1.7138866186141968
1761400721562441000,2.83244091796875,-0.00609532929956913,-1.9775179624557495,-1.5259805917739868
1761400721572521700,2.842521728515625,0.041101835668087006,-1.5572733879089355,-1.2301573753356934
1761400721582602800,2.852602783203125,0.3872365951538086,-1.832862138748169,-0.931086540222168
1761400721592680200,2.86268017578125,0.9389638304710388,-2.494621753692627,-0.5587884783744812
1761400721602764300,2.872764404296875,1.6064856052398682,-2.3917171955108643,0.009675919078290462
1761400721612820200,2.8828203125,2.021817445755005,-1.3152421712875366,1.4183131456375122
1761400721622926000,2.892926025390625,1.9409626722335815,-0.19471745193004608,3.1605281829833984
1761400721633007000,2.903007080078125,1.6461385488510132,0.04971190541982651,4.130002021789551
1761400721643088100,2.913088134765625,1.4894253015518188,-0.3712655007839203,4.188357353210449
1761400721653165000,2.9231650390625,1.5106756687164307,-1.1475872993469238,3.787064552307129
1761400721663250000,2.93325,1.6354633569717407,-1.86015784740448,3.47182297706604
1761400721673331500,2.94333154296875,1.7220470905303955,-2.2679121494293213,3.4614474773406982
1761400721683412000,2.953411865234375,1.766479730606079,-2.1644413471221924,3.6089677810668945
1761400721693492500,2.963492431640625,1.8591586351394653,-1.754172444343567,3.7705938816070557
1761400721703573200,2.9735732421875,1.9695407152175903,-1.5178534984588623,3.82401967048645
1761400721713655300,2.9836552734375,2.0275464057922363,-1.515222191810608,3.6951518058776855
1761400721723731700,2.993731689453125,2.013190746307373,-1.3173571825027466,3.2152695655822754
1761400721733816600,3.003816650390625,2.040036678314209,-1.2479603290557861,2.3769619464874268
1761400721743872000,3.0138720703125,2.0213510990142822,-1.5186196565628052,1.500217080116272
1761400721753979000,3.023978759765625,1.9111355543136597,-1.4996508359909058,1.0236655473709106
1761400721764059600,3.0340595703125,1.8087472915649414,-1.2937419414520264,0.85246342420578
1761400721774140700,3.044140625,1.6539325714111328,-1.0154552459716797,0.6390103101730347
1761400721784182500,3.0541826171875,1.4388641119003296,-0.6405591368675232,0.36596956849098206
1761400721794301700,3.0643017578125,1.2518407106399536,-0.3463346064090729,0.1642574667930603
1761400721804383000,3.074383056640625,1.0811882019042969,-0.20933958888053894,-0.0009159647743217647
1761400721814438700,3.084438720703125,0.7960233688354492,-0.11884226649999619,-0.14154154062271118
1761400721824519200,3.094519287109375,0.4797823429107666,0.081637442111969,-0.2160511016845703
1761400721834625500,3.10462548828125,0.21456891298294067,0.31577467918395996,-0.30773085355758667
1761400721854787300,3.124787353515625,-0.26301512122154236,0.7624323964118958,-0.44565850496292114
1761400721864868400,3.134868408203125,-0.33082982897758484,0.798804521560669,-0.32022127509117126
1761400721874923800,3.144923828125,-0.26293185353279114,0.7047765851020813,-0.10422013700008392
1761400721885030100,3.155030029296875,-0.24442936480045319,0.6553478240966797,0.0873330757021904
1761400721895111200,3.165111083984375,-0.45913150906562805,0.7937084436416626,0.17005302011966705
1761400721905188000,3.17518798828125,-0.7586519718170166,1.0243983268737793,0.17100229859352112
1761400721915247400,3.185247314453125,-0.8889021873474121,1.3978455066680908,0.21908211708068848
1761400721925353700,3.195353759765625,-0.9621127247810364,2.0482137203216553,0.45746612548828125
1761400721935411000,3.205410888671875,-1.0521104335784912,2.6058363914489746,0.7446627020835876
1761400721945515500,3.215515625,-0.9679915904998779,3.0049638748168945,0.8130436539649963
1761400721955596300,3.22559619140625,-0.7530229687690735,4.031144142150879,0.17336714267730713
1761400721965677600,3.235677490234375,-0.6464546322822571,4.378828048706055,-0.8228694200515747
1761400721975758600,3.245758544921875,-0.6060189604759216,3.4198293685913086,-1.493422269821167
1761400721985839400,3.25583935546875,-0.8848053216934204,2.330364227294922,-1.8364427089691162
1761400721995920100,3.265920166015625,-1.3784936666488647,2.068798065185547,-1.8377916812896729
1761400722006001700,3.276001708984375,-1.8460021018981934,2.3716659545898438,-1.8955308198928833
1761400722016105200,3.286105224609375,-2.2423651218414307,1.9241255521774292,-1.6405096054077148
1761400722026163000,3.296162841796875,-2.5141234397888184,1.0382211208343506,-1.1279523372650146
1761400722036241200,3.3062412109375,-2.303151845932007,0.5286781787872314,-1.3320791721343994
1761400722046324200,3.31632421875,-1.0683313608169556,0.4262566864490509,-1.6021056175231934
1761400722056371200,3.32637109375,-0.6358460783958435,0.763348400592804,-1.5516775846481323
1761400722066486500,3.336486572265625,-1.0976588726043701,1.4417119026184082,-1.255371332168579
1761400722076568000,3.346568115234375,-1.67726469039917,1.8244686126708984,-1.469057559967041
1761400722086648300,3.3566484375,-1.8774446249008179,1.621041178703308,-1.7765719890594482
1761400722096729900,3.366729736328125,-1.60653555393219,0.937181830406189,-1.73325514793396
1761400722106785300,3.376785400390625,-1.0466645956039429,0.243679940700531,-1.6271697282791138
1761400722116888600,3.386888671875,-0.6714521050453186,-0.18149425089359283,-1.6411423683166504
1761400722126972700,3.39697265625,-0.6459050178527832,-0.18745635449886322,-1.7311567068099976
1761400722137053200,3.40705322265625,-0.7385174036026001,0.40970271825790405,-1.620391607284546
1761400722147133700,3.4171337890625,-1.1069684028625488,1.037488341331482,-1.1945679187774658
1761400722157192200,3.427192138671875,-1.513373613357544,1.2930424213409424,-0.625737190246582
1761400722167296500,3.437296630859375,-1.6473876237869263,1.2375516891479492,-0.41316673159599304
1761400722177376500,3.44737646484375,-1.5391038656234741,0.886903703212738,-0.7030112743377686
1761400722187457500,3.45745751953125,-1.2700934410095215,0.42920443415641785,-1.2281755208969116
1761400722197513200,3.46751318359375,-0.9268064498901367,-0.1139959767460823,-1.4830468893051147
1761400722207620000,3.4776201171875,-0.5170371532440186,-0.8085470795631409,-1.3403562307357788
1761400722217700400,3.487700439453125,-0.26328158378601074,-1.4030914306640625,-0.9898248314857483
1761400722227780900,3.49778076171875,-0.17749731242656708,-1.4591984748840332,-0.5658164024353027
1761400722237862700,3.507862548828125,-0.015105091966688633,-1.1566803455352783,-0.2122207134962082
1761400722247943700,3.517943603515625,0.24975861608982086,-0.919345498085022,0.07279422134160995
1761400722258020400,3.528020263671875,0.6295009255409241,-0.8761952519416809,0.3599075376987457
1761400722268105700,3.538105712890625,1.059588074684143,-0.8910005688667297,0.7026282548904419
1761400722278155500,3.548155517578125,1.4981685876846313,-0.8642710447311401,1.0981584787368774
1761400722288239400,3.5582392578125,1.8105292320251465,-0.8643543124198914,1.4465081691741943
1761400722298322700,3.56832275390625,1.919512391090393,-0.7385007739067078,1.7287418842315674
1761400722308403500,3.578403564453125,1.8747633695602417,-0.6363623738288879,2.0057129859924316
1761400722318484500,3.588484375,1.7766551971435547,-0.8444029092788696,2.2265937328338623
1761400722328565200,3.598565185546875,1.7256276607513428,-1.1349302530288696,2.338841199874878
1761400722338634200,3.60863427734375,1.6817113161087036,-1.4097363948822021,2.3453028202056885
1761400722348736000,3.618736083984375,1.6055530309677124,-1.665873408317566,2.278437376022339
1761400722358815200,3.628815185546875,1.6256542205810547,-1.7951910495758057,2.2442469596862793
1761400722368902400,3.63890234375,1.6569136381149292,-1.9448930025100708,2.1939022541046143
1761400722378976300,3.648976318359375,1.5531765222549438,-2.08315372467041,2.0934290885925293
1761400722389076200,3.659076171875,1.391000747680664,-2.1574301719665527,1.9429610967636108
1761400722399144000,3.66914404296875,1.2259272336959839,-2.122190475463867,1.7629823684692383
1761400722409227000,3.67922705078125,1.0963431596755981,-1.893715500831604,1.5473642349243164
1761400722419316700,3.689316650390625,1.027346134185791,-1.6584458351135254,1.3069818019866943
1761400722429400000,3.699400146484375,0.9765017032623291,-1.4228763580322266,1.0365723371505737
1761400722439474700,3.709474609375,0.9162978529930115,-1.1469377279281616,0.7424477338790894
1761400722449561600,3.7195615234375,0.8843889832496643,-0.8727312088012695,0.5130401849746704
1761400722459642400,3.729642333984375,0.9221600294113159,-0.6272026896476746,0.4072379469871521
1761400722469710600,3.739710693359375,0.9682247042655945,-0.48481181263923645,0.35484474897384644
1761400722479802600,3.749802734375,0.9376981258392334,-0.4163975715637207,0.25458824634552
1761400722489862100,3.759862060546875,0.8211540579795837,-0.31763991713523865,0.11136466264724731
1761400722499973400,3.769973388671875,0.6252208948135376,-0.16339145600795746,-0.02784532867372036
1761400722510047000,3.780046875,0.3814243674278259,-0.010825037956237793,-0.10043969750404358
1761400722520128300,3.790128173828125,0.1584285944700241,0.0786563903093338,-0.10894984751939774
1761400722530208800,3.800208740234375,0.00849349144846201,0.1796623319387436,-0.08951473981142044
1761400722540277000,3.810277099609375,-0.1434234231710434,0.3128103017807007,-0.09937384724617004
1761400722550368800,3.82036865234375,-0.2754722535610199,0.4906739890575409,-0.16187594830989838
1761400722560451300,3.830451416015625,-0.3448024392127991,0.7311564087867737,-0.2683277130126953
1761400722570531000,3.840531005859375,-0.41491538286209106,1.1637248992919922,-0.37144869565963745
1761400722580612400,3.8506123046875,-0.5216835737228394,1.7088738679885864,-0.47413668036460876
1761400722590692600,3.860692626953125,-0.5549580454826355,2.2885630130767822,-0.7401328086853027
1761400722600775400,3.870775390625,-0.5956102609634399,2.9104697704315186,-1.0421847105026245
1761400722610820600,3.880820556640625,-0.6413418650627136,3.176732301712036,-1.3566104173660278
1761400722620937200,3.890937255859375,-0.7686609625816345,2.6792802810668945,-1.6198087930679321
1761400722631018200,3.901018310546875,-1.0707294940948486,1.6897884607315063,-1.6547819375991821
1761400722641098800,3.9110986328125,-1.579856038093567,1.5247316360473633,-1.4542189836502075
1761400722651179500,3.921179443359375,-2.0676822662353516,1.7155686616897583,-1.5898317098617554
1761400722661260300,3.93126025390625,-2.177065134048462,1.1953840255737305,-1.581904411315918
1761400722671337200,3.941337158203125,-1.624804973602295,0.8102457523345947,-1.2626490592956543
1761400722681418500,3.95141845703125,-0.5533260107040405,1.1246215105056763,-0.610765278339386
1761400722691491000,3.961490966796875,-0.015254977159202099,1.5678153038024902,-0.19833135604858398
1761400722701584400,3.97158447265625,0.04829632490873337,1.7045271396636963,-0.2547714412212372
1761400722711652900,3.98165283203125,-0.03513973951339722,1.7286919355392456,-0.31057867407798767
1761400722721746000,3.991745849609375,-0.2921428084373474,1.5728447437286377,-0.3565767705440521
1761400722731810000,4.00181005859375,-0.5755922794342041,0.9125340580940247,-0.4165974259376526
1761400722741906400,4.011906494140625,-0.9861443042755127,0.28751301765441895,-0.3319956064224243
1761400722751978200,4.021978271484375,-1.4572666883468628,-0.14748698472976685,-0.26674559712409973
1761400722762070000,4.032070068359375,-1.9424115419387817,-0.6208409070968628,-0.6400595307350159
1761400722772138500,4.042138427734375,-2.3385746479034424,-1.1821107864379883,-1.2421314716339111
1761400722782232300,4.052232421875,-2.460714340209961,-1.4033912420272827,-1.6051865816116333
1761400722792312300,4.062312255859375,-2.477651357650757,-1.5750930309295654,-1.8105459213256836
1761400722802382300,4.07238232421875,-2.4144997596740723,-1.6386609077453613,-1.8660200834274292
1761400722812462000,4.082462158203125,-2.3315632343292236,-1.6223567724227905,-1.8341611623764038
1761400722822555100,4.09255517578125,-2.275456428527832,-1.5877166986465454,-1.7973893880844116
1761400722832636400,4.102636474609375,-2.139110803604126,-1.330763578414917,-1.77777099609375
1761400722842691800,4.11269189453125,-1.880475640296936,-0.9173303842544556,-1.7586857080459595
1761400722852798200,4.122798095703125,-1.5431008338928223,-0.4527863562107086,-1.6335315704345703
1761400722862866400,4.132866455078125,-1.1822940111160278,-0.012157350778579712,-1.3136600255966187
1761400722872958500,4.14295849609375,-0.8308466672897339,0.12923429906368256,-0.8826569318771362
1761400722883015700,4.153015625,-0.3987111449241638,0.011840926483273506,-0.5180363655090332
1761400722893109200,4.163109130859375,0.09680914878845215,-0.1829264909029007,-0.20530933141708374
1761400722903202600,4.17320263671875,0.572211503982544,-0.2756720781326294,0.14220769703388214
1761400722913270800,4.183270751953125,0.888752281665802,-0.3401893079280853,0.5927124619483948
1761400722923342300,4.19334228515625,0.9741868376731873,-0.49711906909942627,1.1313830614089966
1761400722933440800,4.203440673828125,0.999001145362854,-0.7381843328475952,1.6338313817977905
1761400722943526400,4.2135263671875,1.0196685791015625,-1.0811381340026855,1.896446704864502
1761400722953607400,4.223607421875,0.9245914816856384,-1.4545687437057495,1.9523872137069702
1761400722963699200,4.23369921875,0.7838993072509766,-1.8191893100738525,1.899610996246338
1761400722973756200,4.243756103515625,0.5968759655952454,-2.158562660217285,1.860590934753418
1761400722983837400,4.25383740234375,0.39732885360717773,-2.2273099422454834,1.924258828163147
1761400722993920800,4.263920654296875,0.24781011044979095,-2.3290319442749023,1.9677420854568481
1761400723004008000,4.274008056640625,0.17761389911174774,-2.445875644683838,1.84831702709198
1761400723014093000,4.284093017578125,0.10730110853910446,-2.4115352630615234,1.6620596647262573
1761400723024162000,4.294162109375,0.06868070363998413,-2.3110790252685547,1.51895272731781
1761400723034254800,4.3042548828125,0.03645539656281471,-2.108950614929199,1.4484068155288696
1761400723044335600,4.314335693359375,0.06048698350787163,-1.9098365306854248,1.3616232872009277
1761400723054405600,4.324405517578125,0.1181594580411911,-1.838091492652893,1.2182331085205078
1761400723064478000,4.33447802734375,0.1950838416814804,-1.5411690473556519,1.0717121362686157
1761400723074578400,4.344578369140625,0.2544217109680176,-1.2602009773254395,0.9466578960418701
1761400723084659500,4.354659423828125,0.27966901659965515,-1.0881328582763672,0.7993707656860352
1761400723094743600,4.36474365234375,0.28225037455558777,-0.9477903842926025,0.6212572455406189
1761400723114901500,4.384901611328125,0.23150593042373657,-0.5545750260353088,0.31007906794548035
1761400723124980500,4.39498046875,0.196049764752388,-0.4474404752254486,0.24636121094226837
1761400723135064000,4.40506396484375,0.1649402678012848,-0.35784244537353516,0.20432676374912262
1761400723145144600,4.41514453125,0.055290963500738144,-0.30856356024742126,0.20241156220436096
1761400723155225300,4.425225341796875,-0.06929689645767212,-0.17739740014076233,0.28000208735466003
1761400723165306600,4.435306640625,-0.022266270592808723,0.07089567184448242,0.4766680598258972
1761400723175367200,4.4453671875,0.17669792473316193,0.25377219915390015,0.7895116806030273
1761400723185470700,4.455470703125,0.4730541706085205,0.3151085376739502,1.154165506362915
1761400723195544600,4.465544677734375,0.7066751718521118,0.1287180334329605,1.3921499252319336
1761400723205625000,4.475625,0.848000168800354,0.006195252761244774,1.4182299375534058
1761400723215698200,4.4856982421875,0.94439297914505,0.3404557704925537,1.3851219415664673
1761400723225783300,4.495783203125,1.0534594058990479,0.9408457279205322,1.2607005834579468
1761400723235886600,4.505886474609375,1.2229461669921875,2.160644292831421,1.1038874387741089
1761400723245940700,4.515940673828125,1.3124443292617798,3.9339687824249268,1.0187859535217285
1761400723256032800,4.52603271484375,1.4179633855819702,4.493023872375488,0.6578958630561829
1761400723266115600,4.536115478515625,1.465160608291626,3.781035900115967,-0.13463017344474792
1761400723276183800,4.546183837890625,1.4680583477020264,2.4343512058258057,-0.9982350468635559
1761400723286277000,4.556277099609375,0.8257339000701904,1.061153531074524,-1.8305306434631348
1761400723296358000,4.56635791015625,-0.2558872401714325,1.0170872211456299,-2.3868043422698975
1761400723306423000,4.576423095703125,-1.386670708656311,1.5101428031921387,-2.9407799243927
1761400723316505900,4.586505859375,-2.2833669185638428,1.4551016092300415,-3.4719560146331787
1761400723326596000,4.59659619140625,-2.377045154571533,0.9463248252868652,-3.0472981929779053
1761400723336675600,4.606675537109375,-2.177065134048462,0.009242917411029339,-2.1841928958892822
1761400723346743000,4.616742919921875,-1.5799226760864258,-0.540119469165802,-1.1059857606887817
1761400723356818400,4.626818359375,-0.8678683042526245,0.1793125867843628,-0.6145124435424805
1761400723366899700,4.636899658203125,-1.3314963579177856,1.264897346496582,-0.5632350444793701
1761400723376980500,4.64698046875,-2.230740547180176,1.8781274557113647,-0.5842522978782654
1761400723387055400,4.657055419921875,-2.8912343978881836,2.376628875732422,-0.7214138507843018
1761400723397140700,4.667140625,-3.3009538650512695,2.9122517108917236,-0.887869656085968
1761400723407232000,4.67723193359375,-3.3277833461761475,3.0664334297180176,-0.9013925790786743
1761400723417306000,4.68730615234375,-2.979749917984009,2.5111091136932373,-0.8242683410644531
1761400723427401500,4.6974013671875,-2.2589356899261475,1.0535426139831543,-0.6254207491874695
1761400723437489400,4.707489501953125,-1.5989080667495728,-0.37819352746009827,-0.35944122076034546
1761400723447560000,4.717559814453125,-1.4870271682739258,-0.5378045439720154,-0.4147987961769104
1761400723457652700,4.72765283203125,-1.6095832586288452,-0.18878866732120514,-0.7941081523895264
1761400723467733500,4.7377333984375,-1.6537327766418457,-0.07460949569940567,-1.1719852685928345
1761400723477815000,4.74781494140625,-1.4307702779769897,-0.21828272938728333,-1.4292880296707153
1761400723487884300,4.75788427734375,-1.1373450756072998,-0.5627853870391846,-1.5365225076675415
1761400723497976800,4.767976806640625,-0.8742967247962952,-0.729590892791748,-1.5557578802108765
1761400723508038100,4.7780380859375,-0.6714021563529968,-0.9292879104614258,-1.5089603662490845
1761400723518125600,4.78812548828125,-0.5654333829879761,-1.0731775760650635,-1.3540457487106323
1761400723528219400,4.798219482421875,-0.20835700631141663,-1.4101693630218506,-1.15334951877594
1761400723538308000,4.80830810546875,0.3745463192462921,-1.9688912630081177,-0.9036575555801392
1761400723548381200,4.818381103515625,1.0325920581817627,-2.131366729736328,-0.6176100373268127
1761400723558442500,4.8284423828125,1.4959369897842407,-1.858992099761963,0.008809915743768215
1761400723568518100,4.83851806640625,1.6219570636749268,-1.2567535638809204,1.218599557876587
1761400723578611000,4.84861083984375,1.442577838897705,-0.4185459315776825,2.2373855113983154
1761400723588704500,4.85870458984375,1.3539958000183105,0.045148737728595734,2.503614902496338
1761400723598785800,4.868785888671875,1.3442531824111938,-0.16155953705310822,2.4118518829345703
1761400723608866800,4.87886669921875,1.2922264337539673,-0.6141460537910461,2.282700777053833
1761400723618925000,4.888925048828125,1.1202914714813232,-0.9775675535202026,2.4232430458068848
1761400723649178600,4.9191787109375,0.9908240437507629,-2.0373220443725586,3.718567132949829
1761400723659271700,4.929271728515625,1.276555061340332,-2.136479377746582,3.9289891719818115
1761400723669352000,4.93935205078125,1.5933290719985962,-1.9410792589187622,3.74471378326416
1761400723679433200,4.94943310546875,1.736685872077942,-1.3094133138656616,3.113297700881958
1761400723689497600,4.95949755859375,1.6146126985549927,-0.5413018465042114,2.2997043132781982
1761400723699583200,4.969583251953125,1.281318187713623,-0.037071593105793,1.5033479928970337
1761400723709675800,4.97967578125,0.8994107842445374,0.03314127027988434,0.8837061524391174
1761400723719756800,4.9897568359375,0.625254213809967,-0.09189624339342117,0.46287864446640015
1761400723729837600,4.999837646484375,0.4883258044719696,-0.21050535142421722,0.18815581500530243
1761400723739918600,5.009918701171875,0.4797823429107666,-0.13799425959587097,-0.025980090722441673
1761400723749986800,5.01998681640625,0.46689221262931824,-0.044615812599658966,-0.27452296018600464
1761400723760054800,5.0300546875,0.45370233058929443,-0.0197515320032835,-0.5373548865318298
1761400723770148600,5.040148681640625,0.3464178740978241,0.01728675328195095,-0.7678616046905518
1761400723780216600,5.050216552734375,0.22919103503227234,0.03284149989485741,-0.9729377627372742
1761400723790325800,5.06032568359375,0.06541653722524643,0.08546783775091171,-1.0998737812042236
1761400723800403700,5.07040380859375,-0.11041539162397385,0.17907944321632385,-1.1117314100265503
1761400723810473500,5.080473388671875,-0.22627660632133484,0.3514140546321869,-1.017803430557251
1761400723820565500,5.0905654296875,-0.28050172328948975,0.6184260845184326,-0.8509978652000427
1761400723830621200,5.10062109375,-0.304633229970932,0.8072314262390137,-0.5932953357696533
1761400723840727300,5.110727294921875,-0.28558117151260376,0.8824571371078491,-0.30458325147628784
1761400723850809000,5.12080908203125,-0.27142533659935,0.9740369319915771,-0.19311867654323578
1761400723860889300,5.130889404296875,-0.2410319596529007,1.0611867904663086,-0.3956967890262604
1761400723870971000,5.140970947265625,-0.10202182084321976,0.9960367679595947,-0.6497187614440918
1761400723881051400,5.151051513671875,0.10451990365982056,0.811095118522644,-0.7741567492485046
1761400723891107600,5.161107666015625,0.48507827520370483,0.7961899042129517,-0.8033177256584167
1761400723901189000,5.171189208984375,1.1221067905426025,1.3329951763153076,-0.7096894979476929
1761400723911294500,5.18129443359375,1.4874435663223267,2.7435643672943115,-0.8627389073371887
1761400723921375500,5.19137548828125,1.0104756355285645,3.795907974243164,-0.9800490140914917
1761400723931451400,5.201451416015625,0.2386171519756317,3.2085912227630615,-0.4238418638706207
1761400723941502700,5.211502685546875,-0.6284018158912659,2.5187366008758545,-0.08190390467643738
1761400723951618300,5.221618408203125,-1.2888790369033813,2.8992116451263428,-0.43378424644470215
1761400723961695000,5.231695068359375,-1.5795729160308838,2.3364596366882324,-1.2431640625
1761400723971779000,5.241779052734375,-1.2208644151687622,0.916131317615509,-1.6620264053344727
1761400723981860000,5.251860107421875,0.028294984251260757,0.36520346999168396,-1.3571434020996094
1761400723991941000,5.261941162109375,0.8001701831817627,0.21683384478092194,-1.1185262203216553
1761400724001991400,5.271991455078125,0.36916711926460266,0.0645671859383583,-0.8970292806625366
1761400724012103700,5.282103759765625,-0.5237320065498352,-0.38129115104675293,-0.44675764441490173
1761400724022179600,5.2921796875,-1.3441699743270874,-1.2114882469177246,-0.4018254280090332
1761400724032265500,5.302265380859375,-1.6919701099395752,-1.1759988069534302,-0.6154783368110657
1761400724042346000,5.312345947265625,-1.7431975603103638,-0.7399995923042297,-0.9869104027748108
1761400724052426200,5.32242626953125,-1.735736608505249,-0.5417348742485046,-1.134014368057251
1761400724062508000,5.332508056640625,-1.7455123662948608,-0.6354131102561951,-0.9625124335289001
1761400724072588000,5.342588134765625,-1.787996530532837,-0.5591049194335938,-0.6878895163536072
1761400724082665700,5.352665771484375,-1.7988382577896118,-0.19933058321475983,-0.5398696064949036
1761400724092750300,5.362750244140625,-1.7928094863891602,0.31514182686805725,-0.4708392024040222
1761400724102805500,5.372805419921875,-1.7464450597763062,0.8118945360183716,-0.3912668526172638
1761400724112867000,5.3828671875,-1.5751429796218872,0.9010928273200989,-0.39214950799942017
1761400724122993400,5.392993408203125,-1.2616997957229614,0.5780903697013855,-0.6074178814888
1761400724133074400,5.403074462890625,-0.9117679595947266,0.02025114744901657,-0.8708826303482056
1761400724143133200,5.41313330078125,-0.5323753952980042,-0.8358927965164185,-1.0705962181091309
1761400724153232100,5.423232177734375,-0.06365122646093369,-1.8456356525421143,-0.9265899658203125
1761400724163316700,5.433316650390625,0.2512408196926117,-2.752624034881592,-0.22947415709495544
1761400724173372200,5.4433720703125,0.1527995765209198,-2.898179054260254,0.3521135151386261
1761400724183479000,5.45347900390625,-0.2295074611902237,-2.2977726459503174,0.6265199184417725
1761400724193535200,5.46353515625,-0.6245547533035278,-1.268261432647705,0.9447593688964844
1761400724203640800,5.473640869140625,-0.5501617193222046,-0.40172550082206726,1.4607139825820923
1761400724213695700,5.48369580078125,-0.04250076413154602,-0.12383843958377838,2.002781867980957
1761400724223803000,5.493802978515625,0.45538437366485596,-0.05021152272820473,2.5399868488311768
1761400724233884000,5.5038837890625,0.6804119348526001,-0.06251876056194305,3.044050693511963
1761400724243964000,5.5139638671875,0.7378345727920532,-0.34410297870635986,3.4176809787750244
1761400724254045400,5.52404541015625,0.8023018836975098,-0.7200149297714233,3.589599370956421
1761400724264125700,5.534125732421875,0.977317750453949,-1.0565736293792725,3.5649847984313965
1761400724274228700,5.544228759765625,1.1307002305984497,-1.3917502164840698,3.318673610687256
1761400724284252400,5.55425244140625,1.2320891618728638,-1.5040473937988281,2.969740867614746
1761400724294343400,5.564343505859375,1.3142428398132324,-1.5584723949432373,2.653083562850952
1761400724304437200,5.574437255859375,1.3564271926879883,-1.5934456586837769,2.376162528991699
1761400724314531600,5.584531494140625,1.3398733139038086,-1.6252045631408691,2.1179935932159424
1761400724324611600,5.594611572265625,1.248443365097046,-1.6246883869171143,1.8670692443847656
1761400724334692400,5.6046923828125,1.131882667541504,-1.679762840270996,1.6316996812820435
1761400724344771600,5.614771484375,1.0106256008148193,-1.81449294090271,1.4250413179397583
1761400724354841900,5.624841796875,0.921210765838623,-1.8176071643829346,1.2349036931991577
1761400724364910000,5.63491015625,0.8977620601654053,-1.5934956073760986,1.1052197217941284
1761400724374991000,5.6449912109375,0.8949475288391113,-1.3360595703125,1.0080941915512085
1761400724385080600,5.65508056640625,0.8533960580825806,-1.0603208541870117,0.9305702447891235
1761400724395165000,5.6651650390625,0.774656355381012,-0.6507346630096436,0.8429707288742065
1761400724405233200,5.675233154296875,0.6877063512802124,-0.21348640322685242,0.769660234451294
1761400724415329000,5.6853291015625,0.5976586937904358,0.11534494161605835,0.732138991355896
1761400724425420800,5.6954208984375,0.5341906547546387,0.36645251512527466,0.7283085584640503
1761400724435499500,5.70549951171875,0.4095195233821869,0.5155715942382812,0.7812346816062927
1761400724445580500,5.71558056640625,0.2358359396457672,0.6117978692054749,0.8110285401344299
1761400724455649000,5.72564892578125,0.10217170417308807,0.5920629501342773,0.8005532026290894
1761400724465742300,5.735742431640625,0.03981948643922806,0.5607702732086182,0.8106454610824585
1761400724475823400,5.7458232421875,0.031625766307115555,0.6974655389785767,0.8829400539398193
1761400724485896700,5.755896728515625,0.05843855068087578,1.0552747249603271,1.1246049404144287
1761400724495987200,5.7659873046875,0.0045132082886993885,1.5343742370605469,1.3989779949188232
1761400724506068000,5.77606787109375,-0.10770080238580704,1.9689245223999023,1.3281155824661255
1761400724516149200,5.786149169921875,-0.18199387192726135,2.4945218563079834,0.8247179985046387
1761400724526226200,5.79622607421875,-0.18858881294727325,3.236436605453491,0.21901550889015198
1761400724536308700,5.806308837890625,-0.15354900062084198,4.0734453201293945,-0.19641615450382233
1761400724546375000,5.816375,0.026080014184117317,4.574611186981201,-0.4864272475242615
1761400724556472000,5.82647216796875,0.24081546068191528,4.780553340911865,-0.7073246240615845
1761400724566541600,5.83654150390625,0.1893215924501419,4.316075801849365,-0.9008263945579529
1761400724576621800,5.846621826171875,-0.08227028697729111,3.254772424697876,-1.0566569566726685
1761400724586715600,5.856715576171875,-0.3521135151386261,3.76821231842041,-1.3413054943084717
1761400724596794000,5.866794189453125,-0.7306567430496216,3.8302481174468994,-1.8010032176971436
1761400724606875000,5.876875,-1.4631620645523071,2.528229236602783,-2.0851187705993652
1761400724616958200,5.886958251953125,-2.3737642765045166,1.0998238325119019,-2.232689142227173
1761400724627035100,5.89703515625,-3.0708634853363037,0.5408355593681335,-2.7423651218414307
1761400724637120300,5.907120361328125,-3.755821943283081,0.2686441242694855,-3.459115982055664
1761400724647201000,5.917200927734375,-3.774374485015869,0.010092265903949738,-3.378011465072632
1761400724657275000,5.92727490234375,-2.761667013168335,0.0075608729384839535,-2.892500162124634
1761400724667352300,5.937352294921875,-1.2135034799575806,0.17636485397815704,-1.8822909593582153
1761400724677443800,5.94744384765625,-0.5888820886611938,0.5540587306022644,-0.7768713235855103
1761400724687524600,5.957524658203125,-0.8784268498420715,1.661210298538208,-0.413882851600647
1761400724697582000,5.96758203125,-1.048180103302002,2.542301893234253,-0.31161120533943176
1761400724707673600,5.977673583984375,-1.1139130592346191,2.792593479156494,-0.20819047093391418
1761400724717744000,5.987744140625,-1.234520673751831,2.1587958335876465,-0.4032076895236969
1761400724727848200,5.99784814453125,-1.345235824584961,0.8439532518386841,-0.7913768887519836
1761400724737918000,6.00791796875,-1.4701234102249146,-0.10097262263298035,-1.194867730140686
1761400724748009700,6.018009765625,-1.8095966577529907,-0.5130568742752075,-1.3671690225601196
1761400724758090800,6.0280908203125,-2.183410167694092,-0.5802720189094543,-1.5039808750152588
1761400724768171500,6.038171630859375,-2.336709499359131,-0.4091697931289673,-1.5147225856781006
1761400724778250000,6.04825,-2.0364561080932617,-0.35228005051612854,-1.3681849241256714
1761400724788331300,6.058331298828125,-1.3825905323028564,-0.6001901030540466,-1.1983816623687744
1761400724798414300,6.068414306640625,-0.49440446496009827,-0.9538024663925171,-1.1725181341171265
1761400724808483800,6.07848388671875,0.3393899202346802,-1.2099227905273438,-1.304017424583435
1761400724818552600,6.088552490234375,0.9125840067863464,-0.9817976355552673,-1.5219171047210693
1761400724828635600,6.0986357421875,1.1338977813720703,-0.18184398114681244,-1.6030216217041016
1761400724838738000,6.108738037109375,1.11124849319458,0.431619256734848,-1.5107256174087524
1761400724848798500,6.118798583984375,1.1131470203399658,0.0898311659693718,-1.1782804727554321
1761400724858900200,6.128900146484375,1.3761121034622192,-0.852596640586853,-0.44344353675842285
1761400724868975600,6.1389755859375,1.6641414165496826,-1.7246617078781128,0.24099865555763245
1761400724879062000,6.14906201171875,1.759668231010437,-2.1892223358154297,0.8620061278343201
1761400724889143600,6.1591435546875,1.4876600503921509,-2.0904979705810547,1.4458587169647217
1761400724899223800,6.169223876953125,1.0702465772628784,-1.5752261877059937,1.813110589981079
1761400724909292000,6.1792919921875,0.6970158815383911,-1.3164079189300537,1.969590663909912
1761400724919383300,6.18938330078125,0.32756564021110535,-1.2949410676956177,2.0678653717041016
1761400724929454000,6.1994541015625,0.003513973904773593,-1.3936320543289185,2.279353380203247
1761400724939547600,6.209547607421875,-0.19939720630645752,-1.6710195541381836,2.6391608715057373
1761400724949628200,6.219628173828125,-0.17103560268878937,-1.9211112260818481,3.078174591064453
1761400724959699000,6.229698974609375,0.02141692116856575,-2.096876621246338,3.4164652824401855
1761400724969777200,6.239777099609375,0.2964394986629486,-2.1533331871032715,3.641709327697754
1761400724979869000,6.249868896484375,0.6338475942611694,-2.1418087482452393,3.699814796447754
1761400724989952000,6.259951904296875,0.941645085811615,-1.8642714023590088,3.5907649993896484
1761400725000033000,6.270032958984375,1.091546893119812,-1.319105863571167,3.2372193336486816
1761400725010113800,6.28011376953125,1.1231393814086914,-0.7237120866775513,2.632749080657959
1761400725020194800,6.29019482421875,1.0946111679077148,-0.30793070793151855,1.9107857942581177
1761400725030262800,6.3002626953125,0.9257239699363708,-0.2531226873397827,1.2942415475845337
1761400725050424600,6.320424560546875,0.6012725830078125,-0.27822014689445496,0.5490792393684387
1761400725060517000,6.33051708984375,0.6601108312606812,-0.010458651930093765,0.16395770013332367
1761400725070584000,6.340583984375,0.7532394528388977,0.20339414477348328,-0.13632886111736298
1761400725080679200,6.35067919921875,0.6255040168762207,0.27175840735435486,-0.4159978926181793
1761400725090754300,6.36075439453125,0.4724213182926178,0.501215934753418,-0.6348801851272583
1761400725100842000,6.370842041015625,0.30300113558769226,0.7150686979293823,-0.8043003082275391
1761400725110919000,6.3809189453125,0.18718989193439484,0.8262002468109131,-0.8651703596115112
1761400725121003500,6.39100341796875,0.13987614214420319,0.8372917175292969,-0.7991542816162109
1761400725131085000,6.4010849609375,0.22730915248394012,0.6968992948532104,-0.5723780393600464
1761400725141161200,6.4111611328125,0.3317790925502777,0.43623238801956177,-0.45753273367881775
1761400725151246800,6.421246826171875,0.2628152668476105,0.39637959003448486,-0.569480299949646
1761400725161327000,6.4313271484375,0.17206814885139465,0.7202980518341064,-0.7297407984733582
1761400725171404000,6.441404052734375,0.19398468732833862,1.1950175762176514,-0.5845687389373779
1761400725181476400,6.451476318359375,0.27780377864837646,1.665540337562561,-0.3082471191883087
1761400725191559700,6.4615595703125,0.23268835246562958,2.0827040672302246,-0.13756124675273895
1761400725201651500,6.4716513671875,-0.05619027465581894,2.146038770675659,-0.2585851848125458
1761400725211719200,6.48171923828125,-0.49953386187553406,1.7114218473434448,-0.3820905387401581
1761400725221812700,6.491812744140625,-1.0175869464874268,1.4642446041107178,-1.0288115739822388
1761400725231881500,6.501881591796875,-2.001532793045044,0.7708759307861328,-2.0904979705810547
1761400725241959700,6.511959716796875,-2.5557916164398193,-0.04341673105955124,-2.2151191234588623
1761400725252055800,6.522055908203125,-1.5099762678146362,-0.38560450077056885,-1.1165443658828735
1761400725262136600,6.532136474609375,0.7818009257316589,-0.1254538595676422,0.26481375098228455
1761400725272204300,6.542204345703125,2.011392116546631,0.9740868806838989,0.5404525399208069
1761400725282298400,6.55229833984375,1.6056362390518188,1.3471510410308838,0.3285982012748718
1761400725292379100,6.562379150390625,0.686790406703949,1.0003001689910889,0.13316462934017181
1761400725302458600,6.572458740234375,-0.261516273021698,-0.003264165250584483,-0.6810281276702881
1761400725312540700,6.582540771484375,-1.3044004440307617,-0.9772011637687683,-1.4925895929336548
1761400725322621700,6.59262158203125,-2.140493154525757,-1.4725881814956665,-2.0390708446502686
1761400725332690200,6.602690185546875,-2.7375855445861816,-0.8081806898117065,-2.35103178024292
1761400725342771000,6.61277099609375,-3.136229991912842,0.44842302799224854,-2.666872978210449
1761400725352865500,6.622865478515625,-3.278237819671631,1.5490796566009521,-2.8223705291748047
1761400725362944000,6.632944091796875,-3.1271369457244873,2.3921003341674805,-2.481898069381714
1761400725373026600,6.643026611328125,-2.70497727394104,2.6333487033843994,-1.7466282844543457
1761400725383082200,6.653082275390625,-1.9935556650161743,2.109083890914917,-0.9056393504142761
1761400725393163300,6.663163330078125,-1.236635684967041,1.1634751558303833,-0.18748965859413147
1761400725403244300,6.673244384765625,-0.7352199554443359,0.385654479265213,0.06834762543439865
1761400725413324800,6.68332470703125,-0.5202013850212097,-0.13892687857151031,-0.20835700631141663
1761400725423410200,6.69341015625,-0.5916132926940918,-0.6603939533233643,-0.7987545728683472
1761400725433510400,6.703510498046875,-0.8311631083488464,-1.2975057363510132,-1.373081088066101
1761400725443584500,6.71358447265625,-0.7798190712928772,-1.6619930267333984,-1.5359063148498535
1761400725453674200,6.72367431640625,-0.5027813911437988,-1.8794431686401367,-1.3359262943267822
1761400725463744300,6.733744140625,-0.2419479340314865,-2.0648510456085205,-1.0403693914413452
1761400725473835300,6.743835205078125,0.09454421699047089,-2.1985819339752197,-0.8161246180534363
1761400725483891000,6.753890869140625,0.525147557258606,-2.2672126293182373,-0.7899946570396423
1761400725493995500,6.76399560546875,0.8882027268409729,-2.0777578353881836,-0.8738970160484314
1761400725504078300,6.774078369140625,1.0551414489746094,-1.6620763540267944,-0.9252576231956482
1761400725514159000,6.7841591796875,1.0998238325119019,-1.030094027519226,-0.9206278324127197
1761400725524238300,6.79423828125,1.0578560829162598,-0.2357693314552307,-0.7544885277748108
1761400725534308900,6.804308837890625,0.9955871105194092,0.5240484476089478,-0.30708134174346924
1761400725544402400,6.81440234375,1.0484299659729004,0.8451024293899536,0.309845894575119
1761400725554482200,6.824482177734375,1.2385176420211792,0.4835294783115387,0.928272008895874
1761400725564562200,6.834562255859375,1.2518739700317383,-0.38255685567855835,1.4583491086959839
1761400725574642400,6.844642333984375,1.1234890222549438,-0.8957302570343018,2.109983205795288
1761400725584714800,6.85471484375,1.0687310695648193,-1.1736506223678589,2.9550023078918457
1761400725594807000,6.86480712890625,0.9270229339599609,-1.8201218843460083,3.595777988433838
1761400725604876300,6.874876220703125,0.7763717174530029,-2.264364719390869,4.010593414306641
1761400725614968300,6.88496826171875,0.7126705646514893,-2.383023977279663,4.211223125457764
1761400725625047000,6.895047119140625,0.7826002836227417,-2.3551952838897705,4.07764196395874
1761400725635130000,6.905130126953125,0.9560673832893372,-2.404207706451416,3.553210496902466
1761400725645211400,6.91521142578125,1.18197762966156,-2.4025423526763916,2.8205220699310303
1761400725655279400,6.925279296875,1.3391071557998657,-2.2402498722076416,2.105370044708252
1761400725665373000,6.935373046875,1.3803589344024658,-1.991190791130066,1.3637715578079224
1761400725675432200,6.94543212890625,1.3642878532409668,-1.8744136095046997,0.8223698139190674
1761400725685531000,6.95553076171875,1.3827903270721436,-1.9966366291046143,0.6385606527328491
1761400725695614200,6.9656142578125,1.4306037425994873,-2.161210536956787,0.5719617009162903
1761400725705688000,6.97568798828125,1.4653937816619873,-2.1782641410827637,0.44281068444252014
1761400725715777800,6.98577783203125,1.4260904788970947,-2.0115418434143066,0.23290486633777618
1761400725725845800,6.995845703125,1.303134799003601,-1.7332884073257446,-0.0027312403544783592
1761400725735939600,7.005939697265625,1.1602941751480103,-1.3421381711959839,-0.20329421758651733
1761400725746018300,7.016018310546875,1.0643343925476074,-0.7983715534210205,-0.283815860748291
1761400725756085000,7.0260849609375,0.9466578960418701,-0.45120424032211304,-0.21017228066921234
1761400725766184400,7.036184326171875,0.839073657989502,-0.34450268745422363,-0.03390735015273094
1761400725776255700,7.046255859375,0.7780537605285645,-0.3968791961669922,0.14242419600486755
1761400725786344000,7.056343994140625,0.7896948456764221,-0.44997185468673706,0.44878941774368286
1761400725796411600,7.06641162109375,0.6964829564094543,-0.5089600086212158,0.8262002468109131
1761400725806468400,7.07646826171875,0.43206891417503357,-0.44947224855422974,1.2011629343032837
1761400725816575000,7.086574951171875,0.07617495954036713,-0.09034743160009384,1.3891189098358154
1761400725826674000,7.096673828125,-0.31156125664711,0.4650103449821472,1.173117756843567
1761400725836748500,7.10674853515625,-0.4719383418560028,1.0437169075012207,0.6768146753311157
1761400725846829300,7.116829345703125,-0.2724745273590088,1.6195589303970337,0.41310012340545654
1761400725856910300,7.126910400390625,0.15559743344783783,1.9873937368392944,0.3426041305065155
1761400725866991000,7.1369912109375,0.5964429378509521,2.237135648727417,0.1417580395936966
1761400725877057300,7.147057373046875,0.9037075042724609,2.3565940856933594,-0.18540792167186737
1761400725887150600,7.157150634765625,1.1699367761611938,2.4422950744628906,-0.6220732927322388
1761400725897234000,7.16723388671875,1.2579526901245117,1.8539127111434937,-0.927172839641571
1761400725907315200,7.177315185546875,0.8683512806892395,0.6368452906608582,-1.1154619455337524
1761400725917370400,7.187370361328125,0.1714019924402237,0.3291311264038086,-1.7131705284118652
1761400725927462400,7.19746240234375,-0.4841456711292267,0.4012092351913452,-2.1863746643066406
1761400725937555700,7.2075556640625,-1.0136566162109375,0.6804618835449219,-2.4403634071350098
1761400725947626800,7.217626708984375,-1.5046969652175903,1.0166542530059814,-2.7362866401672363
1761400725957718300,7.22771826171875,-1.8017526865005493,1.4632620811462402,-2.135014057159424
1761400725967783200,7.237783203125,-1.917747139930725,1.4147158861160278,-1.1075679063796997
1761400725977880800,7.247880859375,-1.8427878618240356,0.790377676486969,-0.9925727248191833
1761400725987962400,7.25796240234375,-1.5264968872070312,-0.07394333928823471,-1.1569467782974243
1761400725998030800,7.26803076171875,-1.137012004852295,-0.6451556086540222,-0.8435036540031433
1761400726008111400,7.278111328125,-0.9498721361160278,-0.6392768025398254,-0.8468011021614075
1761400726018198800,7.28819873046875,-1.053043007850647,-0.5417015552520752,-1.0801723003387451
1761400726028285400,7.298285400390625,-1.2860811948776245,-0.30043643712997437,-1.365486979484558
1761400726038366700,7.30836669921875,-1.5722618103027344,0.10423678904771805,-1.6491029262542725
1761400726048447500,7.318447509765625,-1.9399300813674927,0.14105857908725739,-1.7734910249710083
1761400726058528300,7.3285283203125,-2.1584959030151367,0.24279728531837463,-1.9133172035217285
1761400726068595000,7.338594970703125,-1.6992312669754028,1.2891122102737427,-2.4726219177246094
1761400726078690300,7.348690185546875,-0.8204046487808228,2.3579764366149902,-2.8950982093811035
1761400726088771000,7.35877099609375,-0.41010239720344543,2.520934820175171,-2.4945549964904785
1761400726098839300,7.36883935546875,-0.8024517297744751,1.622806429862976,-1.4018757343292236
1761400726108933400,7.378933349609375,-1.1064188480377197,1.2309234142303467,-0.501215934753418
1761400726119014000,7.389013916015625,-1.0174369812011719,1.1776975393295288,-0.7098060846328735
1761400726129082000,7.39908203125,-0.8870202898979187,0.45203694701194763,-1.3452857732772827
1761400726139176000,7.409176025390625,-0.7354863882064819,-0.8640046119689941,-1.5468980073928833
1761400726149244000,7.419243896484375,-0.5695801973342896,-1.5941118001937866,-1.5334415435791016
1761400726159315500,7.4293154296875,-0.4089532792568207,-1.7127541303634644,-1.5893653631210327
1761400726169420500,7.439420654296875,-0.2007794827222824,-1.3362760543823242,-1.5700469017028809
1761400726179483600,7.449483642578125,0.14567171037197113,-0.4797323942184448,-1.4781839847564697
1761400726189580500,7.45958056640625,0.6027714014053345,0.17769716680049896,-1.232122540473938
1761400726199657000,7.469656982421875,1.0673154592514038,0.1501682549715042,-0.5010660290718079
1761400726209730300,7.479730224609375,1.5581393241882324,-0.08789931237697601,0.646304726600647
1761400726219813000,7.489813232421875,1.818473219871521,-0.16379114985466003,1.9409127235412598
1761400726229903600,7.499903564453125,1.7554380893707275,-0.30007004737854004,2.9273734092712402
1761400726239972000,7.50997216796875,1.5971927642822266,-0.9144325852394104,3.3595921993255615
1761400726250061800,7.520061767578125,1.4040740728378296,-1.478067398071289,3.3306477069854736
1761400726260145000,7.530144775390625,1.199713945388794,-1.8123278617858887,3.0669164657592773
1761400726270215700,7.540215576171875,1.1032212972640991,-1.9929062128067017,2.83900785446167
1761400726280308700,7.550308837890625,1.162276029586792,-2.1826939582824707,2.865870475769043
1761400726290389500,7.560389404296875,1.3287817239761353,-2.3518145084381104,3.0989584922790527
1761400726300452900,7.570452880859375,1.517004132270813,-2.4640450477600098,3.21433687210083
1761400726310537200,7.580537109375,1.7134536504745483,-2.397279739379883,3.089632511138916
1761400726320618000,7.590617919921875,1.9072717428207397,-2.1014564037323,2.79660701751709
1761400726330712000,7.600712158203125,2.0009500980377197,-1.6715856790542603,2.35036563873291
1761400726340781300,7.61078125,1.932136058807373,-1.1958669424057007,1.7815847396850586
1761400726350849500,7.620849609375,1.7415987253189087,-0.8878862857818604,1.221347451210022
1761400726360955000,7.630954833984375,1.526979923248291,-0.6813778877258301,0.8012027144432068
1761400726371024000,7.64102392578125,1.3801757097244263,-0.45816558599472046,0.5061954259872437
1761400726381117400,7.651117431640625,1.3008865118026733,-0.24751032888889313,0.255820631980896
1761400726391194600,7.661194580078125,1.243630290031433,-0.04946209862828255,0.030010337010025978
1761400726401269500,7.67126953125,1.1753826141357422,0.16527335345745087,-0.15894487500190735
1761400726411348000,7.681347900390625,1.058355689048767,0.351214200258255,-0.36375460028648376
1761400726421433300,7.691433349609375,0.8732641339302063,0.4231257736682892,-0.5655665993690491
1761400726431497000,7.7014970703125,0.6972823143005371,0.5558740496635437,-0.6519837379455566
1761400726441591000,7.711591064453125,0.5319423675537109,0.6565635204315186,-0.5161710977554321
1761400726451680000,7.721679931640625,0.324701189994812,0.6912869215011597,-0.1164274513721466
1761400726461743400,7.731743408203125,0.12636983394622803,0.8874033093452454,0.34651780128479004
1761400726471839500,7.741839599609375,-0.07027947902679443,1.1606606245040894,0.5227827429771423
1761400726481926400,7.751926513671875,-0.2862473130226135,1.300286889076233,0.24656106531620026
1761400726492004000,7.762004150390625,-0.40114259719848633,1.364920735359192,-0.19476741552352905
1761400726502076200,7.772076171875,-0.34012269973754883,1.560454249382019,-0.41266709566116333
1761400726512156700,7.78215673828125,-0.21824942529201508,1.6589287519454956,-0.3376745879650116
1761400726522246400,7.792246337890625,0.02822836861014366,1.4986516237258911,-0.055457502603530884
1761400726532331800,7.802331787109375,0.29382485151290894,1.3504817485809326,0.09974023699760437
1761400726542402600,7.812402587890625,0.2827666401863098,2.042335033416748,-0.3907672166824341
1761400726552480300,7.822480224609375,-0.20990581810474396,3.1672563552856445,-1.4684913158416748
1761400726562564400,7.832564453125,-0.8958634734153748,2.808847665786743,-2.062319755554199
1761400726572655000,7.842655029296875,-1.7672457695007324,1.4576996564865112,-2.1345808506011963
1761400726582734000,7.852734130859375,-2.190704584121704,0.7771211862564087,-2.17073655128479
1761400726592825300,7.862825439453125,-2.4279894828796387,0.7065585851669312,-2.093928813934326
1761400726602897400,7.8728974609375,-2.932236433029175,0.8459850549697876,-2.017770528793335
1761400726612954400,7.882954345703125,-3.080422878265381,1.0485131740570068,-2.218250274658203
1761400726623060000,7.89306005859375,-2.3502490520477295,0.9455754160881042,-2.1188762187957764
1761400726633128000,7.9031279296875,-1.059588074684143,0.8963464498519897,-1.8824907541275024
1761400726643219500,7.913219482421875,-0.33617570996284485,0.9981517791748047,-1.6638250350952148
1761400726653302000,7.923302001953125,-0.24661102890968323,1.1328818798065186,-1.2565704584121704
1761400726663383000,7.933383056640625,-0.4279220700263977,1.2158682346343994,-0.9410955309867859
1761400726673451500,7.943451416015625,-0.6211073994636536,1.1228063106536865,-0.9576661586761475
1761400726683544800,7.953544921875,-0.7254607677459717,0.6828100681304932,-1.052526831626892
1761400726693613300,7.96361328125,-0.8091133236885071,0.20905646681785583,-0.9408124089241028
1761400726703694800,7.97369482421875,-0.9916567802429199,-0.18810585141181946,-0.6902210712432861
1761400726713786400,7.983786376953125,-1.1907209157943726,-0.488592267036438,-0.5316592454910278
1761400726723869200,7.993869140625,-1.4511213302612305,-0.52714604139328,-0.2890118658542633
1761400726733958700,8.003958740234374,-1.73325514793396,-0.11581125110387802,0.003280819160863757
1761400726744018000,8.014017822265625,-1.743330717086792,0.31202757358551025,0.011008230969309807
1761400726754116000,8.0241162109375,-1.379326343536377,0.28056833148002625,-0.49295559525489807
1761400726764192500,8.034192626953125,-0.9316194653511047,-0.26612940430641174,-1.276971459388733
1761400726774271700,8.044271728515625,-0.4686075747013092,-0.46316173672676086,-1.798088788986206
1761400726784354300,8.054354248046875,-0.0915631651878357,-0.592662513256073,-1.8698338270187378
1761400726794435300,8.064435302734376,-0.047530245035886765,-0.8546950221061707,-1.5913804769515991
1761400726804513800,8.074513671875,-0.09471075981855392,-1.036722183227539,-1.0960767269134521
1761400726814578400,8.084578369140624,0.04378311708569527,-1.0528265237808228,-0.3915999233722687
1761400726824665000,8.0946650390625,0.36102333664894104,-0.7953405380249023,0.6113482117652893
1761400726834759000,8.104759033203125,0.7604339718818665,-0.38735318183898926,1.9295547008514404
1761400726844825900,8.114825927734374,1.1460884809494019,-0.22544391453266144,3.238851308822632
1761400726854920400,8.12492041015625,1.4922065734863281,-0.5074111819267273,4.098093032836914
1761400726865001700,8.135001708984374,1.6607106924057007,-0.9081041216850281,4.35662841796875
1761400726875070700,8.14507080078125,1.6918869018554688,-1.2278591394424438,4.222963809967041
1761400726885145600,8.1551455078125,1.7552216053009033,-1.7057595252990723,3.85349702835083
1761400726895224000,8.16522412109375,1.9812318086624146,-2.262749433517456,3.3509488105773926
1761400726905323300,8.1753232421875,2.3503823280334473,-2.6234896183013916,2.972572088241577
1761400726915380700,8.185380615234376,2.7412660121917725,-3.068765163421631,2.8537964820861816
1761400726925461500,8.19546142578125,2.9659605026245117,-3.3562114238739014,2.8829407691955566
1761400726935542500,8.20554248046875,2.7790536880493164,-2.9345178604125977,2.651967763900757
1761400726945637400,8.215637451171874,2.194201946258545,-2.0453991889953613,1.7070752382278442
1761400726955727600,8.2257275390625,1.6414421796798706,-1.6006734371185303,0.8408556580543518
1761400726965809200,8.23580908203125,1.2456620931625366,-1.3718987703323364,0.3609234392642975
1761400726975883000,8.245883056640626,1.039603352546692,-1.054558515548706,0.07276090979576111
1761400726985966000,8.255966064453125,0.8845221996307373,-0.8630886077880859,-0.040019333362579346
1761400726996041000,8.266041015625,0.7295243144035339,-0.725477397441864,-0.0015821210108697414
1761400727006119000,8.276118896484375,0.5819041132926941,-0.4130501449108124,0.057089585810899734
1761400727016205000,8.286205078125,0.4781169593334198,-0.0317256897687912,0.05547415837645531
1761400727026283000,8.296282958984374,0.39393147826194763,0.31271037459373474,-0.0015488131903111935
1761400727036357600,8.306357666015625,0.25177374482154846,0.552659809589386,-0.14881929755210876
1761400727046458400,8.316458251953126,-0.07963897287845612,0.6993141174316406,-0.29938724637031555
1761400727056539100,8.3265390625,-0.28912845253944397,0.9491060376167297,-0.20634187757968903
1761400727066607000,8.336607177734376,-0.35339584946632385,1.1243717670440674,0.05457484722137451
1761400727076701000,8.346700927734375,-0.3229025602340698,1.1682381629943848,0.3658696413040161
1761400727086768600,8.3567685546875,-0.29542362689971924,1.152133822441101,0.6662894487380981
1761400727096863000,8.366863037109376,-0.282333642244339,1.2252777814865112,0.9639279842376709
1761400727106927900,8.376927978515624,-0.19606642425060272,1.385171890258789,1.1048367023468018
1761400727117024800,8.387024658203124,-0.07829000800848007,1.495004415512085,0.8330116868019104
1761400727127105000,8.39710498046875,-0.042983729392290115,1.558322548866272,0.2564701437950134
1761400727137177600,8.407177490234375,-0.19788169860839844,1.7489597797393799,-0.23323793709278107
1761400727147266800,8.417266845703125,-0.43814757466316223,1.989425539970398,-0.4334844946861267
1761400727157333800,8.427333740234374,-0.4700564742088318,2.261683464050293,-0.42595693469047546
1761400727167429000,8.43742919921875,-0.26336485147476196,3.0300447940826416,-0.7509245872497559
1761400727177510000,8.447510009765624,0.14901913702487946,3.2894294261932373,-1.381191611289978
1761400727187578000,8.457578125,0.3026014566421509,2.4812986850738525,-1.7257275581359863
1761400727197671700,8.467671630859375,-0.2284083068370819,1.5694639682769775,-1.741548776626587
1761400727207727400,8.477727294921875,-0.9414119124412537,1.404157280921936,-1.6934523582458496
1761400727217821700,8.48782177734375,-1.276288628578186,1.5075947046279907,-1.7568870782852173
1761400727227914200,8.497914306640626,-1.6279524564743042,1.0315428972244263,-2.391284227371216
1761400727238000400,8.50800048828125,-1.9275562763214111,0.4483897387981415,-2.8341782093048096
1761400727248071700,8.51807177734375,-1.8250514268875122,0.5323920249938965,-2.880009651184082
1761400727258154200,8.528154296875,-1.5958937406539917,0.4675750434398651,-2.626220941543579
1761400727268237800,8.53823779296875,-1.3908674716949463,0.6047532558441162,-2.139443874359131
1761400727278315300,8.548315185546874,-1.2147024869918823,0.9984015822410583,-1.5275294780731201
1761400727288400600,8.558400634765626,-1.3039507865905762,1.0375549793243408,-0.9935386776924133
1761400727298480600,8.568480712890626,-1.5087438821792603,1.075475811958313,-0.5039138793945312
1761400727308561700,8.578561767578124,-1.6320160627365112,1.2823173999786377,-0.1685541719198227
1761400727318642700,8.588642578125,-1.7322392463684082,1.5953774452209473,0.08003866672515869
1761400727328723700,8.5987236328125,-2.072361946105957,1.5200185775756836,0.1699530929327011
1761400727338805200,8.60880517578125,-2.5097434520721436,1.2602843046188354,0.1613430231809616
1761400727348881200,8.618881103515625,-2.5710299015045166,0.8634050488471985,-0.1895214319229126
1761400727358965800,8.6289658203125,-2.2936923503875732,0.08395233750343323,-0.7842990159988403
1761400727369047000,8.639047119140624,-1.9789001941680908,-0.5049963593482971,-1.1726514101028442
1761400727379128300,8.64912841796875,-1.8061492443084717,-0.7370518445968628,-1.2580360174179077
1761400727389209600,8.659209716796875,-1.6872903108596802,-0.9540688991546631,-1.2842658758163452
1761400727399264800,8.6692646484375,-1.51913583278656,-0.9847787022590637,-1.282533884048462
1761400727409367600,8.679367431640625,-1.34028959274292,-0.7804020047187805,-1.2794861793518066
1761400727419452000,8.689451904296876,-1.109916090965271,-0.31339317560195923,-1.2057260274887085
1761400727429533000,8.699532958984374,-0.8514642119407654,0.211038276553154,-0.9067718386650085
1761400727439588600,8.709588623046875,-0.606518566608429,0.6211739778518677,-0.557606041431427
1761400727449694200,8.719694091796875,-0.34603482484817505,0.842038094997406,-0.2520068883895874
1761400727459775700,8.729775634765625,-0.04909571260213852,0.8774609565734863,0.06238552927970886
1761400727469856000,8.73985595703125,0.2812345027923584,0.7485930323600769,0.45446839928627014
1761400727479911700,8.74991162109375,0.631566047668457,0.5569732189178467,0.9764184355735779
1761400727490045200,8.760045166015624,1.0448492765426636,0.28203389048576355,1.6451725959777832
1761400727500099300,8.770099365234374,1.4849121570587158,-0.3479333817958832,2.2598016262054443
1761400727510177500,8.780177490234376,1.7450793981552124,-1.0986580848693848,2.655182123184204
1761400727520260900,8.7902607421875,1.8071485757827759,-1.6696538925170898,2.9129178524017334
1761400727530342000,8.800341796875,1.7573367357254028,-2.046015501022339,3.0840368270874023
1761400727540418600,8.81041845703125,1.6429576873779297,-2.2571868896484375,3.1792638301849365
1761400727550528000,8.820528076171875,1.479366421699524,-2.507312059402466,3.1128811836242676
1761400727560585200,8.830585205078124,1.4022754430770874,-2.5445168018341064,2.8603415489196777
1761400727570665700,8.840665771484375,1.3039008378982544,-2.334228038787842,2.6188764572143555
1761400727580712400,8.85071240234375,1.127852439880371,-2.1711695194244385,2.484929084777832
1761400727590827300,8.8608271484375,1.031592845916748,-1.9860115051269531,2.3860549926757812
1761400727600882400,8.87088232421875,0.9653602242469788,-1.7265102863311768,2.2945916652679443
1761400727610989600,8.880989501953126,0.9404460191726685,-1.4796661138534546,2.2096900939941406
1761400727621044700,8.891044677734374,0.9562339186668396,-1.1932356357574463,2.0971930027008057
1761400727631150800,8.90115087890625,0.946591317653656,-0.9403960704803467,1.8732478618621826
1761400727641231400,8.9112314453125,0.9004433155059814,-0.9002268314361572,1.603737711906433
1761400727651301400,8.92130126953125,0.8126938939094543,-0.9068050980567932,1.3460018634796143
1761400727661394000,8.931393798828125,0.7279921174049377,-0.7431971430778503,1.0769747495651245
1761400727671449600,8.94144970703125,0.661409854888916,-0.6547149419784546,0.79532390832901
1761400727681555500,8.951555419921876,0.6404592394828796,-0.5519270300865173,0.5295608639717102
1761400727691636500,8.961636474609374,0.6114980578422546,-0.46482715010643005,0.32585030794143677
1761400727701696000,8.971696044921876,0.5882492065429688,-0.33346113562583923,0.2032775580883026
1761400727711799000,8.981799072265625,0.7046933174133301,-0.11619429290294647,0.2862139940261841
1761400727721857000,8.99185693359375,0.6393433809280396,-0.1394098401069641,0.42066097259521484
1761400727731956000,9.0019560546875,0.473736971616745,-0.22670960426330566,0.5719117522239685
1761400727742041300,9.012041259765626,0.40788742899894714,-0.14039242267608643,0.8099793195724487
1761400727752121300,9.022121337890624,0.3142591714859009,0.04554842785000801,1.0852516889572144
1761400727762202600,9.03220263671875,0.13256508111953735,0.3641376197338104,1.3304637670516968
1761400727772258600,9.042258544921875,-0.08804919570684433,1.031309723854065,1.4533196687698364
1761400727782364700,9.05236474609375,-0.4528363347053528,2.124605178833008,1.4734874963760376
1761400727792445400,9.062445556640625,-0.728425145149231,3.4766359329223633,1.1419415473937988
1761400727802500900,9.0725009765625,-0.6231724619865417,4.790995121002197,0.15181699395179749
1761400727812607500,9.082607421875,-0.29625630378723145,5.183777809143066,-0.9109852313995361
1761400727822662700,9.09266259765625,0.11834264546632767,4.68624210357666,-1.7148692607879639
1761400727832732000,9.10273193359375,0.11827602982521057,3.9349679946899414,-2.198964834213257
1761400727842850300,9.112850341796875,-0.6077010035514832,2.8562111854553223,-2.1347475051879883
1761400727852907800,9.12290771484375,-1.4139498472213745,1.9441102743148804,-1.9538028240203857
1761400727863006000,9.133005859375,-1.7233294248580933,1.7252446413040161,-2.195451021194458
1761400727873107700,9.143107666015625,-1.4029582738876343,1.5636684894561768,-2.6750335693359375
1761400727883149000,9.153149169921875,-0.7410321235656738,1.212687373161316,-2.3582262992858887
1761400727893255000,9.1632548828125,-0.9202947616577148,0.5806883573532104,-1.8978290557861328
1761400727903335400,9.17333544921875,-1.5643346309661865,0.04584819823503494,-2.071662425994873
1761400727913393200,9.18339306640625,-1.6942017078399658,-0.3180729150772095,-2.2550220489501953
1761400727923460600,9.193460693359375,-1.6029882431030273,-0.419228732585907,-1.8021856546401978
1761400727933552600,9.203552734375,-1.434617280960083,-0.5105754137039185,-0.9928891658782959
1761400727943638300,9.21363818359375,-1.3495159149169922,-0.16277526319026947,-0.4355662167072296
1761400727953741000,9.223740966796875,-1.3475673198699951,0.5122075080871582,-0.14938552677631378
1761400727963784200,9.2337841796875,-1.4161148071289062,0.9758688807487488,-0.1707025170326233
1761400727973902600,9.243902587890625,-1.7041773796081543,0.950838029384613,-0.5264632105827332
1761400727983982800,9.25398291015625,-2.1561644077301025,0.7497920989990234,-1.148952841758728
1761400727994057700,9.2640576171875,-2.4668595790863037,0.39519715309143066,-1.6491363048553467
1761400728004119300,9.274119384765624,-2.3274497985839844,0.33687520027160645,-1.8553615808486938
1761400728014200000,9.284199951171875,-1.9473577737808228,0.4228593111038208,-1.9593818187713623
1761400728024307000,9.294306884765625,-1.500566840171814,-0.023981623351573944,-1.684325933456421
1761400728034387500,9.304387451171875,-1.3437702655792236,-0.36332160234451294,-1.2465447187423706
1761400728044465700,9.314465576171875,-1.348599910736084,0.005862174555659294,-1.062735676765442
1761400728054524000,9.32452392578125,-1.3288650512695312,0.2593679130077362,-1.138810634613037
1761400728064621300,9.334621337890624,-1.1343307495117188,0.09126339852809906,-1.507628083229065
1761400728074686000,9.34468603515625,-0.9011927247047424,-0.19128675758838654,-2.032592535018921
1761400728084792300,9.354792236328125,-0.7888288497924805,-0.36192265152931213,-2.390618085861206
1761400728094847200,9.36484716796875,-0.7285250425338745,-0.43080320954322815,-2.453136920928955
1761400728104953600,9.37495361328125,-0.5627021193504333,-0.5432170629501343,-2.2052600383758545
1761400728115009800,9.385009765625,-0.3113447427749634,-0.5765581727027893,-1.7097232341766357
1761400728125089800,9.39508984375,-0.003147588111460209,-0.570229709148407,-1.1391104459762573
1761400728135196700,9.40519677734375,0.40289127826690674,-0.7559540271759033,-0.6041536927223206
1761400728145277400,9.41527734375,0.84923255443573,-0.962845504283905,0.01670386642217636
1761400728155358200,9.425358154296875,1.2770713567733765,-0.8731975555419922,0.8389238119125366
1761400728165440300,9.435440185546875,1.5115916728973389,-0.519052267074585,1.4993177652359009
1761400728175520800,9.445520751953126,1.4729212522506714,-0.23052334785461426,1.6211243867874146
1761400728185601500,9.4556015625,1.340839147567749,-0.2763715386390686,1.389835000038147
1761400728195682000,9.46568212890625,1.2167342901229858,-0.6817775368690491,1.0801723003387451
1761400728205763600,9.475763671875,1.164757490158081,-0.9996839165687561,1.089148759841919
1761400728215843800,9.48584375,1.0200517177581787,-1.2720085382461548,1.3022021055221558
1761400728225924900,9.4959248046875,0.8705662488937378,-1.4181299209594727,1.614229679107666
1761400728236005000,9.506005126953125,0.7766881585121155,-1.3661531209945679,2.0118916034698486
1761400728246087000,9.5160869140625,0.7807350754737854,-1.2512577772140503,2.33725905418396
1761400728256144000,9.526143798828125,0.8195719718933105,-1.125004529953003,2.4684250354766846
1761400728266248200,9.536248291015625,0.8517805933952332,-1.067865014076233,2.453286647796631
1761400728276332000,9.54633203125,0.8458185195922852,-0.9612966775894165,2.3142266273498535
1761400728286375200,9.556375244140625,0.7837827205657959,-0.7372350692749023,2.0840530395507812
1761400728296466000,9.5664658203125,0.5966261625289917,-0.5763250589370728,1.7083408832550049
1761400728306546700,9.576546630859376,0.23100630939006805,-0.4042568802833557,1.1495357751846313
1761400728316627200,9.586627197265624,-0.1521001160144806,-0.12775211036205292,0.5422178506851196
1761400728326710300,9.596710205078125,-0.2877628207206726,0.1752990037202835,0.08082140237092972
1761400728336784000,9.606783935546876,-0.2082737386226654,0.2960231602191925,-0.19286887347698212
1761400728346859000,9.61685888671875,-0.06308498978614807,0.23063993453979492,-0.26947683095932007
1761400728356941300,9.62694140625,0.08933154493570328,-0.012557044625282288,-0.34366998076438904
1761400728367021000,9.63702099609375,0.23260508477687836,-0.20857350528240204,-0.40956947207450867
1761400728377122600,9.64712255859375,0.3216368556022644,-0.3050995469093323,-0.32869812846183777
1761400728387203300,9.657203369140625,0.2631983160972595,-0.4256404936313629,-0.19733211398124695
1761400728397291000,9.667291015625,-0.040852028876543045,-0.5733273029327393,-0.18755628168582916
1761400728407370200,9.677370361328125,-0.31410929560661316,-0.6988478302955627,-0.298188179731369
1761400728417462300,9.687462158203125,-0.3392733633518219,-0.9968860745429993,-0.37214815616607666
1761400728427507500,9.697507568359375,-0.08688341826200485,-1.2999038696289062,-0.14177469909191132
1761400728437599500,9.707599609375,0.2811678647994995,-1.4254909753799438,0.27009302377700806
1761400728447698200,9.7176982421875,0.47343721985816956,-1.2211642265319824,0.6318491697311401
1761400728457785900,9.727785888671875,0.45273640751838684,-0.5294276475906372,1.0325753688812256
1761400728467866600,9.73786669921875,0.24043242633342743,0.7920097708702087,1.4302040338516235
1761400728477947600,9.74794775390625,-0.09254574775695801,1.6039875745773315,1.8567105531692505
1761400728488016600,9.7580166015625,-0.29327526688575745,1.6261705160140991,1.6805455684661865
1761400728498100000,9.768099853515626,-0.2465943694114685,1.2500754594802856,0.7657132148742676
1761400728508165600,9.77816552734375,-0.17714758217334747,1.390917420387268,-0.6368452906608582
1761400728518271500,9.788271484375,-0.15313266217708588,1.2950409650802612,-1.195733666419983
1761400728528339500,9.79833935546875,0.1867402344942093,1.2091400623321533,-1.162009596824646
1761400728538433000,9.80843310546875,0.9049398899078369,1.377760887145996,-1.338790774345398
1761400728548515800,9.818515869140626,1.4980686902999878,1.1234058141708374,-1.2848488092422485
1761400728558595800,9.828595947265624,1.193618655204773,0.2925258278846741,-1.3932989835739136
1761400728568676000,9.838676025390624,0.18915505707263947,-0.2733238935470581,-1.4166144132614136
1761400728578743800,9.848743896484375,-0.8035175800323486,-0.34813323616981506,-1.3259339332580566
1761400728588837400,9.85883740234375,-1.4622294902801514,-0.4968692362308502,-1.3819743394851685
1761400728598905600,9.868905517578124,-1.9055731296539307,-0.7352699041366577,-1.2178667783737183
1761400728608999400,9.87899951171875,-2.1113486289978027,-0.8962298631668091,-0.8092299103736877
1761400728619080400,9.88908056640625,-2.103454828262329,-0.8035675883293152,-0.2999701201915741
1761400728629151000,9.89915087890625,-1.9592986106872559,-0.3914167284965515,0.07082905620336533
1761400728639222500,9.909222412109376,-1.8102794885635376,0.4561004936695099,0.05161045119166374
1761400728649298200,9.919298095703125,-1.5458654165267944,1.5830202102661133,-0.1777970939874649
1761400728659404000,9.929404052734375,-1.2500253915786743,2.04075288772583,-0.20589222013950348
1761400728669484800,9.93948486328125,-0.9910072684288025,1.41844642162323,-0.04594812169671059
1761400728679553000,9.949552978515625,-0.7264266610145569,0.5994240045547485,-0.1691870242357254
1761400728689641000,9.959640869140625,-0.6588284969329834,0.13990946114063263,-0.5699299573898315
1761400728699728000,9.969727783203124,-0.8002367615699768,-0.17401665449142456,-0.9071548581123352
1761400728709808400,9.979808349609375,-0.7974555492401123,-0.46322837471961975,-0.9820141792297363
1761400728719899600,9.989899658203125,-0.626136839389801,-0.8105122447013855,-0.9949542284011841
1761400728729959000,9.999958984375,-0.4784666895866394,-1.1674220561981201,-1.0172204971313477
1761400728740039400,10.010039306640625,-0.3507812023162842,-1.6202083826065063,-0.9538857340812683
1761400728750132200,10.02013232421875,-0.23515313863754272,-1.853529691696167,-0.8445194959640503
1761400728760191000,10.03019091796875,-0.07595846056938171,-1.79329252243042,-0.6479035019874573
1761400728770293800,10.040293701171874,0.15128406882286072,-1.5629522800445557,-0.3646872043609619
1761400728780374500,10.05037451171875,0.43101972341537476,-1.1294845342636108,0.12938418984413147
1761400728790443300,10.060443359375,0.7738403677940369,-0.7088235020637512,0.8385241031646729
1761400728800535300,10.070535400390625,1.0883493423461914,-0.3583753705024719,1.4090203046798706
1761400728810602800,10.080602783203124,1.2672955989837646,-0.10981585085391998,1.6557978391647339
1761400728820694800,10.09069482421875,1.3135766983032227,-0.19102029502391815,1.5634852647781372
1761400728830779400,10.100779296875,1.3282654285430908,-0.4181962013244629,1.3404228687286377
1761400728840850000,10.110849853515624,1.3463016748428345,-0.6528497338294983,1.150468349456787
1761400728850941200,10.120941162109375,1.3048667907714844,-0.9101026058197021,1.037754774093628
1761400728881180000,10.151179931640625,1.0480468273162842,-0.9165809750556946,1.145871877670288
1761400728891252200,10.161252197265625,0.9127005934715271,-0.7607337236404419,1.1537492275238037
1761400728901353000,10.17135302734375,0.7705761790275574,-0.5051628947257996,1.0777407884597778
1761400728911414500,10.18141455078125,0.6791129112243652,-0.13812749087810516,0.9035742878913879
1761400728921507600,10.191507568359375,0.6446393728256226,0.056140314787626266,0.7098227143287659
1761400728931576000,10.201576171875,0.6186758875846863,0.05549081042408943,0.5124239921569824
1761400728941644500,10.21164453125,0.6554144024848938,0.06281852722167969,0.37208154797554016
1761400728951735300,10.2217353515625,0.7521569728851318,0.029743874445557594,0.3001366853713989
1761400728961822700,10.23182275390625,0.8107786774635315,-0.02041768655180931,0.22980722784996033
1761400728971912200,10.241912109375,0.8091299533843994,-0.027412327006459236,0.14608804881572723
1761400728981993200,10.2519931640625,0.7700932025909424,-0.028794601559638977,0.05409188196063042
1761400728992061400,10.2620615234375,0.7057092189788818,-0.07689107954502106,-0.1251041293144226
1761400729002155000,10.272155029296876,0.626619815826416,-0.0856010690331459,-0.3121941089630127
1761400729012221400,10.282221435546875,0.547313928604126,-0.18475842475891113,-0.4730541706085205
1761400729022316800,10.29231689453125,0.46391117572784424,-0.3097626268863678,-0.5180030465126038
1761400729032394800,10.302394775390624,0.4125671982765198,-0.4990842342376709,-0.4157147705554962
1761400729042478600,10.312478515625,0.45948123931884766,-0.8019688129425049,-0.21949847042560577
1761400729052560000,10.322559814453125,0.6102656722068787,-1.073444128036499,0.09814146161079407
1761400729062628000,10.332628173828125,0.7697101831436157,-1.0380711555480957,0.4657597541809082
1761400729072709000,10.342709228515625,0.8545451760292053,-0.6940014958381653,0.6410087943077087
1761400729082808600,10.35280859375,0.737135112285614,-0.1284349113702774,0.6162943840026855
1761400729092870400,10.362870361328126,0.2959398925304413,0.9959867596626282,0.45316940546035767
1761400729102951700,10.37295166015625,-0.48717668652534485,1.5600545406341553,0.15754593908786774
1761400729113033700,10.38303369140625,-1.2966231107711792,1.2447627782821655,-0.25703635811805725
1761400729123126300,10.393126220703126,-1.8158918619155884,0.6762318015098572,-0.6614598035812378
1761400729133203500,10.403203369140625,-1.8173906803131104,0.08576761186122894,-1.0228828191757202
1761400729143273500,10.4132734375,-1.6816279888153076,-0.31202757358551025,-1.5920467376708984
1761400729153368600,10.42336865234375,-1.6856249570846558,-0.5517105460166931,-2.186291217803955
1761400729163449600,10.43344970703125,-1.5515943765640259,-0.6089333891868591,-2.2225635051727295
1761400729173530400,10.4435302734375,-0.7776041030883789,-0.443759948015213,-1.9016594886779785
1761400729183602000,10.453601806640625,0.21956507861614227,-0.22872473299503326,-1.5488464832305908
1761400729193692700,10.463692626953126,0.34611809253692627,-0.36388781666755676,-1.640909194946289
1761400729203772000,10.47377197265625,-0.0906638577580452,-0.23045673966407776,-1.3570767641067505
1761400729213854500,10.4838544921875,-0.657562792301178,-0.20037978887557983,-0.835376501083374
1761400729223935700,10.493935791015625,-1.2319059371948242,-0.6134299039840698,-0.7541553974151611
1761400729234027500,10.504027587890626,-1.6126642227172852,-0.8512809872627258,-0.7727078795433044
1761400729244097800,10.514097900390626,-1.8741304874420166,-0.5490126013755798,-0.6827601194381714
1761400729254178000,10.524177978515626,-2.036006450653076,-0.1979982703924179,-0.6671387553215027
1761400729264246000,10.53424609375,-2.2015130519866943,-0.056589968502521515,-0.7153518199920654
1761400729274337800,10.544337890625,-2.3288986682891846,0.4934385418891907,-0.7089900374412537
1761400729284420600,10.554420654296875,-2.183260202407837,1.435233473777771,-0.7792861461639404
1761400729294483500,10.5644833984375,-1.8375918865203857,2.1423916816711426,-0.825434148311615
1761400729304582400,10.57458251953125,-1.3745800256729126,2.213304042816162,-1.0255141258239746
1761400729314650600,10.584650634765625,-0.8141927719116211,1.330497145652771,-1.458648920059204
1761400729324732200,10.594732177734375,-0.19998009502887726,-0.08170405775308609,-1.8163914680480957
1761400729334811000,10.604810791015625,0.2913101017475128,-1.3834398984909058,-1.6919034719467163
1761400729344906000,10.614906005859375,0.48905855417251587,-2.2967734336853027,-1.0888489484786987
1761400729354987300,10.6249873046875,0.3516138792037964,-2.324768543243408,-0.44995519518852234
1761400729365061600,10.6350615234375,0.10761753469705582,-1.6096831560134888,0.07391002774238586
1761400729375123700,10.645123779296876,-0.020301109179854393,-0.763748049736023,0.5827367901802063
1761400729385204500,10.65520458984375,0.040102601051330566,-0.06851416081190109,1.248093605041504
1761400729395293400,10.66529345703125,0.40753769874572754,0.3823736608028412,2.0608208179473877
1761400729405390800,10.675390869140625,0.9499053955078125,0.5875996947288513,2.749692916870117
1761400729415464400,10.68546435546875,1.2398831844329834,0.6647905707359314,3.1071856021881104
1761400729425551600,10.695551513671875,1.2042604684829712,0.4553344249725342,3.1202754974365234
1761400729435621000,10.70562109375,1.0770913362503052,0.05782235786318779,2.755821466445923
1761400729445703000,10.715702880859375,1.0434337854385376,-0.4075876772403717,2.287963390350342
1761400729455783700,10.72578369140625,1.0801723003387451,-0.8238853216171265,1.9639450311660767
1761400729465866200,10.7358662109375,1.1588619947433472,-1.099923849105835,1.8586090803146362
1761400729475957800,10.745957763671875,1.2886625528335571,-1.3432873487472534,1.9382147789001465
1761400729486039000,10.7560390625,1.4240254163742065,-1.5843192338943481,2.0782573223114014
1761400729496107000,10.76610693359375,1.5297610759735107,-1.7685613632202148,2.1762824058532715
1761400729506203000,10.776202880859374,1.5381046533584595,-1.7210644483566284,2.1594784259796143
1761400729516269000,10.78626904296875,1.448756456375122,-1.5033812522888184,1.9745702743530273
1761400729526360600,10.796360595703124,1.2572532892227173,-1.1766483783721924,1.6547319889068604
1761400729536443600,10.806443603515625,1.0058292150497437,-0.7732241749763489,1.1906709671020508
1761400729546524200,10.816524169921875,0.7163843512535095,-0.21283690631389618,0.6661728620529175
1761400729556605400,10.82660546875,0.49855130910873413,0.3029012084007263,0.24704402685165405
1761400729566674000,10.836673828125,0.43017035722732544,0.600822925567627,0.02676282450556755
1761400729576754400,10.84675439453125,0.4349500238895416,0.7380511164665222,0.01786964014172554
1761400729586846200,10.85684619140625,0.44769027829170227,0.6844754815101624,0.09006431698799133
1761400729596922400,10.86692236328125,0.43628233671188354,0.5568732619285583,0.14372320473194122
1761400729607010300,10.87701025390625,0.3621058464050293,0.5410520434379578,0.25808554887771606
1761400729617099000,10.88709912109375,0.23323793709278107,0.672101616859436,0.4118177592754364
1761400729627172400,10.89717236328125,0.10025651007890701,0.7861975431442261,0.6089999675750732
1761400729637232000,10.907232177734375,0.02901110239326954,0.8411387801170349,0.7949408292770386
1761400729647335400,10.91733544921875,0.020933957770466805,0.6947009563446045,0.7394000887870789
1761400729657414700,10.92741455078125,0.08403560519218445,0.4640277624130249,0.49467092752456665
1761400729667495200,10.9374951171875,0.2346535176038742,0.42525747418403625,0.2902442514896393
1761400729677565400,10.9475654296875,0.46079689264297485,0.5775241255760193,0.13556279242038727
1761400729687657200,10.9576572265625,0.7032444477081299,1.013490080833435,0.0894148126244545
1761400729697738200,10.96773828125,0.9356163740158081,2.0012998580932617,0.3892683684825897
1761400729707819300,10.9778193359375,1.2653803825378418,3.286398410797119,0.49786847829818726
1761400729717887500,10.987887451171876,1.0635849237442017,3.820255994796753,-0.04311696067452431
1761400729727981000,10.99798095703125,0.02518070489168167,2.7137703895568848,-0.7463114261627197
1761400729738061800,11.008061767578125,-0.8746464252471924,1.4910740852355957,-1.5382379293441772
1761400729748147500,11.0181474609375,-1.143557071685791,0.9212607145309448,-2.3207383155822754
1761400729758224000,11.028223876953126,-1.3032180070877075,-0.21665064990520477,-2.7592523097991943
1761400729768292900,11.03829296875,-1.9377317428588867,-1.3581092357635498,-3.0797066688537598
1761400729778381800,11.0483818359375,-1.9753530025482178,-1.640642762184143,-3.103555202484131
1761400729788445000,11.05844482421875,-0.8342440724372864,-0.852196991443634,-3.025531530380249
1761400729798547000,11.068546875,0.36317169666290283,-0.2981048822402954,-2.646838426589966
1761400729808627700,11.078627685546875,1.0984582901000977,-0.011557810008525848,-2.043384075164795
1761400729818709800,11.088709716796876,0.9124507904052734,0.5586718916893005,-1.483896255493164
1761400729828789800,11.098789794921874,0.2733238935470581,1.045698642730713,-1.071162462234497
1761400729838866700,11.10886669921875,-0.04716385900974274,1.1639580726623535,-1.0041139125823975
1761400729848951600,11.11895166015625,-0.06984647363424301,0.8715155124664307,-1.1115481853485107
1761400729859007500,11.129007568359375,-0.3476502597332001,-0.42830511927604675,-1.187873125076294
1761400729869113000,11.139113037109375,-1.0723615884780884,-1.5983917713165283,-1.0074779987335205
1761400729879194600,11.149194580078126,-1.6986483335494995,-2.159228801727295,-0.6975321769714355
1761400729889275400,11.159275390625,-2.2843995094299316,-2.1785638332366943,-0.7326219081878662
1761400729899331000,11.1693310546875,-2.9078216552734375,-1.1160781383514404,-1.1554979085922241
1761400729909433900,11.179433837890626,-3.162193536758423,0.2992873191833496,-1.647171139717102
1761400729919519200,11.189519287109375,-2.747711181640625,1.38480544090271,-2.0510950088500977
1761400729929599000,11.199598876953125,-1.9944382905960083,1.507561445236206,-2.1706366539001465
1761400729939680000,11.209679931640625,-1.267029047012329,1.1070183515548706,-1.9211112260818481
1761400729949761800,11.21976171875,-0.6808615922927856,0.5536590814590454,-1.4041407108306885
1761400729959842600,11.229842529296874,-0.012673621997237206,-0.1434234231710434,-0.6558807492256165
1761400729969918700,11.239918701171876,0.5904475450515747,-0.7880627512931824,0.1601606011390686
1761400729980003600,11.250003662109375,1.064367651939392,-1.4484400749206543,0.8659864068031311
1761400729990059800,11.260059814453125,1.281934380531311,-2.212204694747925,1.371565580368042
1761400730010221000,11.280220947265626,0.8071647882461548,-2.495171308517456,2.291677236557007
1761400730020327200,11.2903271484375,0.726443350315094,-2.0551917552948,2.4665098190307617
1761400730030407700,11.30040771484375,0.7802687287330627,-1.562935709953308,2.4831972122192383
1761400730040485400,11.3104853515625,0.7670288681983948,-1.2097396850585938,2.4400634765625
1761400730050570000,11.320570068359375,0.7093064785003662,-0.9615298509597778,2.469907283782959
1761400730060651300,11.3306513671875,0.7713922262191772,-0.7816343903541565,2.731823205947876
1761400730070731800,11.340731689453126,0.9418449401855469,-0.8363257646560669,3.0968267917633057
1761400730080813300,11.350813232421874,1.1134967803955078,-1.0088435411453247,3.3443539142608643
1761400730090869500,11.360869384765625,1.208174228668213,-1.0034310817718506,3.393099784851074
1761400730100949200,11.37094921875,1.201046347618103,-0.7957735061645508,3.155681848526001
1761400730111056000,11.381055908203125,1.0237654447555542,-0.3377245366573334,2.585918426513672
1761400730121136400,11.391136474609375,0.8257505893707275,-0.31181105971336365,2.063019037246704
1761400730131197700,11.40119775390625,0.6529496312141418,-0.6138296127319336,1.6727348566055298
1761400730141298400,11.41129833984375,0.5795059204101562,-0.8289148211479187,1.3650206327438354
1761400730151379200,11.421379150390624,0.5875497460365295,-0.8898015022277832,1.13861083984375
1761400730161456600,11.43145654296875,0.6640244722366333,-0.9140828847885132,0.8589584231376648
1761400730171541000,11.441541015625,0.7531561851501465,-0.840322732925415,0.5971423983573914
1761400730181632800,11.4516328125,0.777271032333374,-0.7483598589897156,0.4110516905784607
1761400730191702500,11.46170263671875,0.6993973851203918,-0.7322888374328613,0.2681278586387634
1761400730201783600,11.471783447265626,0.5067949891090393,-0.7153851389884949,0.1667555421590805
1761400730211864800,11.48186474609375,0.255953848361969,-0.6452888250350952,0.1128801703453064
1761400730221945000,11.491945068359374,0.04091864451766014,-0.5425176024436951,0.08891519904136658
1761400730232022500,11.5020224609375,-0.10803388059139252,-0.3453020751476288,0.12467113137245178
1761400730242084000,11.512083984375,-0.23938322067260742,-0.15556412935256958,0.23063993453979492
1761400730252189200,11.522189208984376,-0.33720827102661133,0.01753656193614006,0.4313194751739502
1761400730262269000,11.53226904296875,-0.3137096166610718,0.1295340657234192,0.6870402097702026
1761400730272324600,11.54232470703125,-0.2012624442577362,0.10368721187114716,0.9523868560791016
1761400730282416000,11.552416015625,-0.10077277570962906,0.10973257571458817,1.095527172088623
1761400730292508200,11.562508056640626,-0.11347971111536026,0.34062230587005615,1.0267465114593506
1761400730302592800,11.5725927734375,-0.2552543878555298,0.8619228601455688,0.7938250303268433
1761400730312663000,11.5826630859375,-0.37692782282829285,1.5723451375961304,0.49688589572906494
1761400730322754800,11.5927548828125,-0.4707725942134857,2.21525239944458,0.1445392370223999
1761400730332836400,11.60283642578125,-0.43961313366889954,2.689605712890625,-0.06982982158660889
1761400730342916400,11.612916259765624,-0.3253340423107147,2.910752773284912,-0.09827469289302826
1761400730352998000,11.622997802734375,-0.17333383858203888,3.257253885269165,-0.30916309356689453
1761400730363053000,11.633052978515625,0.0019485069205984473,3.1984989643096924,-0.448323130607605
1761400730373160200,11.64316015625,0.13964299857616425,2.7418155670166016,-0.5813045501708984
1761400730383240700,11.65324072265625,0.12442132085561752,2.2089240550994873,-0.9368487596511841
1761400730393321500,11.663321533203124,0.013689509592950344,1.5629856586456299,-1.2748064994812012
1761400730403401700,11.673401611328124,-0.36298850178718567,0.9663261771202087,-1.685158610343933
1761400730413483800,11.68348388671875,-0.9651437401771545,0.42059436440467834,-1.9518376588821411
1761400730423560700,11.693560791015624,-1.3806920051574707,0.032092075794935226,-1.7710095643997192
1761400730433644500,11.70364453125,-1.3449360132217407,-0.09526033699512482,-1.9242087602615356
1761400730443725800,11.713725830078126,-1.1667559146881104,-0.26133307814598083,-2.2348873615264893
1761400730453807000,11.72380712890625,-1.411668300628662,-0.37887632846832275,-1.9543523788452148
1761400730463888400,11.733888427734374,-2.177081823348999,-0.6466711163520813,-2.1780309677124023
1761400730473968000,11.743968017578124,-3.123739719390869,-0.4683411121368408,-2.8439207077026367
1761400730484045300,11.75404541015625,-3.7437479496002197,-0.05522434785962105,-3.461047887802124
1761400730494130200,11.764130126953125,-3.8880372047424316,0.427156001329422,-3.606586217880249
1761400730504211200,11.774211181640625,-3.3602583408355713,2.246845006942749,-3.381908416748047
1761400730514292700,11.784292724609376,-2.4804325103759766,3.4874942302703857,-3.038938045501709
1761400730524373000,11.794373046875,-1.6595282554626465,3.477268695831299,-2.326517105102539
1761400730534428700,11.8044287109375,-1.101089596748352,2.71083927154541,-1.235403299331665
1761400730544534800,11.81453466796875,-0.5732607245445251,2.0939786434173584,0.13707828521728516
1761400730554616300,11.8246162109375,-0.10855015367269516,2.6836602687835693,1.6143962144851685
1761400730564696800,11.83469677734375,0.10232159495353699,3.916715383529663,2.507661819458008
1761400730574777300,11.84477734375,-0.027478942647576332,4.61666202545166,2.4123847484588623
1761400730584859000,11.85485888671875,-0.2554042935371399,4.4584503173828125,1.7650474309921265
1761400730594939600,11.864939697265624,-0.37311407923698425,3.145822763442993,1.0633684396743774
1761400730605020400,11.8750205078125,-0.4207608997821808,1.1540656089782715,0.27793702483177185
1761400730615102200,11.885102294921875,-0.2577691376209259,-0.4988011121749878,-0.3406389653682709
1761400730625156400,11.89515625,0.0712287500500679,-1.390384554862976,-0.8863208293914795
1761400730635263700,11.905263671875,0.36278867721557617,-2.060154676437378,-1.4783005714416504
1761400730645343700,11.91534375,0.5305933952331543,-2.614230155944824,-1.8164746761322021
1761400730655400000,11.92539990234375,0.5109584331512451,-2.7196826934814453,-1.9800326824188232
1761400730665480200,11.935480224609375,0.6126305460929871,-2.268744707107544,-2.0581061840057373
1761400730675586800,11.9455869140625,0.9499053955078125,-1.5193524360656738,-1.6893055438995361
1761400730685668000,11.955668212890625,1.335076928138733,-1.334110975265503,-0.8248345851898193
1761400730695748400,11.965748291015625,1.4139498472213745,-1.223129391670227,0.08939816057682037
1761400730705829400,11.975829345703126,1.1631087064743042,-1.074326753616333,0.6803452968597412
1761400730715911000,11.985910888671874,0.872764527797699,-1.1874899864196777,1.195217490196228
1761400730725991200,11.9959912109375,0.6066018342971802,-1.3460018634796143,1.8064990043640137
1761400730736086300,12.006086181640624,0.5420013070106506,-1.5654337406158447,2.477185010910034
1761400730746153700,12.01615380859375,0.657213032245636,-1.688039779663086,3.100191116333008
1761400730756213500,12.026213623046875,0.9212607145309448,-1.5773413181304932,3.5747272968292236
1761400730766314800,12.036314697265626,1.117943286895752,-1.2664128541946411,3.8440043926239014
1761400730776395800,12.046395751953124,1.2129205465316772,-0.9221433401107788,3.9550859928131104
1761400730786477000,12.05647705078125,1.171802043914795,-0.7236121892929077,3.9190635681152344
1761400730796574200,12.06657421875,1.0052297115325928,-0.7680114507675171,3.7151529788970947
1761400730806639400,12.076639404296875,0.77315753698349,-1.0211008787155151,3.3520312309265137
1761400730816694800,12.08669482421875,0.5748428106307983,-1.043516993522644,2.9321863651275635
1761400730826800400,12.09680029296875,0.539636492729187,-0.9319025278091431,2.5197525024414062
1761400730836872000,12.106871826171876,0.6089999675750732,-0.8758121728897095,2.036189556121826
1761400730846962200,12.116962158203124,0.7446627020835876,-0.7701598405838013,1.502348780632019
1761400730857043700,12.127043701171875,0.8063487410545349,-0.6179431676864624,1.0777240991592407
1761400730867124000,12.1371240234375,0.7533227205276489,-0.45288628339767456,0.8148755431175232
1761400730877205800,12.147205810546875,0.673200786113739,-0.32486772537231445,0.6036540865898132
1761400730887285500,12.157285400390625,0.6683211922645569,-0.22497759759426117,0.39568012952804565
1761400730897366800,12.16736669921875,0.7091898918151855,-0.012623660266399384,0.2354862093925476
1761400730907447600,12.177447509765624,0.7091732025146484,0.11644410341978073,0.14125841856002808
1761400730917528600,12.187528564453125,0.572494626045227,0.3462180197238922,0.13494658470153809
1761400730927609600,12.197609619140625,0.37041616439819336,0.6706361174583435,0.2966560125350952
1761400730937690000,12.207690185546875,0.1568298190832138,0.6800954937934875,0.537155032157898
1761400730947746000,12.21774609375,0.08376914262771606,0.506695032119751,0.8671355247497559
1761400730957827300,12.227827392578124,0.1359291672706604,0.5866837501525879,1.1849420070648193
1761400730967933200,12.23793310546875,0.09089701622724533,1.1119478940963745,1.2110053300857544
1761400730978010600,12.2480107421875,-0.004063552711158991,1.879659652709961,0.9961366653442383
1761400730988091000,12.2580908203125,0.1053859069943428,2.48457932472229,0.7459783554077148
1761400730998172400,12.26817236328125,0.5783068537712097,2.556790828704834,0.615445077419281
1761400731008257000,12.278257080078125,1.2003135681152344,2.451871156692505,0.48765963315963745
1761400731018338300,12.28833837890625,1.5692474842071533,2.5323095321655273,0.2203478217124939
1761400731028418800,12.298418701171874,1.4529366493225098,2.6197092533111572,0.02241615578532219
1761400731038499800,12.308499755859375,0.5755256414413452,3.5192365646362305,-0.31382617354393005
1761400731048580900,12.318580810546875,-0.44990524649620056,3.9579837322235107,-0.8102624416351318
1761400731058636300,12.32863623046875,-0.8737471103668213,2.1390109062194824,-1.3322291374206543
1761400731068742100,12.3387421875,-1.0737272500991821,-0.42850497364997864,-1.367868423461914
1761400731078823200,12.3488232421875,-1.8947480916976929,-1.4480736255645752,-1.545632243156433
1761400731088878800,12.35887890625,-2.4378819465637207,-1.1568468809127808,-2.4604978561401367
1761400731098986000,12.368986083984375,-2.063552141189575,-0.30105262994766235,-3.1098835468292236
1761400731109066000,12.37906591796875,-1.285198450088501,0.10818376392126083,-3.3784611225128174
1761400731119143200,12.38914306640625,-0.6533327102661133,0.18309302628040314,-3.366020679473877
1761400731129227800,12.399227783203125,-0.466675728559494,0.12345539778470993,-3.0384716987609863
1761400731139309000,12.40930908203125,-0.7432304620742798,0.21883231401443481,-2.803201913833618
1761400731149364500,12.419364501953124,-1.192136526107788,0.26862749457359314,-2.7294583320617676
1761400731159470300,12.42947021484375,-1.4886258840560913,0.3707159161567688,-2.4740042686462402
1761400731169543700,12.439543701171875,-1.4983018636703491,0.3478001356124878,-1.7051433324813843
1761400731179632600,12.449632568359375,-1.3812248706817627,0.16825440526008606,-0.941778302192688
1761400731189710300,12.45971044921875,-1.3176569938659668,-0.2192320078611374,-0.5535424947738647
1761400731199772700,12.469772705078125,-1.4696404933929443,-0.6171770691871643,-0.31647413969039917
1761400731209875700,12.479875732421876,-1.7314398288726807,-0.7397331595420837,0.14012596011161804
1761400731219956000,12.4899560546875,-1.81449294090271,-0.16304172575473785,0.6267030835151672
1761400731230029800,12.50002978515625,-1.698398470878601,0.9589151740074158,0.6753158569335938
1761400731240093200,12.51009326171875,-1.4262070655822754,2.0240490436553955,0.4247411787509918
1761400731250195000,12.52019482421875,-1.095327377319336,2.0132405757904053,0.041268374770879745
1761400731260279800,12.53027978515625,-0.6838926076889038,1.1380778551101685,-0.37629497051239014
1761400731270360600,12.540360595703126,-0.33924004435539246,0.26799464225769043,-0.6844421625137329
1761400731280441300,12.55044140625,-0.19330187141895294,-0.2635313868522644,-0.9066385626792908
1761400731290522400,12.5605224609375,-0.2265264093875885,-0.4771343767642975,-1.0817043781280518
1761400731300578000,12.570578125,-0.4493556618690491,-0.33604249358177185,-1.1738338470458984
1761400731310659300,12.580659423828125,-0.6069015860557556,0.08118778467178345,-1.0969927310943604
1761400731320761600,12.59076171875,-0.4369485080242157,0.6034209132194519,-0.9036242365837097
1761400731330847000,12.600846923828126,-0.16270865499973297,1.00766122341156,-0.5688474178314209
1761400731340926700,12.6109267578125,0.018552450463175774,1.102588415145874,0.011591117829084396
1761400731351007700,12.6210078125,0.2540053427219391,1.0479968786239624,0.6940681338310242
1761400731361089300,12.63108935546875,0.49438780546188354,0.5690972208976746,1.2485765218734741
1761400731371170000,12.641170166015625,0.4937882721424103,0.332894891500473,1.5618032217025757
1761400731381247200,12.651247314453125,0.19027085602283478,-0.09086370468139648,1.681861162185669
1761400731391331300,12.661331298828125,-0.16981986165046692,-0.5392701029777527,1.7074083089828491
1761400731401413000,12.6714130859375,-0.40643855929374695,-1.0013160705566406,1.7379682064056396
1761400731411494100,12.681494140625,-0.5393533706665039,-1.4466081857681274,1.750491976737976
1761400731421549000,12.691549072265625,-0.6323820948600769,-1.7128541469573975,1.8230030536651611
1761400731431655400,12.701655517578125,-0.6977319717407227,-1.8449362516403198,1.8542124032974243
1761400731441710800,12.7117109375,-0.6067517399787903,-1.6325989961624146,1.7393004894256592
1761400731451817500,12.7218173828125,-0.40775421261787415,-1.1779639720916748,1.4549684524536133
1761400731461873000,12.731872802734374,-0.19994677603244781,-0.5097593665122986,1.099840521812439
1761400731471979000,12.74197900390625,-0.03593912720680237,-0.10478636622428894,0.852946400642395
1761400731482060500,12.752060546875,-0.00782733503729105,-0.008526799269020557,0.6897547841072083
1761400731492140800,12.762140869140625,-0.07429306954145432,0.04896248131990433,0.55239337682724
1761400731502221800,12.772221923828125,-0.20602545142173767,-0.002864471636712551,0.40483978390693665
1761400731512281000,12.782281005859375,-0.32152029871940613,-0.10007331520318985,0.23608575761318207
1761400731522384000,12.7923837890625,-0.4101357161998749,-0.03264165297150612,0.09516040980815887
1761400731532444200,12.802444091796875,-0.5405857563018799,0.010525267571210861,0.028578100726008415
