time,seconds_elapsed,z,y,x
1761400534997596400,0.094596435546875,-0.0021816615480929613,-0.004746363032609224,0.03402392938733101
1761400535010442800,0.10744287109375,-0.0016653904458507895,-0.008909839205443859,0.04175134003162384
1761400535020523500,0.1175234375,-0.008726646192371845,-0.016420749947428703,0.030626531690359116
1761400535030604800,0.127604736328125,-0.014605474658310413,-0.02864471636712551,0.014705398119986057
1761400535040685300,0.137685302734375,-0.025247320532798767,-0.02526397444307804,-0.008143759332597256
1761400535050755300,0.14775537109375,-0.03234188258647919,-0.015438170172274113,-0.0206175334751606
1761400535060856800,0.15785693359375,-0.03638878092169762,-0.005778905004262924,-0.006728177424520254
1761400535070937900,0.167937744140625,-0.03845386579632759,-0.0000666156192892231,0.019318530336022377
1761400535081036500,0.17803662109375,-0.04313361272215843,0.01014222763478756,0.0358225479722023
1761400535091094800,0.1880947265625,-0.03735470771789551,0.04884590208530426,0.031792305409908295
1761400535101172000,0.198171875,-0.056506700813770294,0.06017055734992027,0.018152756616473198
1761400535111278600,0.208278564453125,-0.08693338185548782,0.05818874388933182,-0.009526033885776997
1761400535121333800,0.218333740234375,-0.09632618725299835,0.04976186901330948,-0.003697166917845607
1761400535131441000,0.22844091796875,-0.09354498237371445,0.0461646243929863,-0.00857676099985838
1761400535141522200,0.238522216796875,-0.10027316212654114,0.06941347569227219,-0.027895290404558182
1761400535151578600,0.24857861328125,-0.10681814700365067,0.10750095546245575,-0.05392534285783768
1761400535161659000,0.258658935546875,-0.09161312878131866,0.10498621314764023,-0.05860508978366852
1761400535171764500,0.268764404296875,-0.0849016085267067,0.08023851364850998,-0.05520769581198692
1761400535181846000,0.278845947265625,-0.10721784085035324,0.02956068143248558,-0.02546382136642933
1761400535191927000,0.288927001953125,-0.11729345470666885,0.01308996882289648,0.00008326952229253948
1761400535201982000,0.29898193359375,-0.1046864464879036,0.034923236817121506,-0.0210005734115839
1761400535212063500,0.3090634765625,-0.09137997776269913,0.04161810874938965,-0.07261102646589279
1761400535222166500,0.31916650390625,-0.09724214673042297,0.028294984251260757,-0.09714222699403763
1761400535232250600,0.329250732421875,-0.10938284546136856,0.023848392069339752,-0.09799157828092575
1761400535242306300,0.339306396484375,-0.12127373367547989,0.024331355467438698,-0.11925861239433289
1761400535252413000,0.349412841796875,-0.14052565395832062,0.13386408984661102,-0.11944180727005005
1761400535262493700,0.35949365234375,-0.12152354419231415,0.14202450215816498,-0.06884723901748657
1761400535272561400,0.3695615234375,-0.1473204493522644,0.0767078846693039,-0.13957637548446655
1761400535282630700,0.379630615234375,-0.1585618257522583,0.13138265907764435,-0.13644544780254364
1761400535292737500,0.389737548828125,-0.147670179605484,0.19211944937705994,-0.09437768161296844
1761400535302817500,0.399817626953125,-0.13970960676670074,0.247710183262825,-0.05668989196419716
1761400535312898800,0.40989892578125,-0.19450095295906067,0.2928256094455719,-0.04654766246676445
1761400535322979600,0.4199794921875,-0.22143031656742096,0.34538534283638,-0.07361026108264923
1761400535333060900,0.430060791015625,-0.2110549360513687,0.3836393654346466,-0.07853981852531433
1761400535343139600,0.4401396484375,-0.19193625450134277,0.38948488235473633,-0.052160028368234634
1761400535353197600,0.450197509765625,-0.18254345655441284,0.35852527618408203,-0.01916864514350891
1761400535363304200,0.46030419921875,-0.1737668365240097,0.3428872525691986,0.0014655436389148235
1761400535373384700,0.470384765625,-0.17419984936714172,0.36540332436561584,0.008593414910137653
1761400535383466500,0.480466552734375,-0.14070884883403778,0.3939814269542694,0.012207312509417534
1761400535393521400,0.490521484375,-0.12465447932481766,0.3921661376953125,-0.004713055212050676
1761400535403603000,0.50060302734375,-0.1497519165277481,0.3207375407218933,-0.015338246710598469
1761400535413693400,0.510693359375,-0.19498391449451447,0.2685109078884125,-0.04166806861758232
1761400535423790000,0.5207900390625,-0.22442802786827087,0.24776014685630798,-0.08570099622011185
1761400535433871400,0.530871337890625,-0.23452028632164001,0.23626895248889923,-0.12203981727361679
1761400535443952000,0.5409521484375,-0.2345036268234253,0.18226033449172974,-0.1524498462677002
1761400535454033200,0.551033203125,-0.24009934067726135,0.16489030420780182,-0.1137128621339798
1761400535464105000,0.56110498046875,-0.21446898579597473,0.16120979189872742,-0.06846420466899872
1761400535474176800,0.5711767578125,-0.17393338680267334,0.14753694832324982,-0.056007083505392075
1761400535484251000,0.5812509765625,-0.15851186215877533,0.10625191032886505,-0.081637442111969
1761400535494358300,0.591358154296875,-0.16345807909965515,0.045648351311683655,-0.13791099190711975
1761400535504413200,0.6014130859375,-0.14115849137306213,0.015221669338643551,-0.17215141654014587
1761400535514520000,0.61152001953125,-0.11083173751831055,-0.04997836798429489,-0.16673889756202698
1761400535524601300,0.621601318359375,-0.06398430466651917,-0.15223334729671478,-0.13589586317539215
1761400535534654700,0.63165478515625,-0.04236753284931183,-0.19017094373703003,-0.10773411393165588
1761400535544739000,0.641739013671875,0.021433575078845024,-0.20071285963058472,-0.07572530210018158
1761400535554856000,0.65185595703125,-0.014622128568589687,-0.2835993468761444,-0.01670386642217636
1761400535564925000,0.661925048828125,0.05447492375969887,-0.211038276553154,0.11929192394018173
1761400535575006500,0.67200634765625,0.2052926868200302,-0.1571795493364334,0.16937021911144257
1761400535585101000,0.68210107421875,0.22717592120170593,0.2749892771244049,0.32881468534469604
1761400535595145200,0.692145263671875,0.2268761396408081,0.12154019623994827,0.42442476749420166
1761400535605223700,0.7022236328125,0.17646478116512299,-0.3043501079082489,0.32591691613197327
1761400535615330800,0.712330810546875,0.1911868304014206,-0.5300105214118958,0.2704094648361206
1761400535625411000,0.7224111328125,0.23293817043304443,-0.6364456415176392,0.3462846577167511
1761400535635491800,0.732491943359375,0.33609244227409363,-0.5489793419837952,0.44627469778060913
1761400535645572900,0.74257275390625,0.5051628947257996,-0.35984092950820923,0.48702678084373474
1761400535655674000,0.752674072265625,0.6466878056526184,-0.24204784631729126,0.46023064851760864
1761400535665734700,0.762734619140625,0.7378845810890198,-0.23392075300216675,0.43095308542251587
1761400535675791000,0.772791015625,0.8675851821899414,-0.2263099104166031,0.4678914546966553
1761400535685897700,0.782897705078125,1.0012494325637817,-0.24481239914894104,0.5331581234931946
1761400535695953000,0.792952880859375,1.1125141382217407,-0.32738247513771057,0.5892484784126282
1761400535706059300,0.803059326171875,1.1780472993850708,-0.4541853070259094,0.7085570096969604
1761400535716141000,0.81314111328125,1.2445296049118042,-0.6778972148895264,0.9692239761352539
1761400535726195700,0.82319580078125,1.3625892400741577,-0.9570332765579224,1.33932363986969
1761400535736274000,0.83327392578125,1.5945614576339722,-1.0457819700241089,1.8252179622650146
1761400535746357800,0.843357666015625,1.870383381843567,-0.8253675103187561,2.287480354309082
1761400535756464400,0.85346435546875,2.050428867340088,-0.4141159951686859,2.3417556285858154
1761400535766545200,0.863545166015625,2.1461055278778076,-0.17326723039150238,1.8353935480117798
1761400535776630300,0.87363037109375,2.197399377822876,-0.01607101783156395,1.333927869796753
1761400535786673700,0.883673583984375,1.9947713613510132,0.16037710011005402,1.089698314666748
1761400535796764200,0.89376416015625,1.6361961364746094,0.04050229489803314,0.7979718446731567
1761400535806870300,0.903870361328125,1.3116449117660522,-0.3964129090309143,0.4260402023792267
1761400535816950500,0.913950439453125,1.03713858127594,-0.7295243144035339,0.08095463365316391
1761400535827057200,0.92405712890625,0.9145325422286987,-0.7371851205825806,-0.09076378494501114
1761400535837112600,0.934112548828125,0.8566935062408447,-0.30799731612205505,0.019485069438815117
1761400535847172400,0.94417236328125,0.6570631861686707,0.06981316953897476,0.08248679339885712
1761400535857271000,0.95427099609375,0.4506213665008545,0.1553642749786377,0.028078483417630196
1761400535867330600,0.96433056640625,0.3865537941455841,0.17143529653549194,0.06783135235309601
1761400535877413400,0.974413330078125,0.39832809567451477,0.12963399291038513,0.0851847231388092
1761400535887496700,0.98449658203125,0.2501416504383087,-0.12094065546989441,-0.0835859477519989
1761400535897599500,0.994599609375,-0.006894716527312994,-0.33874043822288513,-0.3383573889732361
1761400535907681000,1.004680908203125,-0.20883996784687042,-0.509043276309967,-0.5823870301246643
1761400535917735700,1.014735595703125,-0.3894016146659851,-0.6988311409950256,-0.7882459759712219
1761400535927841800,1.024841796875,-0.5218501091003418,-0.823452353477478,-0.9662095904350281
1761400535937897200,1.034897216796875,-0.6770145297050476,-0.7915101051330566,-1.1284852027893066
1761400535948001800,1.045001708984375,-0.8608403205871582,-0.6684211492538452,-1.2537726163864136
1761400535958080800,1.055080810546875,-1.0809882879257202,-0.5831697583198547,-1.3348604440689087
1761400535968141000,1.06514111328125,-1.2646476030349731,-0.5986912250518799,-1.377144694328308
1761400535978222000,1.07522216796875,-1.446624755859375,-0.4546515941619873,-1.3816078901290894
1761400535988303000,1.08530322265625,-1.5258474349975586,-0.049495406448841095,-1.4253910779953003
1761400535998409700,1.09540966796875,-1.3752127885818481,0.29737213253974915,-1.4860445261001587
1761400536008490000,1.105489990234375,-1.0580226182937622,0.5375214219093323,-1.5203016996383667
1761400536018571000,1.115571044921875,-0.7099892497062683,0.688422441482544,-1.4435771703720093
1761400536028652300,1.12565234375,-0.44420960545539856,0.6757655143737793,-1.3268499374389648
1761400536038733300,1.1357333984375,-0.2502748668193817,0.4509044587612152,-1.2136366367340088
1761400536048789200,1.145789306640625,-0.1253872513771057,0.1572461724281311,-1.1203415393829346
1761400536058870300,1.155870361328125,-0.07484264671802521,-0.09167974442243576,-1.2088736295700073
1761400536068976400,1.165976318359375,-0.17165179550647736,-0.15274961292743683,-1.2328052520751953
1761400536079057200,1.17605712890625,-0.5064951777458191,-0.1489858329296112,-1.024531602859497
1761400536089138200,1.18613818359375,-0.734120786190033,-0.04463246464729309,-0.7482099533081055
1761400536099220000,1.196219970703125,-0.7512576580047607,0.05828866735100746,-0.5391035676002502
1761400536109300500,1.206300537109375,-0.7341374158859253,-0.04713055118918419,-0.3440530300140381
1761400536119377700,1.216377685546875,-0.568514347076416,-0.4723380506038666,-0.2704927325248718
1761400536129462300,1.226462158203125,-0.2835160791873932,-1.1802289485931396,-0.2994039058685303
1761400536139543300,1.236543212890625,0.09506049007177353,-1.8753628730773926,-0.21440237760543823
1761400536149624600,1.24662451171875,0.4810147285461426,-2.198465347290039,-0.08756623417139053
1761400536159705300,1.256705322265625,0.8393401503562927,-2.033708333969116,-0.06909704953432083
1761400536169786600,1.26678662109375,1.2367689609527588,-1.5148391723632812,0.050294794142246246
1761400536179863300,1.27686328125,1.530327320098877,-0.8665359616279602,0.5462980270385742
1761400536189949200,1.28694921875,1.4319859743118286,-0.4307865500450134,1.0563405752182007
1761400536200030200,1.2970302734375,0.6687708497047424,-0.269709974527359,1.1145292520523071
1761400536210111000,1.307111083984375,-0.030076952651143074,-0.18525803089141846,0.8247513175010681
1761400536220148700,1.317148681640625,-0.39852795004844666,-0.36193931102752686,0.4688906967639923
1761400536230273000,1.32727294921875,-0.599240779876709,-0.5057624578475952,0.3177565038204193
1761400536240350000,1.337349853515625,-0.7156349420547485,-0.32605016231536865,0.4584486782550812
1761400536250434800,1.347434814453125,-0.8381744027137756,0.21949847042560577,0.7704429626464844
1761400536260515800,1.357515869140625,-1.0193521976470947,0.8933987021446228,1.092695951461792
1761400536270597000,1.36759716796875,-1.1659564971923828,1.4236423969268799,1.3130438327789307
1761400536280678000,1.377677978515625,-1.2106056213378906,1.6500022411346436,1.3594416379928589
1761400536290761000,1.387760986328125,-1.219415545463562,1.7528067827224731,1.241298794746399
1761400536300827400,1.397827392578125,-1.1781971454620361,1.7960569858551025,0.9544519186019897
1761400536310896000,1.407896240234375,-1.1192922592163086,1.6885061264038086,0.539902925491333
1761400536320986600,1.417986572265625,-1.0892486572265625,1.5326422452926636,0.1832762211561203
1761400536331058000,1.428057861328125,-1.0767415761947632,1.353745937347412,-0.008926493115723133
1761400536341152000,1.438152099609375,-1.0511778593063354,1.2101227045059204,-0.06939682364463806
1761400536351245300,1.448245361328125,-0.9908573627471924,0.975469172000885,-0.04917898029088974
1761400536361313500,1.4583134765625,-0.9190290570259094,0.7376347780227661,0.024064892902970314
1761400536371393000,1.46839306640625,-0.8108952641487122,0.5268462896347046,0.0766412690281868
1761400536381486600,1.478486572265625,-0.6452888250350952,0.35770922899246216,0.16610604524612427
1761400536391566800,1.48856689453125,-0.4229259192943573,0.18420884013175964,0.3539121448993683
1761400536401642500,1.498642578125,-0.18290983140468597,-0.07642477005720139,0.5857011675834656
1761400536411731700,1.508731689453125,0.025313936173915863,-0.2784366309642792,0.8225197196006775
1761400536421812000,1.51881201171875,0.21814949810504913,-0.31888896226882935,0.9761686325073242
1761400536431871000,1.52887109375,0.450821191072464,-0.22785872220993042,0.9853782653808594
1761400536441960200,1.538960205078125,0.646304726600647,-0.08621726185083389,0.9294377565383911
1761400536452055600,1.5490556640625,0.8949642181396484,0.04972856119275093,0.9407457709312439
1761400536462143500,1.5591435546875,1.3278658390045166,0.13311466574668884,1.0829367637634277
1761400536472198000,1.569197998046875,1.8929494619369507,0.23961637914180756,1.5286952257156372
1761400536482299000,1.579298828125,2.222130537033081,0.2713087499141693,2.2241289615631104
1761400536492367400,1.589367431640625,2.175482988357544,-0.05330915004014969,2.5489468574523926
1761400536502459100,1.599459228515625,1.8170742988586426,-0.22955742478370667,1.91826331615448
1761400536512529200,1.609529052734375,1.1556144952774048,-0.4913068413734436,1.0393868684768677
1761400536522610700,1.619610595703125,1.0213173627853394,0.11709360778331757,0.7131368517875671
1761400536532703200,1.629703125,1.3661531209945679,1.2866140604019165,0.38365599513053894
1761400536542773800,1.639773681640625,1.6745834350585938,2.107668161392212,-0.7402161359786987
1761400536552866000,1.649865966796875,1.24123215675354,2.046065330505371,-1.1697036027908325
1761400536562945300,1.6599453125,0.23988284170627594,0.9435436129570007,-1.3267500400543213
1761400536573008600,1.670008544921875,-1.0412853956222534,0.0676148533821106,-1.9986851215362549
1761400536583109000,1.680109130859375,-2.2262940406799316,-0.7346537113189697,-2.2396836280822754
1761400536593177300,1.69017724609375,-3.0624032020568848,-0.9493058919906616,-2.345885753631592
1761400536603271200,1.700271240234375,-3.0514116287231445,-0.5852681994438171,-2.4756529331207275
1761400536613352200,1.710352294921875,-2.4717726707458496,0.2929088771343231,-2.432302713394165
1761400536623421000,1.7204208984375,-2.0652174949645996,1.4623627662658691,-1.954718828201294
1761400536633499400,1.73049951171875,-1.71658456325531,2.504730701446533,-1.2724249362945557
1761400536643570400,1.7405703125,-1.464544415473938,2.812394857406616,-0.6192920804023743
1761400536653676000,1.750676025390625,-1.3381412029266357,2.317840576171875,-0.18405894935131073
1761400536663757300,1.76075732421875,-1.4719054698944092,1.3909674882888794,-0.1807781308889389
1761400536673838600,1.770838623046875,-1.5879164934158325,0.5702463388442993,-0.30611541867256165
1761400536683907000,1.780906982421875,-1.345235824584961,0.10257139801979065,-0.34278732538223267
1761400536693982700,1.790982666015625,-0.987959623336792,-0.34959876537323,-0.17636485397815704
1761400536704081400,1.801081298828125,-0.6922861933708191,-0.5589050650596619,0.11679383367300034
1761400536714155300,1.8111552734375,-0.4598642885684967,-0.1570296734571457,0.30418357253074646
1761400536724218000,1.821218017578125,-0.11962499469518661,-0.11049865931272507,0.37178176641464233
1761400536734312200,1.831312255859375,0.2745063006877899,-0.63169926404953,0.34879937767982483
1761400536744402000,1.84140185546875,0.6944678425788879,-1.0233824253082275,0.2139693647623062
1761400536754475000,1.85147509765625,1.2273428440093994,-1.081038236618042,0.18094468116760254
1761400536764553200,1.86155322265625,1.7211644649505615,-0.9427275657653809,0.38560450077056885
1761400536774648600,1.871648681640625,2.152866840362549,-0.639726459980011,1.0575895309448242
1761400536784729600,1.8817294921875,2.2987051010131836,-0.6119310855865479,1.6505684852600098
1761400536794798600,1.891798583984375,2.0927295684814453,-1.2872968912124634,1.4252245426177979
1761400536804879000,1.901879150390625,1.969590663909912,-1.8571934700012207,1.0634183883666992
1761400536814973200,1.91197314453125,1.803301453590393,-2.0799560546875,0.7423478364944458
1761400536825052000,1.922052001953125,1.510275959968567,-2.0336415767669678,0.8205711841583252
1761400536835137300,1.93213720703125,1.2159515619277954,-1.8841562271118164,1.0772244930267334
1761400536845216300,1.94221630859375,0.7747396230697632,-1.3301806449890137,1.0932955741882324
1761400536855289900,1.952289794921875,0.16900382936000824,-0.2134697586297989,0.8847886323928833
1761400536865378600,1.962378662109375,-0.2768545150756836,0.5287114977836609,0.6956669092178345
1761400536875460900,1.9724609375,-0.5009328126907349,0.7585687041282654,0.6191255450248718
1761400536885524500,1.9825244140625,-0.6326485276222229,0.9041072130203247,0.5297940373420715
1761400536895619300,1.992619384765625,-0.7049264907836914,1.0409190654754639,0.3598742187023163
1761400536905676800,2.0026767578125,-0.735153317451477,1.0999737977981567,0.14678752422332764
1761400536915783400,2.012783447265625,-0.6970991492271423,0.9761186838150024,-0.05572396516799927
1761400536925864400,2.022864501953125,-0.6459550261497498,0.7947742938995361,-0.22059762477874756
1761400536935932400,2.032932373046875,-0.6303003430366516,0.6990809440612793,-0.31619104743003845
1761400536946024700,2.043024658203125,-0.6098660230636597,0.5485296845436096,-0.33457693457603455
1761400536956102000,2.053101806640625,-0.5766414403915405,0.3846885561943054,-0.35144734382629395
1761400536966188800,2.063188720703125,-0.5650003552436829,0.23328790068626404,-0.3490491807460785
1761400536976269600,2.07326953125,-0.5761085152626038,0.14941883087158203,-0.29355838894844055
1761400536986337800,2.083337890625,-0.5999735593795776,0.2031276822090149,-0.2036106437444687
1761400536996419300,2.09341943359375,-0.6151619553565979,0.3237352669239044,-0.08675018697977066
1761400537006487300,2.1034873046875,-0.6361791491508484,0.32082080841064453,0.038470521569252014
1761400537016569900,2.11356982421875,-0.6485363841056824,0.19328521192073822,0.11213073879480362
1761400537026667500,2.12366748046875,-0.6302003860473633,0.04345003888010979,0.06673219799995422
1761400537036733400,2.1337333984375,-0.5986079573631287,-0.03673851490020752,-0.10405359417200089
1761400537046825000,2.143824951171875,-0.5595378875732422,-0.0054624807089567184,-0.309329628944397
1761400537056918000,2.15391796875,-0.516987144947052,0.10478636622428894,-0.4472739100456238
1761400537066998800,2.163998779296875,-0.42512422800064087,0.19871439039707184,-0.4674417972564697
1761400537077078300,2.174078369140625,-0.23192228376865387,0.16255876421928406,-0.4150819182395935
1761400537087159000,2.184158935546875,0.08556776493787766,-0.0501948706805706,-0.23848392069339752
1761400537097231600,2.194231689453125,0.4624289870262146,-0.2744896709918976,0.04851282387971878
1761400537107323100,2.2043232421875,0.8366588950157166,-0.46016404032707214,0.34986522793769836
1761400537117400600,2.214400634765625,1.2239787578582764,-0.4892251193523407,0.5551912188529968
1761400537127485200,2.224485107421875,1.5689976215362549,-0.2951071858406067,0.7241617441177368
1761400537137555000,2.234554931640625,1.8806421756744385,-0.05494123324751854,0.8225696682929993
1761400537147647200,2.244647216796875,2.2560877799987793,-0.10352066904306412,0.6558141112327576
1761400537157727700,2.254727783203125,2.7158689498901367,-0.4418613910675049,0.8156915903091431
1761400537167808000,2.26480810546875,2.8208882808685303,-1.0107754468917847,2.2605676651000977
1761400537177890600,2.274890625,2.320704936981201,-1.0299108028411865,2.5860350131988525
1761400537187960000,2.2849599609375,1.6402430534362793,-1.4758857488632202,1.7780375480651855
1761400537198050000,2.295050048828125,0.8157249093055725,-1.0586553812026978,0.7722748517990112
1761400537208123000,2.305122802734375,0.45336925983428955,0.8636714816093445,0.6806451082229614
1761400537218214400,2.31521435546875,0.7661628723144531,1.9117850065231323,0.8986946940422058
1761400537228291300,2.325291259765625,1.2730244398117065,1.4930058717727661,-0.2761717140674591
1761400537238364700,2.33536474609375,1.350648283958435,1.159877896308899,-1.2498422861099243
1761400537248457200,2.345457275390625,0.5322921276092529,0.6635581851005554,-1.2971060276031494
1761400537258527200,2.35552734375,-0.2625488042831421,-0.4261234700679779,-1.0677651166915894
1761400537268605000,2.36560498046875,-1.1797126531600952,-1.2955738306045532,-0.890467643737793
1761400537278682600,2.3756826171875,-1.9948879480361938,-1.2473608255386353,-0.8648872375488281
1761400537288768800,2.385768798828125,-2.3044674396514893,-0.36388781666755676,-1.097725510597229
1761400537298863000,2.395863037109375,-2.1502022743225098,0.3836893141269684,-1.514972448348999
1761400537308943400,2.405943359375,-1.8819411993026733,1.0196186304092407,-1.8485500812530518
1761400537319010000,2.416010009765625,-1.717200756072998,1.3349103927612305,-1.9403297901153564
1761400537329080300,2.426080322265625,-1.5746099948883057,1.253922462463379,-1.6935023069381714
1761400537339166700,2.436166748046875,-1.414932370185852,1.0731276273727417,-1.5615034103393555
1761400537349243000,2.446242919921875,-1.283782958984375,0.4396464228630066,-1.6867241859436035
1761400537359324400,2.456324462890625,-1.0476305484771729,-0.04230091720819473,-1.936116337776184
1761400537369410300,2.466410400390625,-0.7109218835830688,0.21856585144996643,-2.243297576904297
1761400537379510800,2.4765107421875,-0.6221898794174194,0.16548985242843628,-2.0137901306152344
1761400537389579300,2.486579345703125,-0.7397664785385132,-0.03184226527810097,-1.483280062675476
1761400537399642600,2.496642578125,-0.7892618775367737,0.07799023389816284,-1.128718376159668
1761400537409728800,2.506728759765625,-0.6475037932395935,0.038270674645900726,-0.9311031699180603
1761400537419823000,2.516822998046875,-0.462079256772995,0.02111715078353882,-0.6475037932395935
1761400537429916000,2.526916015625,-0.31937193870544434,0.18052832782268524,-0.37749406695365906
1761400537440004000,2.537004150390625,-0.16735509037971497,0.33679190278053284,-0.22148028016090393
1761400537450065400,2.5470654296875,0.1981315016746521,0.04549846798181534,-0.035339586436748505
1761400537460147500,2.5571474609375,0.7489427328109741,-0.7157681584358215,0.2067415714263916
1761400537470240000,2.567239990234375,1.2462782859802246,-1.1822773218154907,0.438064306974411
1761400537480321000,2.577321044921875,1.4278725385665894,-1.2635151147842407,0.5351399183273315
1761400537490389500,2.587389404296875,1.2808518409729004,-1.2357031106948853,0.4470740854740143
1761400537500470800,2.597470703125,1.0812880992889404,-1.3412221670150757,0.30606546998023987
1761400537510562800,2.607562744140625,0.9236921668052673,-1.4616299867630005,0.20640850067138672
1761400537520641300,2.617641357421875,0.7801355123519897,-1.3419216871261597,0.15223334729671478
1761400537530718000,2.627718017578125,0.5734772086143494,-0.9795493483543396,0.23835068941116333
1761400537540807200,2.63780712890625,0.29489070177078247,-0.5403525829315186,0.44372662901878357
1761400537550881500,2.647881591796875,-0.022016461938619614,-0.0642174556851387,0.5762417316436768
1761400537560969700,2.6579697265625,-0.3296140730381012,0.4217434823513031,0.5564902424812317
1761400537571050800,2.66805078125,-0.5444161295890808,0.6360293030738831,0.5020819306373596
1761400537581129200,2.678129150390625,-0.6193420886993408,0.6737504005432129,0.4209940731525421
1761400537591198000,2.688197998046875,-0.6518504619598389,0.7923927903175354,0.3301636576652527
1761400537601271800,2.698271728515625,-0.6792128682136536,0.8440365791320801,0.18492496013641357
1761400537611374800,2.708374755859375,-0.7089734077453613,0.7163010835647583,0.018052833154797554
1761400537621444900,2.71844482421875,-0.7144525051116943,0.47543567419052124,-0.10333748161792755
1761400537631523800,2.72852392578125,-0.5844354629516602,0.29340848326683044,-0.08891519904136658
1761400537641618000,2.738617919921875,-0.4830465018749237,-0.03518969938158989,-0.07191155850887299
1761400537651665400,2.74866552734375,-0.38407236337661743,-0.3464178740978241,-0.14685413241386414
1761400537661780000,2.758780029296875,-0.28245022892951965,-0.6127804517745972,-0.25681987404823303
1761400537671839200,2.768839111328125,-0.2791694104671478,-0.7616163492202759,-0.3219699561595917
1761400537681942300,2.7789423828125,-0.3584419786930084,-0.8511810898780823,-0.32909780740737915
1761400537692023000,2.78902294921875,-0.448839396238327,-0.8954638242721558,-0.3165740668773651
1761400537702091300,2.79909130859375,-0.5024816393852234,-0.8871368765830994,-0.27072587609291077
1761400537712185300,2.809185302734375,-0.45580071210861206,-0.7971058487892151,-0.18950478732585907
1761400537722261800,2.81926171875,-0.30508288741111755,-0.6815444231033325,-0.11299674212932587
1761400537732347400,2.829347412109375,-0.08480168133974075,-0.5608202219009399,-0.0658828467130661
1761400537742428400,2.839428466796875,0.16907043755054474,-0.445608526468277,-0.02867802418768406
1761400537752498200,2.849498291015625,0.3830731213092804,-0.38164088129997253,0.1359291672706604
1761400537762590200,2.859590087890625,0.5120742917060852,-0.4101357161998749,0.42149367928504944
1761400537772664600,2.86966455078125,0.566665768623352,-0.5102922916412354,0.7262934446334839
1761400537782736100,2.879736083984375,0.5441330075263977,-0.6053694486618042,0.9291380047798157
1761400537792833800,2.889833740234375,0.4941713213920593,-0.7686276435852051,1.143890142440796
1761400537802886000,2.899885986328125,0.5986912250518799,-1.1519505977630615,1.8014029264450073
1761400537812996000,2.90999609375,0.9317693114280701,-1.5231162309646606,3.41070294380188
1761400537823051000,2.920051025390625,0.858292281627655,-1.5151056051254272,3.8473851680755615
1761400537833153800,2.93015380859375,0.5037806034088135,-1.5087438821792603,2.6166114807128906
1761400537843235000,2.940235107421875,0.4204111695289612,-1.7929093837738037,1.872248649597168
1761400537853319400,2.9503193359375,1.4123677015304565,-0.9922562837600708,2.6959009170532227
1761400537863400400,2.960400390625,1.8040674924850464,0.7395333051681519,2.822103977203369
1761400537883562800,2.980562744140625,2.181145191192627,2.290678024291992,0.4966360926628113
1761400537893617700,2.99061767578125,2.5121915340423584,2.019569158554077,-0.47821688652038574
1761400537903724500,3.000724609375,1.7808353900909424,1.1527166366577148,-0.6212239861488342
1761400537913780200,3.0107802734375,0.5380710363388062,0.323701947927475,-0.7981716990470886
1761400537923887400,3.020887451171875,-0.3956301510334015,-0.17937920987606049,-0.9921897053718567
1761400537933967600,3.030967529296875,-1.0750927925109863,-0.17305073142051697,-1.3649706840515137
1761400537944049000,3.041048828125,-1.4157984256744385,0.10456986725330353,-1.7859814167022705
1761400537954130700,3.051130615234375,-1.3600744009017944,0.5181695818901062,-2.048896551132202
1761400537964211200,3.061211181640625,-1.3066153526306152,0.7417815923690796,-2.053992748260498
1761400537974301700,3.0713017578125,-1.4222267866134644,0.8101125359535217,-1.9234594106674194
1761400537984373000,3.081373046875,-1.5597381591796875,0.6184094548225403,-1.6361628770828247
1761400537994429400,3.091429443359375,-1.5979421138763428,0.07985547184944153,-1.4480570554733276
1761400538004535300,3.101535400390625,-1.4682248830795288,-0.4936550557613373,-1.4497390985488892
1761400538014615800,3.11161572265625,-1.0788565874099731,-0.4979017972946167,-1.6811283826828003
1761400538024697900,3.12169775390625,-0.6679214835166931,0.008676684461534023,-1.997985601425171
1761400538034752800,3.131752685546875,-0.5481799244880676,0.08505149185657501,-1.878710389137268
1761400538044855000,3.14185498046875,-0.6183428168296814,0.07737404108047485,-1.5491129159927368
1761400538054940200,3.151940185546875,-0.758685290813446,0.25219008326530457,-1.0927625894546509
1761400538064996900,3.161996826171875,-0.669703483581543,0.347883403301239,-0.5775907039642334
1761400538085157600,3.18215771484375,-0.1100323498249054,-0.27382349967956543,0.463827908039093
1761400538095264800,3.1922646484375,0.1768977791070938,-0.530443549156189,0.7120543718338013
1761400538105345800,3.202345703125,0.5181862711906433,-0.5820706486701965,0.8295809626579285
1761400538115426300,3.21242626953125,0.9232091903686523,-0.5415683388710022,1.0010828971862793
1761400538125507300,3.22250732421875,1.4352002143859863,-0.33048009872436523,1.371049404144287
1761400538135588600,3.232588623046875,1.9100697040557861,-0.07917266339063644,1.9819978475570679
1761400538145669600,3.242669677734375,2.2391507625579834,0.06746497005224228,2.6346144676208496
1761400538155750400,3.25275048828125,2.1105659008026123,-0.13463017344474792,2.9846129417419434
1761400538165832200,3.262832275390625,1.8666030168533325,-0.5374048352241516,3.038938045501709
1761400538175912400,3.272912353515625,1.6923531293869019,-0.9438766837120056,2.883390426635742
1761400538185993700,3.28299365234375,1.463295340538025,-1.3593416213989258,2.696150541305542
1761400538196075300,3.2930751953125,1.2020955085754395,-1.4733043909072876,2.593329429626465
1761400538206155800,3.30315576171875,0.945492148399353,-0.9768680930137634,2.5122249126434326
1761400538226317800,3.32331787109375,0.2751224935054779,0.826799750328064,1.7514578104019165
1761400538236377300,3.33337744140625,0.025896821171045303,0.9927226305007935,0.903374433517456
1761400538246480100,3.343480224609375,-0.07799023389816284,1.004014015197754,0.12377182394266129
1761400538256561000,3.353560791015625,-0.029360834509134293,1.0344738960266113,-0.3301137089729309
1761400538266642200,3.36364208984375,0.0740765705704689,0.8228694200515747,-0.6065018773078918
1761400538276722700,3.37372265625,0.0687972828745842,0.3977452218532562,-0.953302800655365
1761400538286782500,3.383782470703125,-0.08000535517930984,0.02734571136534214,-1.375962257385254
1761400538296871400,3.393871337890625,-0.3632882833480835,-0.17474941909313202,-1.7662798166275024
1761400538306966500,3.403966552734375,-0.7219967246055603,-0.248942568898201,-2.0175039768218994
1761400538317047300,3.41404736328125,-1.0231826305389404,-0.22622664272785187,-2.1776978969573975
1761400538327142000,3.424141845703125,-1.3267500400543213,-0.08082140237092972,-2.2924933433532715
1761400538337209000,3.434208984375,-1.6042373180389404,0.09912404417991638,-2.2590854167938232
1761400538347290400,3.444290283203125,-1.7927095890045166,0.21003904938697815,-2.1457889080047607
1761400538357346300,3.45434619140625,-1.9243754148483276,0.3253007233142853,-2.000683546066284
1761400538367428900,3.464428955078125,-1.9783673286437988,0.3897513449192047,-1.826500415802002
1761400538377508600,3.474508544921875,-2.002232313156128,0.41746342182159424,-1.6447563171386719
1761400538387589000,3.484589111328125,-1.942911148071289,0.31404268741607666,-1.495187520980835
1761400538397670400,3.49467041015625,-1.8032515048980713,0.03862040489912033,-1.3386242389678955
1761400538407751200,3.504751220703125,-1.570679783821106,-0.31176111102104187,-1.1510013341903687
1761400538417821000,3.514821044921875,-1.183193325996399,-0.6297507286071777,-0.9791496992111206
1761400538427912400,3.524912353515625,-0.6597610712051392,-0.7741068005561829,-0.8042503595352173
1761400538438003500,3.53500341796875,-0.29757195711135864,-0.9222599267959595,-0.5566900968551636
1761400538448084200,3.545084228515625,-0.023681852966547012,-1.038304328918457,-0.3381575345993042
1761400538458181000,3.55518115234375,0.23422051966190338,-1.0152720212936401,-0.1039203628897667
1761400538468274000,3.56527392578125,0.500999391078949,-0.6806784272193909,0.13248181343078613
1761400538478341600,3.575341552734375,0.9290381073951721,-0.16322492063045502,0.17518243193626404
1761400538488413000,3.585412841796875,1.6216906309127808,0.32721590995788574,0.29037749767303467
1761400538498506500,3.595506591796875,2.3890693187713623,0.5938615798950195,1.362106204032898
1761400538508577300,3.605577392578125,2.2354369163513184,0.051993489265441895,2.7048606872558594
1761400538518667800,3.615667724609375,1.6533997058868408,-0.42440810799598694,2.4699573516845703
1761400538528749000,3.6257490234375,1.0220001935958862,-1.2422980070114136,1.351347804069519
1761400538548909300,3.645909423828125,0.4983347952365875,1.8028684854507446,0.3987777531147003
1761400538558980900,3.65598095703125,1.2175836563110352,2.8932995796203613,0.9406625032424927
1761400538569073200,3.6660732421875,1.7696938514709473,1.9616634845733643,-0.04453254118561745
1761400538579154400,3.676154541015625,1.8318629264831543,0.6059856414794922,-0.883672833442688
1761400538589235000,3.68623486328125,1.3125941753387451,-0.6383108496665955,-1.2016291618347168
1761400538599306000,3.696305908203125,0.21183766424655914,-1.4527534246444702,-1.318772792816162
1761400538609404200,3.706404052734375,-0.8756789565086365,-1.757736325263977,-1.4511046409606934
1761400538619478000,3.71647802734375,-1.5995076894760132,-1.2637982368469238,-1.5053298473358154
1761400538629559000,3.72655908203125,-1.7053931951522827,-0.2018120139837265,-1.5776910781860352
1761400538639628500,3.736628662109375,-1.617943525314331,0.9386640191078186,-1.537671685218811
1761400538649720800,3.746720947265625,-1.570796251296997,1.69326913356781,-1.3451858758926392
1761400538659802600,3.756802734375,-1.661027193069458,2.1029052734375,-1.1508514881134033
1761400538669878800,3.766878662109375,-1.6822441816329956,1.750491976737976,-1.1089668273925781
1761400538679952100,3.7769521484375,-1.6275694370269775,0.3995938003063202,-1.3059659004211426
1761400538700126700,3.797126708984375,-1.2281755208969116,-1.66995370388031,-1.5836365222930908
1761400538710207700,3.807207763671875,-0.7429640293121338,-1.518319845199585,-1.588099718093872
1761400538720265500,3.817265380859375,-0.6737337112426758,-1.385155200958252,-0.973137617111206
1761400538730369500,3.82736962890625,-0.7495256662368774,-1.0640013217926025,-0.3172735273838043
1761400538740425200,3.83742529296875,-0.4851948618888855,-0.7376514077186584,0.0518602579832077
1761400538750519300,3.847519287109375,0.0564400851726532,-0.914882242679596,0.40768760442733765
1761400538760610800,3.85761083984375,0.6129636168479919,-1.40485680103302,0.777404248714447
1761400538770692000,3.867692138671875,1.1053529977798462,-1.735386848449707,1.0590051412582397
1761400538780776400,3.8777763671875,1.4967364072799683,-1.5940451622009277,1.1528332233428955
1761400538790841900,3.887841796875,1.7762222290039062,-1.1087003946304321,1.140192985534668
1761400538800922400,3.89792236328125,1.9923065900802612,-0.44752374291419983,1.3729811906814575
1761400538811018200,3.908018310546875,2.266446590423584,0.23835068941116333,2.0640182495117188
1761400538821087000,3.9180869140625,2.3636720180511475,0.1694534868001938,2.750225782394409
1761400538831180300,3.92818017578125,2.2938590049743652,-0.4910237193107605,3.1821281909942627
1761400538841261300,3.93826123046875,2.301602840423584,-1.0271295309066772,3.5480144023895264
1761400538851340300,3.94834033203125,2.2725918292999268,-1.0574396848678589,3.9166653156280518
1761400538861423000,3.958423095703125,2.1008734703063965,-0.413266658782959,4.193769454956055
1761400538871489500,3.968489501953125,1.9695740938186646,0.5564569234848022,4.197916507720947
1761400538881585200,3.978585205078125,2.0000007152557373,1.056123971939087,4.046965599060059
1761400538891666700,3.988666748046875,2.0766587257385254,0.9510878324508667,3.931920289993286
1761400538901742600,3.99874267578125,2.1847591400146484,0.6251709461212158,3.8922173976898193
1761400538911828000,4.008827880859375,2.276705265045166,0.48564451932907104,3.6491036415100098
1761400538921909500,4.018909423828125,2.3274664878845215,0.238600492477417,3.115629196166992
1761400538931977700,4.028977783203125,2.3744804859161377,-0.13248181343078613,2.4710564613342285
1761400538942056000,4.039055908203125,2.4722554683685303,-0.5170704126358032,1.8830569982528687
1761400538952152600,4.049152587890625,2.3958473205566406,-0.9540355801582336,1.374480128288269
1761400538962233600,4.059233642578125,2.027529716491699,-1.2346705198287964,0.9433104991912842
1761400538972311600,4.0693115234375,1.5436004400253296,-1.4205447435379028,0.5732274055480957
1761400538982395600,4.079395751953125,0.920994222164154,-1.423925518989563,0.16056029498577118
1761400538992464100,4.089464111328125,0.20879000425338745,-1.217217206954956,-0.2588849365711212
1761400539002556200,4.09955615234375,-0.389118492603302,-0.9629954099655151,-0.6954171061515808
1761400539012638700,4.109638671875,-0.7512243390083313,-0.7607836723327637,-1.0333914756774902
1761400539022707000,4.11970703125,-1.062735676765442,-0.508560299873352,-1.309762954711914
1761400539032766500,4.129766357421875,-1.3535960912704468,-0.20540925860404968,-1.5894486904144287
1761400539042881500,4.139881591796875,-1.6504186391830444,0.15921132266521454,-1.8520807027816772
1761400539052957000,4.14995703125,-1.9374653100967407,0.5509111881256104,-2.049779176712036
1761400539063042000,4.1600419921875,-2.141392469406128,0.8641045093536377,-2.168255090713501
1761400539073124900,4.170124755859375,-2.250175714492798,1.0525600910186768,-2.239933490753174
1761400539083206100,4.1802060546875,-2.310812473297119,1.2178168296813965,-2.299804449081421
1761400539093272800,4.19027294921875,-2.381242036819458,1.309230089187622,-2.363039255142212
1761400539103364900,4.20036474609375,-2.424142360687256,1.2304404973983765,-2.4387311935424805
1761400539113449200,4.21044921875,-2.346435308456421,1.109299898147583,-2.4947216510772705
1761400539123528200,4.220528076171875,-2.118060350418091,0.9848619699478149,-2.5105762481689453
1761400539133598700,4.2305986328125,-1.790744423866272,0.7110051512718201,-2.48246431350708
1761400539143683300,4.240683349609375,-1.3735973834991455,0.10397032648324966,-2.3210713863372803
1761400539153773000,4.25077294921875,-0.8325287103652954,-0.6357294917106628,-2.0257809162139893
1761400539163841000,4.260841064453125,-0.33326128125190735,-0.8871535062789917,-1.7863144874572754
1761400539173935000,4.27093505859375,-0.06446726620197296,-0.6379611492156982,-1.6236557960510254
1761400539184016000,4.281015869140625,0.26899388432502747,-0.07342706620693207,-1.3335447311401367
1761400539194095400,4.291095458984375,0.9951707124710083,0.30291786789894104,-0.4960865080356598
1761400539204167000,4.3011669921875,1.9322693347930908,0.6486029624938965,1.6193923950195312
1761400539214259700,4.311259765625,1.7638816833496094,0.9052063226699829,2.372748374938965
1761400539224327700,4.32132763671875,0.888619065284729,1.3426212072372437,0.4132000207901001
1761400539234421500,4.33142138671875,0.6016389727592468,1.9882097244262695,-0.4020252525806427
1761400539244502300,4.341502197265625,1.0539090633392334,1.7474110126495361,0.25718626379966736
1761400539254581800,4.351581787109375,1.5959436893463135,0.9510045647621155,-0.34721726179122925
1761400539264664600,4.36166455078125,1.6782639026641846,0.34730052947998047,-1.1198418140411377
1761400539274746000,4.37174609375,1.0839526653289795,-0.14305704832077026,-1.2451791763305664
1761400539284813800,4.381813720703125,0.09917400032281876,-0.32778215408325195,-1.1511845588684082
1761400539294920400,4.39192041015625,-0.7942413687705994,-0.015055130235850811,-1.1050865650177002
1761400539304977400,4.401977294921875,-1.1728179454803467,0.2808681130409241,-0.926406741142273
1761400539315069400,4.4120693359375,-1.2310566902160645,0.542234480381012,-0.6738336682319641
1761400539325149000,4.42214892578125,-1.2845656871795654,0.7193820476531982,-0.6608102917671204
1761400539335232000,4.43223193359375,-1.3597912788391113,0.8434536457061768,-0.8245514631271362
1761400539345294800,4.442294921875,-1.383922815322876,0.7877629995346069,-1.0148056745529175
1761400539355381500,4.452381591796875,-1.4320026636123657,0.600473165512085,-1.1612434387207031
1761400539365462000,4.4624619140625,-1.6879898309707642,0.4781169593334198,-1.3227530717849731
1761400539375553800,4.4725537109375,-1.9981188774108887,0.3712155520915985,-1.581637978553772
1761400539385632800,4.4826328125,-2.169837236404419,-0.1632082611322403,-1.7367358207702637
1761400539395705300,4.492705322265625,-2.067065954208374,-0.5353897213935852,-1.7964067459106445
1761400539405773800,4.50277392578125,-1.8916171789169312,-0.8486663103103638,-1.7091070413589478
1761400539415855400,4.51285546875,-1.8279825448989868,-0.8284152150154114,-1.2449959516525269
1761400539425935000,4.52293505859375,-1.4867607355117798,-0.7376014590263367,-0.803134560585022
1761400539436017200,4.53301708984375,-0.8367587924003601,-0.9582823514938354,-0.39601320028305054
1761400539446087200,4.543087158203125,-0.151134192943573,-1.2532063722610474,0.10971592366695404
1761400539456177700,4.553177734375,0.3375246822834015,-1.4557011127471924,0.5727111101150513
1761400539466269000,4.56326904296875,0.6785633563995361,-1.402458667755127,0.8670355677604675
1761400539476350000,4.573349853515625,0.9474573135375977,-1.2733741998672485,1.0265133380889893
1761400539486459100,4.583459228515625,1.1807118654251099,-0.9328185319900513,1.1461050510406494
1761400539496515800,4.593515869140625,1.5492794513702393,-0.3603571951389313,1.3548117876052856
1761400539506607600,4.603607666015625,2.0445499420166016,0.09710891544818878,1.5773578882217407
1761400539516688400,4.6136884765625,2.368551731109619,0.13607905805110931,1.8545788526535034
1761400539526771700,4.623771728515625,2.2803192138671875,-0.22329555451869965,2.1524338722229004
1761400539536852700,4.633852783203125,1.9954042434692383,-0.6093497276306152,2.3850557804107666
1761400539546933200,4.643933349609375,1.690254807472229,-0.8965796232223511,2.5853188037872314
1761400539557014000,4.654013916015625,1.274173617362976,-1.092512845993042,2.723363161087036
1761400539567093800,4.66409375,0.7797691226005554,-1.0193688869476318,2.730057954788208
1761400539577162500,4.67416259765625,0.33714166283607483,-0.6498353481292725,2.658362865447998
1761400539587271200,4.684271240234375,0.0720614492893219,-0.38477182388305664,2.6267037391662598
1761400539597339100,4.694339111328125,0.03324119374155998,-0.3381075859069824,2.585052490234375
1761400539607408400,4.704408447265625,0.18450860679149628,-0.2002132385969162,2.3559446334838867
1761400539617475000,4.71447509765625,0.46321171522140503,0.12910106778144836,1.8353935480117798
1761400539627582000,4.72458203125,0.7443629503250122,0.4196451008319855,1.2021621465682983
1761400539637648000,4.73464794921875,0.9254574775695801,0.5240484476089478,0.8144758939743042
1761400539647731200,4.744731201171875,0.8880361914634705,0.4305534064769745,0.5818208456039429
1761400539657825300,4.7548251953125,0.7036274671554565,0.2889952063560486,0.27647146582603455
1761400539667906000,4.764906005859375,0.5057957172393799,0.165506511926651,-0.040219180285930634
1761400539677981700,4.774981689453125,0.24356335401535034,0.06974655389785767,-0.24800994992256165
1761400539688068400,4.785068359375,-0.05280953273177147,0.1339806616306305,-0.34991520643234253
1761400539698134500,4.795134521484375,-0.36966672539711,0.3111449182033539,-0.385787695646286
1761400539708230700,4.805230712890625,-0.7067916989326477,0.45918145775794983,-0.40885335206985474
1761400539718310700,4.815310546875,-1.008793592453003,0.562069296836853,-0.46939030289649963
1761400539728380000,4.8253798828125,-1.2186661958694458,0.6599942445755005,-0.5727943778038025
1761400539738473200,4.83547314453125,-1.3776776790618896,0.7436301708221436,-0.6972990036010742
1761400539748554200,4.84555419921875,-1.5183531045913696,0.8094630241394043,-0.7841324806213379
1761400539758626000,4.8556259765625,-1.6232061386108398,0.8716320991516113,-0.8650204539299011
1761400539768716000,4.865716064453125,-1.6967997550964355,0.9076211452484131,-0.954884946346283
1761400539778797600,4.875797607421875,-1.7351536750793457,0.8316793441772461,-1.0440332889556885
1761400539788878300,4.88587841796875,-1.750125527381897,0.7558208107948303,-1.1427409648895264
1761400539798942200,4.895942138671875,-1.744563102722168,0.7854813933372498,-1.2334048748016357
1761400539809040600,4.90604052734375,-1.7068086862564087,0.8397564888000488,-1.3056161403656006
1761400539819121400,4.916121337890625,-1.5718954801559448,0.7372183799743652,-1.282533884048462
1761400539839271400,4.936271484375,-0.8174569010734558,0.0857343003153801,-0.9632951617240906
1761400539849364700,4.94636474609375,-0.31645750999450684,-0.056673239916563034,-1.0692973136901855
1761400539859423700,4.956423828125,0.17375019192695618,-0.026363130658864975,-1.399893879890442
1761400539869527600,4.966527587890625,0.6666724681854248,-0.13466347754001617,-1.8790100812911987
1761400539879607300,4.976607177734375,1.1341642141342163,-0.3088799715042114,-1.9182300567626953
1761400539899769300,4.996769287109375,1.41005277633667,-0.16965332627296448,0.0592879019677639
1761400539909825500,5.006825439453125,0.737351655960083,0.6183261871337891,0.0662325769662857
1761400539919931600,5.016931640625,0.5693303942680359,2.18770694732666,0.190220907330513
1761400539929987600,5.026987548828125,1.1703864336013794,2.0185863971710205,0.7498920559883118
1761400539940069000,5.037069091796875,1.6720020771026611,1.174300193786621,0.4625122547149658
1761400539950175700,5.04717578125,2.114363193511963,0.5805551409721375,-0.35825881361961365
1761400539960252700,5.057252685546875,1.6491528749465942,-0.2350032478570938,-0.5502783060073853
1761400539970311700,5.067311767578125,0.42350879311561584,-0.5382375717163086,-0.30986255407333374
1761400539980417800,5.077417724609375,-1.1093332767486572,-0.6131801009178162,-0.23803426325321198
1761400539990499600,5.08749951171875,-2.1405763626098633,-0.25913476943969727,-0.39214950799942017
1761400540000580600,5.09758056640625,-2.383390188217163,0.9474406242370605,-0.66325843334198
1761400540010661400,5.107661376953125,-2.2970564365386963,2.0492630004882812,-0.8101292252540588
1761400540020738000,5.117738037109375,-2.0088107585906982,1.966576337814331,-0.6791129112243652
1761400540030824000,5.127823974609375,-1.2662297487258911,1.225327730178833,-0.7072913646697998
1761400540040903700,5.137903564453125,-0.52180016040802,0.48932501673698425,-1.0630687475204468
1761400540050955000,5.147955078125,-0.09585987776517868,-0.10471975058317184,-1.3903346061706543
1761400540061066200,5.158066162109375,-0.1913367062807083,-0.6174601912498474,-1.4196953773498535
1761400540071147300,5.168147216796875,-0.6021052598953247,-0.7634649872779846,-1.3435370922088623
1761400540091310000,5.18831005859375,-0.8245681524276733,0.28827908635139465,-1.4929393529891968
1761400540101366800,5.19836669921875,-0.7240118384361267,-0.16319161653518677,-0.8476004600524902
1761400540111446300,5.2084462890625,-0.4349500238895416,-0.9232591986656189,-0.01858575828373432
1761400540121552400,5.218552490234375,-0.05557408183813095,-1.1135300397872925,0.4754190146923065
1761400540131633200,5.228633056640625,0.15053464472293854,-1.0074113607406616,0.6973323225975037
1761400540141715000,5.23871484375,0.3146921992301941,-0.7254107594490051,0.8102124929428101
1761400540151770400,5.248770263671875,0.5857511162757874,-0.5594213008880615,1.0230993032455444
1761400540161876200,5.258876220703125,1.014439344406128,-0.6712689399719238,1.449172854423523
1761400540171957500,5.26895751953125,1.600706696510315,-0.9505549073219299,1.8773114681243896
1761400540182038300,5.279038330078125,2.0106258392333984,-1.4775511026382446,1.849116325378418
1761400540192119800,5.289119873046875,2.097975730895996,-2.0159051418304443,1.7106724977493286
1761400540202200600,5.29920068359375,2.1427247524261475,-2.386554479598999,1.7643146514892578
1761400540212277500,5.309277587890625,2.176548719406128,-2.541952133178711,2.084519386291504
1761400540222362600,5.319362548828125,2.1828439235687256,-2.4694910049438477,2.5533266067504883
1761400540232432000,5.32943212890625,2.173018217086792,-2.3513314723968506,2.9146664142608643
1761400540242503000,5.3395029296875,2.092180013656616,-2.2402498722076416,3.0082781314849854
1761400540252606000,5.34960595703125,1.8962136507034302,-2.2946581840515137,2.8594088554382324
1761400540262687000,5.35968701171875,1.6094499826431274,-2.267545700073242,2.5224337577819824
1761400540272767700,5.369767822265625,1.3549450635910034,-2.01955246925354,2.3340115547180176
1761400540282844700,5.3798447265625,1.2786202430725098,-1.442044973373413,1.9686248302459717
1761400540292929800,5.3899296875,1.3012361526489258,-0.7517572641372681,1.3683847188949585
1761400540303010800,5.4000107421875,1.174300193786621,-0.34097203612327576,0.9651104211807251
1761400540313091800,5.410091796875,0.815008819103241,-0.20234493911266327,0.43586599826812744
1761400540323173400,5.42017333984375,0.4704894721508026,0.007027947809547186,-0.15053464472293854
1761400540333254400,5.43025439453125,0.2991374433040619,0.19929727911949158,-0.6235388517379761
1761400540343310300,5.440310302734375,0.05314261093735695,0.3169904351234436,-0.9623458981513977
1761400540353416200,5.450416259765625,-0.26939356327056885,0.49875113368034363,-1.2048766613006592
1761400540363497200,5.460497314453125,-0.5593547224998474,0.8246014714241028,-1.3952142000198364
1761400540373552600,5.470552734375,-0.7780205011367798,1.1794462203979492,-1.5428177118301392
1761400540383634000,5.480634033203125,-0.9807317852973938,1.3626391887664795,-1.645938754081726
1761400540393741300,5.4907412109375,-1.1501352787017822,1.4362993240356445,-1.7453792095184326
1761400540403817000,5.50081689453125,-1.3576430082321167,1.4390805959701538,-1.8672025203704834
1761400540413902800,5.51090283203125,-1.6002237796783447,1.4059226512908936,-1.982897162437439
1761400540423983400,5.5209833984375,-1.8358099460601807,1.4614300727844238,-2.0976593494415283
1761400540434064400,5.531064453125,-2.0738775730133057,1.614646077156067,-2.2069754600524902
1761400540444120800,5.541120849609375,-2.2743072509765625,1.7880964279174805,-2.261533737182617
1761400540454227500,5.5512275390625,-2.25052547454834,1.9189461469650269,-2.2384679317474365
1761400540464308000,5.561307861328125,-1.9639782905578613,1.8450194597244263,-2.080688953399658
1761400540474384600,5.571384521484375,-1.540752649307251,1.3518640995025635,-1.827849268913269
1761400540484446000,5.581446044921875,-0.9927226305007935,0.5707959532737732,-1.6134469509124756
1761400540494551600,5.591551513671875,-0.415631502866745,-0.24566175043582916,-1.3389573097229004
1761400540504631600,5.601631591796875,0.05290945619344711,-0.7365356087684631,-0.8406391739845276
1761400540514713900,5.6117138671875,0.3934818208217621,-0.7817176580429077,-0.24732713401317596
1761400540524793600,5.621793701171875,0.8330949544906616,-0.18086141347885132,0.10805053263902664
1761400540534876000,5.6318759765625,1.5669991970062256,0.47323736548423767,0.31973832845687866
1761400540544955600,5.64195556640625,2.240299940109253,0.7896448969841003,0.9262735247612
1761400540555036700,5.65203662109375,2.1648244857788086,0.842038094997406,1.793558955192566
1761400540565118700,5.66211865234375,1.6056362390518188,0.9823139309883118,1.4743036031723022
1761400540575199000,5.672198974609375,1.211205244064331,0.9351333975791931,0.6762651205062866
1761400540585280800,5.68228076171875,0.2315225899219513,0.532225489616394,0.056473392993211746
1761400540595335400,5.69233544921875,-1.2573697566986084,1.1855415105819702,0.40179210901260376
1761400540605443000,5.702443115234375,-1.8466682434082031,2.0620031356811523,1.2184163331985474
1761400540615515000,5.712514892578125,-0.8082639575004578,1.776971697807312,0.3182394802570343
1761400540625603800,5.722603759765625,1.741015911102295,1.1482867002487183,-0.6141460537910461
1761400540635685000,5.73268505859375,3.004331111907959,0.7464446425437927,-0.6994140148162842
1761400540645766100,5.74276611328125,2.023283004760742,0.6368120312690735,-0.5859842896461487
1761400540655847000,5.752846923828125,0.8858544826507568,-0.006145291030406952,-0.21908211708068848
1761400540665928700,5.7629287109375,-0.44572511315345764,-1.2344872951507568,-0.03635547310113907
1761400540676009200,5.77300927734375,-1.4975690841674805,-1.8094301223754883,-0.02551378309726715
1761400540686090000,5.783090087890625,-2.3954811096191406,-1.4818477630615234,-0.4262566864490509
1761400540696146000,5.79314599609375,-2.7417657375335693,-0.871265709400177,-1.119275689125061
1761400540706252300,5.803252197265625,-2.628652334213257,-0.3926657736301422,-1.7450127601623535
1761400540716333800,5.813333740234375,-2.5723788738250732,-0.4089532792568207,-1.8419718742370605
1761400540726396200,5.823396240234375,-2.0759758949279785,0.20462653040885925,-2.0356900691986084
1761400540736495400,5.833495361328125,-1.510026216506958,0.6868070363998413,-1.9950544834136963
1761400540746576400,5.843576416015625,-0.9542021155357361,0.3634381592273712,-1.5692641735076904
1761400540756632300,5.85363232421875,-0.8703996539115906,-0.2865137755870819,-1.1893385648727417
1761400540766713900,5.8637138671875,-0.9945212602615356,-0.7603006958961487,-0.8517805933952332
1761400540776802600,5.873802490234375,-1.2493759393692017,-0.828448474407196,-0.5850683450698853
1761400540786877400,5.88387744140625,-1.357776165008545,-0.6140961050987244,-0.5094762444496155
1761400540796982000,5.89398193359375,-1.305599570274353,-0.4695901572704315,-0.3125271797180176
1761400540807088600,5.904088623046875,-1.0383210182189941,-0.5913468599319458,0.20870673656463623
1761400540817104400,5.9141044921875,-0.6016222834587097,-0.7293077707290649,0.8239186406135559
1761400540827216000,5.9242158203125,-0.17233461141586304,-0.5977752804756165,1.3055495023727417
1761400540837306400,5.934306396484375,0.3989776074886322,-0.30348411202430725,1.5987248420715332
1761400540847387000,5.944386962890625,0.7210308313369751,-0.11183097213506699,1.7695939540863037
1761400540857446100,5.954446044921875,1.1603275537490845,-0.18589088320732117,1.8916836977005005
1761400540867539000,5.9645390625,1.5936787128448486,-0.5383707880973816,2.009110450744629
1761400540877643300,5.974643310546875,1.9509716033935547,-0.7765049934387207,2.0637850761413574
1761400540887711500,5.98471142578125,2.0205516815185547,-0.9719551801681519,2.2071752548217773
1761400540897792300,5.994792236328125,1.9864777326583862,-1.2841160297393799,2.3636221885681152
1761400540907874300,6.004874267578125,2.0784239768981934,-1.4133669137954712,2.536656141281128
1761400540917954600,6.01495458984375,2.064034938812256,-1.3073481321334839,2.6601948738098145
1761400540928043300,6.025043212890625,2.063568592071533,-1.177897334098816,2.639810562133789
1761400540938091500,6.035091552734375,1.8185231685638428,-1.0373051166534424,2.4647445678710938
1761400540948180200,6.04518017578125,1.4915403127670288,-0.9031912088394165,2.2265937328338623
1761400540968359400,6.065359375,0.9473240971565247,-0.9326186776161194,1.8173240423202515
1761400540978436400,6.075436279296875,0.8982117176055908,-1.1111319065093994,1.6956839561462402
1761400540988521700,6.085521728515625,0.9642277956008911,-1.2873800992965698,1.6686879396438599
1761400540998602200,6.095602294921875,1.0819542407989502,-1.3701833486557007,1.62350594997406
1761400541008683300,6.105683349609375,1.1375283002853394,-1.3318626880645752,1.4526700973510742
1761400541018764300,6.115764404296875,1.0717287063598633,-1.15981125831604,1.2220135927200317
1761400541028845300,6.12584521484375,0.9136665463447571,-0.9101026058197021,0.9838294386863708
1761400541038922500,6.135922607421875,0.7536557912826538,-0.6985147595405579,0.7540221810340881
1761400541049000200,6.146000244140625,0.6083171963691711,-0.5370717644691467,0.5969592332839966
1761400541059088400,6.15608837890625,0.45933136343955994,-0.415764719247818,0.48654383420944214
1761400541069169700,6.166169677734375,0.28619736433029175,-0.22029785811901093,0.34936562180519104
1761400541079250700,6.176250732421875,0.05662327632308006,0.047030627727508545,0.21575133502483368
1761400541089332000,6.18633203125,-0.18156087398529053,0.30333423614501953,0.10443663597106934
1761400541099412700,6.196412841796875,-0.406471848487854,0.4588817059993744,0.020684149116277695
1761400541109489700,6.20648974609375,-0.5831864476203918,0.5389203429222107,-0.049328867346048355
1761400541119574800,6.21657470703125,-0.6982482671737671,0.6071014404296875,-0.12020788341760635
1761400541129655600,6.226655517578125,-0.7710258364677429,0.7287248969078064,-0.22023123502731323
1761400541139736800,6.23673681640625,-0.8454521298408508,0.8939149975776672,-0.34776684641838074
1761400541149816800,6.24681689453125,-0.9229593873023987,1.073960304260254,-0.5193686485290527
1761400541159899000,6.25689892578125,-0.9961532950401306,1.269493818283081,-0.7114048600196838
1761400541169976000,6.26697607421875,-1.0547751188278198,1.5393704175949097,-0.8559107780456543
1761400541180035600,6.27703564453125,-1.073693871498108,1.9572168588638306,-0.992073118686676
1761400541190142500,6.287142578125,-1.0298441648483276,2.4685750007629395,-1.125620722770691
1761400541200201200,6.297201171875,-0.9094364643096924,2.8504323959350586,-1.152999758720398
1761400541210278000,6.30727783203125,-0.7140694856643677,2.8539628982543945,-1.2847987413406372
1761400541220385300,6.31738525390625,-0.6799289584159851,2.207624912261963,-1.3044337034225464
1761400541230443500,6.327443603515625,-0.5499119162559509,1.3961302042007446,-1.1697536706924438
1761400541240544000,6.3375439453125,-0.35451167821884155,0.969507098197937,-1.117060661315918
1761400541250602200,6.347602294921875,-0.10581891238689423,1.1621594429016113,-1.121740460395813
1761400541260709400,6.35770947265625,0.244296133518219,1.6323491334915161,-1.0023152828216553
1761400541270790100,6.3677900390625,0.17160183191299438,2.1541993618011475,-0.5936450958251953
1761400541280846000,6.37784619140625,0.017003636807203293,2.3200554847717285,-0.32826513051986694
1761400541290953200,6.387953125,-0.17851319909095764,1.6118148565292358,-0.5185026526451111
1761400541301008000,6.3980078125,-0.4766680598258972,0.6305501461029053,-1.1759155988693237
1761400541311114200,6.4081142578125,-0.9361659288406372,-0.2577857971191406,-1.3557777404785156
1761400541321195800,6.41819580078125,-0.6971824169158936,-0.49966710805892944,-0.8459850549697876
1761400541331264000,6.428263916015625,-0.027229133993387222,-0.30703139305114746,-0.27925267815589905
1761400541341354800,6.438354736328125,-0.04363323003053665,-0.11407924443483353,0.02543051354587078
1761400541351438300,6.448438232421875,-0.31805628538131714,0.2566033601760864,0.3083803653717041
1761400541361503500,6.45850341796875,-0.7242283821105957,0.5956102609634399,0.41018566489219666
1761400541371575600,6.468575439453125,-1.3783937692642212,0.7994873523712158,0.193201944231987
1761400541381636600,6.47863671875,-2.171635866165161,1.3737972974777222,-0.18592418730258942
1761400541391737600,6.488737548828125,-2.2690112590789795,1.453352928161621,-0.6703696250915527
1761400541401817900,6.49881787109375,-2.0309104919433594,0.8592915534973145,-0.9364990592002869
1761400541411925000,6.508925048828125,-1.6134636402130127,0.09414452314376831,-0.9981018304824829
1761400541422005800,6.519005859375,-1.2713091373443604,-0.6762318015098572,-1.0873167514801025
1761400541432064500,6.529064453125,-0.8829567432403564,-1.1858079433441162,-1.1464715003967285
1761400541442141400,6.539141357421875,-0.6119810342788696,-1.2383511066436768,-1.143540382385254
1761400541452223700,6.5492236328125,-1.006062388420105,-0.9398298263549805,-1.117077350616455
1761400541462330600,6.55933056640625,-1.4024419784545898,-0.10137231647968292,-1.362372636795044
1761400541472411000,6.569410888671875,-1.5333750247955322,0.8698834180831909,-1.8507983684539795
1761400541482492400,6.579492431640625,-1.362739086151123,1.1171272993087769,-2.079206705093384
1761400541492547800,6.5895478515625,-1.4942882061004639,0.44647452235221863,-1.8620398044586182
1761400541502654000,6.599654052734375,-1.6092168092727661,-0.5576393604278564,-1.5337746143341064
1761400541512735000,6.60973486328125,-1.7202484607696533,-1.2059425115585327,-1.200063705444336
1761400541522816000,6.61981591796875,-1.513040542602539,-1.2565704584121704,-0.826183557510376
1761400541532865300,6.629865234375,-1.0821874141693115,-1.331296443939209,-0.4257570803165436
1761400541542978000,6.63997802734375,-0.7579858303070068,-1.683709740638733,0.03134264796972275
1761400541553034200,6.6500341796875,-0.3396730422973633,-2.0005669593811035,0.4442928731441498
1761400541563118000,6.6601181640625,0.2682444453239441,-2.307997941970825,0.6595945358276367
1761400541573229300,6.670229248046875,0.9253076314926147,-2.437265634536743,0.7126705646514893
1761400541583284200,6.6802841796875,1.5724283456802368,-2.156047821044922,0.768427848815918
1761400541593357800,6.69035791015625,2.0012831687927246,-1.762765884399414,0.8885524272918701
1761400541603464700,6.700464599609375,1.8956639766693115,-1.6015560626983643,1.0515109300613403
1761400541613546200,6.710546142578125,1.741565465927124,-1.6459553241729736,1.2173337936401367
1761400541623601000,6.720600830078125,1.7107057571411133,-1.715069055557251,1.5197020769119263
1761400541633692000,6.73069189453125,1.6425912380218506,-1.5016659498214722,2.122723340988159
1761400541643763200,6.74076318359375,1.4591984748840332,-1.084135890007019,2.75710391998291
1761400541653869800,6.750869873046875,1.1530663967132568,-0.5874331593513489,2.950322389602661
1761400541663951000,6.760951171875,0.8801588416099548,-0.037554554641246796,2.683626890182495
1761400541674031600,6.771031494140625,0.7615497708320618,0.24835968017578125,2.1522674560546875
1761400541684108800,6.78110888671875,0.6973323225975037,-0.10820041596889496,1.8001205921173096
1761400541694168300,6.791168212890625,0.6939349174499512,-0.6961331963539124,1.9071552753448486
1761400541704275000,6.80127490234375,0.8148589134216309,-0.8301305174827576,2.1672558784484863
1761400541714330000,6.811330078125,1.0437002182006836,-0.3249010145664215,2.0806221961975098
1761400541724438000,6.82143798828125,1.249542474746704,0.17569869756698608,1.6983485221862793
1761400541734502100,6.831502197265625,1.2672955989837646,0.08814911544322968,1.386137843132019
1761400541744599600,6.841599609375,1.1197586059570312,-0.32305243611335754,1.0895650386810303
1761400541754680300,6.851680419921875,0.9643610119819641,-0.5895149111747742,0.782350480556488
1761400541764736000,6.861736083984375,0.8387739062309265,-0.6603273153305054,0.5626355409622192
1761400541774843000,6.8718427734375,0.6597444415092468,-0.6620093584060669,0.3585585653781891
1761400541784897500,6.8818974609375,0.4227094054222107,-0.6007396578788757,0.126419797539711
1761400541795004700,6.892004638671875,0.1501016467809677,-0.46600955724716187,-0.10270462930202484
1761400541805085400,6.90208544921875,-0.13146592676639557,-0.3075976073741913,-0.28201723098754883
1761400541815154000,6.91215380859375,-0.3491824269294739,-0.17434972524642944,-0.4239085018634796
1761400541825250000,6.92225,-0.4908905029296875,-0.04854613170027733,-0.5404691696166992
1761400541835320800,6.93232080078125,-0.5903476476669312,0.12089069187641144,-0.640475869178772
1761400541845409300,6.9424091796875,-0.6693870425224304,0.326549768447876,-0.7486263513565063
1761400541855490000,6.952489990234375,-0.7547716498374939,0.5132899880409241,-0.8345271944999695
1761400541875644700,6.972644775390625,-0.9223265647888184,0.775772213935852,-0.8856213688850403
1761400541885714000,6.9827138671875,-0.9901745915412903,0.8246181011199951,-0.9132168889045715
1761400541895815000,6.99281494140625,-0.9610468745231628,0.9198451042175293,-0.9271395206451416
1761400541905895700,7.002895751953125,-0.8549448847770691,1.1523503065109253,-0.9359827637672424
1761400541915976200,7.01297607421875,-0.7986879944801331,1.4163646697998047,-0.9614132642745972
1761400541926057500,7.023057373046875,-0.8519638180732727,1.4605474472045898,-1.051011323928833
1761400541936123600,7.03312353515625,-0.9119845032691956,1.420211672782898,-1.0360227823257446
1761400541946220000,7.043219970703125,-0.7986879944801331,1.7412323951721191,-0.8016523718833923
1761400541956300500,7.053300537109375,-0.4002932608127594,2.4690747261047363,-0.4564668834209442
1761400541966360600,7.063360595703125,0.41623103618621826,3.103238582611084,-0.45636695623397827
1761400541976463400,7.07346337890625,0.9094864130020142,3.477468490600586,-0.7425976395606995
1761400541986544400,7.08354443359375,0.6396931409835815,2.979067087173462,-1.2644976377487183
1761400541996625400,7.09362548828125,-0.003280819160863757,1.6198920011520386,-1.6930192708969116
1761400542006706200,7.1037060546875,-0.5673652291297913,0.5446493029594421,-2.169121026992798
1761400542016787200,7.113787109375,-0.6383441686630249,0.1873064637184143,-2.151451349258423
1761400542026851600,7.1238515625,-0.3093462884426117,0.08704996109008789,-1.4165644645690918
1761400542036942800,7.13394287109375,0.23088973760604858,0.02045099437236786,-0.6008728742599487
1761400542047029800,7.14402978515625,0.20572568476200104,0.38825249671936035,0.018236026167869568
1761400542057111300,7.154111328125,-0.49688589572906494,0.6078342199325562,0.2442295104265213
1761400542067214000,7.164214111328125,-0.9875932335853577,0.6703363060951233,0.15118414163589478
1761400542077274000,7.174274169921875,-1.325284481048584,0.784199059009552,-0.3337109386920929
1761400542087355000,7.18435498046875,-1.501299500465393,0.9930223822593689,-0.8890354037284851
1761400542097423400,7.19442333984375,-1.5241986513137817,0.845268964767456,-0.8904842734336853
1761400542107516400,7.204516357421875,-1.2399165630340576,0.1559971272945404,-0.6970158815383911
1761400542117560300,7.214560302734375,-0.7238619923591614,-0.5138062834739685,-0.606784999370575
1761400542127679000,7.224678955078125,-0.2556041181087494,-1.1702698469161987,-0.6188257932662964
1761400542137759500,7.234759521484375,0.02346535213291645,-1.4117515087127686,-0.6933853030204773
1761400542147838500,7.24483837890625,-0.31730684638023376,-0.6447558999061584,-0.8941648006439209
1761400542157921800,7.254921875,-0.970872700214386,0.4386138916015625,-1.1798292398452759
1761400542167977000,7.26497705078125,-1.4178467988967896,0.8574262857437134,-1.2244950532913208
1761400542178080300,7.275080322265625,-1.5584890842437744,0.7072913646697998,-1.0797559022903442
1761400542188163300,7.285163330078125,-1.4752029180526733,0.22780875861644745,-0.9166309237480164
1761400542198231000,7.29523095703125,-1.2366523742675781,-0.5622358322143555,-0.6944511532783508
1761400542208302300,7.30530224609375,-1.0004832744598389,-1.2175337076187134,-0.16365791857242584
1761400542218384600,7.315384521484375,-0.7626156210899353,-1.4431440830230713,0.43581604957580566
1761400542228489200,7.3254892578125,-0.49587002396583557,-1.5399366617202759,0.8741634488105774
1761400542238570200,7.3355703125,-0.158628448843956,-1.6320827007293701,1.1864241361618042
1761400542248651500,7.345651611328125,0.2693102955818176,-1.643873691558838,1.520717978477478
1761400542258727400,7.3557275390625,0.7424643635749817,-1.5723117589950562,1.8944482803344727
1761400542268812500,7.3658125,1.259418249130249,-1.3621561527252197,2.374730348587036
1761400542278893600,7.3758935546875,1.815292239189148,-1.000866413116455,2.7991883754730225
1761400542288974800,7.385974853515625,2.092163562774658,-0.6608935594558716,2.9752867221832275
1761400542299055600,7.3960556640625,2.119159460067749,-0.3795924484729767,3.0586395263671875
1761400542309136600,7.40613671875,2.1539993286132812,-0.5179031491279602,3.0878171920776367
1761400542319193000,7.416193115234375,2.250025749206543,-0.8170405626296997,3.1231067180633545
1761400542329275100,7.426275146484375,2.351065158843994,-1.1197253465652466,3.162260055541992
1761400542339354600,7.436354736328125,2.457899808883667,-1.397512435913086,3.26308274269104
1761400542349461200,7.446461181640625,2.477468252182007,-1.6078013181686401,3.3150429725646973
1761400542359542000,7.4565419921875,2.3290653228759766,-1.559471607208252,2.9464588165283203
1761400542369623000,7.466623046875,2.0785906314849854,-1.281151533126831,2.326317310333252
1761400542379703800,7.476703857421875,1.803301453590393,-1.038637399673462,1.7138866186141968
1761400542389796900,7.486796875,1.5862177610397339,-0.9334680438041687,1.1105656623840332
1761400542399841500,7.496841552734375,1.3463349342346191,-0.9495890140533447,0.6389769911766052
1761400542409912300,7.506912353515625,0.8990110754966736,-0.873863697052002,0.32756564021110535
1761400542420028200,7.517028076171875,0.431102991104126,-0.6217901706695557,0.013689509592950344
1761400542430109200,7.527109130859375,0.025363897904753685,-0.42987060546875,-0.2900277376174927
1761400542440166000,7.537165771484375,-0.3648870587348938,-0.29695576429367065,-0.5602706670761108
1761400542450246400,7.547246337890625,-0.636911928653717,-0.09387806057929993,-0.7740734815597534
1761400542460324600,7.55732470703125,-0.8445861339569092,0.12721918523311615,-0.8922662734985352
1761400542470408700,7.56740869140625,-0.9289714694023132,0.4240417182445526,-0.983146607875824
1761400542480514800,7.577514892578125,-0.9676418304443359,0.7504915595054626,-1.1153953075408936
1761400542490595300,7.58759521484375,-1.0996407270431519,1.1595780849456787,-1.3250346183776855
1761400542500676400,7.59767626953125,-1.3624060153961182,1.6233559846878052,-1.5191692113876343
1761400542510759200,7.60775927734375,-1.6447229385375977,1.997036337852478,-1.651401162147522
1761400542520817700,7.617817626953125,-1.7778875827789307,2.1444900035858154,-1.7272430658340454
1761400542541001500,7.63800146484375,-1.5053131580352783,2.222663402557373,-1.6210078001022339
1761400542551056600,7.648056640625,-1.210222601890564,1.9279060363769531,-1.498285174369812
1761400542561163000,7.6581630859375,-0.8777273893356323,1.2088069915771484,-1.3590751886367798
1761400542571244800,7.668244873046875,-0.44099539518356323,0.38973468542099,-1.1472375392913818
1761400542581317600,7.678317626953125,0.09044735878705978,-0.039269909262657166,-0.8170405626296997
1761400542591393300,7.688393310546875,0.677930474281311,0.22690945863723755,-0.2985711991786957
1761400542601486000,7.698486083984375,1.2669291496276855,0.9699400663375854,0.4073545038700104
1761400542611568600,7.708568603515625,1.5840195417404175,1.6886392831802368,0.9973690509796143
1761400542621649700,7.718649658203125,1.617677092552185,2.1966333389282227,1.1577961444854736
1761400542631740700,7.72874072265625,1.4880430698394775,2.422543525695801,1.032825231552124
1761400542641788200,7.7387880859375,1.1537991762161255,1.9729881286621094,0.6122475266456604
1761400542651867400,7.748867431640625,0.5879161357879639,0.605286180973053,-0.007777373772114515
1761400542661948000,7.758947998046875,0.2502082586288452,-0.13166576623916626,-0.5730608701705933
1761400542672029200,7.769029296875,0.20879000425338745,0.20196190476417542,-1.0056960582733154
1761400542682124800,7.779124755859375,0.12154019623994827,0.5810880661010742,-1.1252710819244385
1761400542692191000,7.78919091796875,-0.17718088626861572,0.9388139247894287,-0.8365922570228577
1761400542702251000,7.7992509765625,-0.4654100239276886,1.0878996849060059,-0.6743665933609009
1761400542712342300,7.80934228515625,-0.6465545296669006,0.589564859867096,-0.6248211860656738
1761400542722423600,7.819423583984375,-0.7827168703079224,-0.2234620898962021,-0.9344173073768616
1761400542732524300,7.829524169921875,-1.1628589630126953,-0.33987289667129517,-1.4074381589889526
1761400542742605000,7.83960498046875,-1.7764387130737305,0.01538820844143629,-1.7303074598312378
1761400542752677600,7.849677734375,-2.3025355339050293,0.2204144299030304,-1.937765121459961
1761400542762783500,7.859783447265625,-2.524498701095581,0.012040773406624794,-2.1888227462768555
1761400542772839400,7.86983935546875,-2.4340014457702637,-0.45183709263801575,-2.3539462089538574
1761400542782922200,7.879922119140625,-2.194235324859619,-0.8315128087997437,-2.1490864753723145
1761400542793003500,7.89000341796875,-1.945375919342041,-0.8661695718765259,-1.5286952257156372
1761400542803108400,7.9001083984375,-1.8887526988983154,-0.5239318609237671,-0.7776873707771301
1761400542813189600,7.910189697265625,-2.0154223442077637,0.41789641976356506,-0.31182771921157837
1761400542823250000,7.92025,-2.117044448852539,1.7755227088928223,-0.22232963144779205
1761400542833324800,7.93032470703125,-2.0049636363983154,2.495537757873535,-0.119891457259655
1761400542843406000,7.940406005859375,-1.5877833366394043,1.9818812608718872,-0.0010158881777897477
1761400542853513700,7.950513671875,-1.0907307863235474,0.4241916239261627,-0.342670738697052
1761400542863594000,7.960593994140625,-0.5415017008781433,-1.0523602962493896,-0.8635216355323792
1761400542873650000,7.97064990234375,-0.17949578166007996,-1.8119615316390991,-1.0472475290298462
1761400542883731500,7.9807314453125,0.13631221652030945,-2.235187292098999,-0.9715721607208252
1761400542893812000,7.99081201171875,0.7089734077453613,-2.451920986175537,-0.8830899596214294
1761400542903905800,8.00090576171875,1.368634581565857,-2.4537863731384277,-0.8973124027252197
1761400542913974000,8.01097412109375,1.8423715829849243,-2.0231995582580566,-0.8856046795845032
1761400542924084500,8.02108447265625,1.9851953983306885,-1.4630955457687378,-0.7034942507743835
1761400542934148900,8.03114892578125,2.0775580406188965,-0.977184534072876,-0.3226194381713867
1761400542944242200,8.0412421875,2.1773147583007812,-0.9399630427360535,0.3475336730480194
1761400542954332000,8.051331787109374,2.2043440341949463,-1.1784969568252563,1.1759822368621826
1761400542964389600,8.0613896484375,2.0308103561401367,-1.3712491989135742,1.916764497756958
1761400542974479600,8.071479736328126,1.828548789024353,-1.611415147781372,2.5970098972320557
1761400542984566300,8.081566162109375,1.5433839559555054,-1.9994179010391235,3.099708080291748
1761400542994635500,8.091635498046875,1.2046269178390503,-2.4042909145355225,3.230757713317871
1761400543004704000,8.1017041015625,0.9228261709213257,-2.4712395668029785,2.9904417991638184
1761400543014809300,8.111809326171874,0.7224297523498535,-2.0356900691986084,2.661044120788574
1761400543024891000,8.121890869140625,0.6266864538192749,-1.3322124481201172,2.526031017303467
1761400543034956000,8.1319560546875,0.6780803799629211,-0.6383441686630249,2.465344190597534
1761400543045052400,8.142052490234375,0.8102457523345947,-0.3158246576786041,2.3433210849761963
1761400543055128000,8.152128173828125,0.9001935124397278,-0.2552543878555298,2.1544322967529297
1761400543065215200,8.16221533203125,0.9881927371025085,-0.23457024991512299,1.9065890312194824
1761400543075296000,8.1722958984375,1.2130870819091797,-0.22690945863723755,1.569713830947876
1761400543085376500,8.18237646484375,1.481764554977417,-0.37847664952278137,1.2598512172698975
1761400543095443500,8.192443359375,1.6191425323486328,-0.6275524497032166,0.9579992294311523
1761400543105517000,8.20251708984375,1.5304771661758423,-0.8965129852294922,0.6958667635917664
1761400543115618000,8.2126181640625,1.3185062408447266,-1.0614699125289917,0.4171636700630188
1761400543125704700,8.22270458984375,1.0938118696212769,-0.9395966529846191,0.1214902326464653
1761400543135769300,8.232769287109376,0.8543786406517029,-0.6918198466300964,-0.07049597799777985
1761400543145863400,8.242863525390625,0.612214207649231,-0.40976932644844055,-0.1657230108976364
1761400543155955000,8.252954833984376,0.3568432331085205,-0.003164242021739483,-0.27250784635543823
1761400543166012200,8.26301220703125,0.0728941410779953,0.4548014998435974,-0.4069714844226837
1761400543176106200,8.273106201171874,-0.19621630012989044,0.8740968704223633,-0.6051196455955505
1761400543186187000,8.28318701171875,-0.43211886286735535,1.2205979824066162,-0.8270662426948547
1761400543196266000,8.293265869140624,-0.630949854850769,1.5882163047790527,-1.044466257095337
1761400543206349600,8.303349609375,-0.8217702507972717,1.8672857284545898,-1.218166470527649
1761400543216428300,8.31342822265625,-0.9565836191177368,2.015155792236328,-1.3349270820617676
1761400543226496500,8.32349658203125,-1.0387539863586426,1.8678853511810303,-1.3130770921707153
1761400543236588300,8.33358837890625,-1.1116981506347656,1.5864009857177734,-1.2074414491653442
1761400543246673700,8.343673583984375,-1.1713191270828247,1.4002436399459839,-1.2565205097198486
1761400543256754700,8.353754638671875,-1.1602442264556885,1.0258471965789795,-1.384472370147705
1761400543266835700,8.363835693359375,-1.0319925546646118,0.5010160803794861,-1.4183464050292969
1761400543276916500,8.37391650390625,-0.7347702980041504,0.30181872844696045,-1.140476107597351
1761400543286997800,8.383997802734376,-0.3388403356075287,0.5230158567428589,-0.6228727102279663
1761400543297077500,8.394077392578126,0.07139529287815094,1.123522400856018,-0.19058728218078613
1761400543307159800,8.404159912109375,0.3098958730697632,1.8279492855072021,-0.11298009008169174
1761400543317240600,8.414240478515625,0.13423047959804535,2.1910042762756348,-0.2206309288740158
1761400543327309600,8.4243095703125,-0.4621458649635315,2.175333023071289,-0.4107852280139923
1761400543337390300,8.434390380859375,-1.0607038736343384,1.8805922269821167,-0.7705262303352356
1761400543347481600,8.444481689453125,-1.2036110162734985,1.160427451133728,-0.9826803207397461
1761400543357552400,8.454552490234375,-1.0069284439086914,0.2631649971008301,-1.097991943359375
1761400543367645700,8.464645751953125,-0.49836811423301697,0.07077909260988235,-0.9327019453048706
1761400543377727200,8.474727294921875,-0.13511313498020172,0.38886868953704834,-0.1108650416135788
1761400543387808000,8.48480810546875,-0.07500918954610825,0.5904309153556824,0.24994181096553802
1761400543397876700,8.494876708984375,-0.37999215722084045,0.4444594085216522,-0.016004402190446854
1761400543407968300,8.50496826171875,-0.9409289956092834,0.36776816844940186,-0.260283887386322
1761400543418050800,8.51505078125,-1.47963285446167,0.39604651927948,-0.6157281398773193
1761400543428115000,8.525114990234375,-1.8631888628005981,0.14382311701774597,-0.9680748581886292
1761400543438213400,8.53521337890625,-2.239816904067993,-0.42067763209342957,-1.2768381834030151
1761400543448294400,8.54529443359375,-2.6263375282287598,-0.9420947432518005,-1.4855449199676514
1761400543458375400,8.55537548828125,-2.8311305046081543,-1.2081241607666016,-1.3728480339050293
1761400543468432100,8.56543212890625,-2.888120174407959,-1.3197886943817139,-0.955501139163971
1761400543478535200,8.57553515625,-2.6086342334747314,-0.8085637092590332,-0.4696401059627533
1761400543488618200,8.5856181640625,-2.1581130027770996,0.2585851848125458,-0.018985452130436897
1761400543498676000,8.595676025390626,-1.7686779499053955,1.4560176134109497,0.3612897992134094
1761400543508780300,8.6057802734375,-1.4351168870925903,2.455618381500244,0.2629651427268982
1761400543518861600,8.615861572265626,-1.1080842018127441,2.1454060077667236,-0.6618595123291016
1761400543528942800,8.62594287109375,-0.651250958442688,0.2846152186393738,-1.0229161977767944
1761400543539000600,8.63600048828125,-0.3266996443271637,-1.7179834842681885,-0.7474772334098816
1761400543549079600,8.64607958984375,-0.17275094985961914,-2.4210615158081055,-0.3820905387401581
1761400543559186000,8.65618603515625,0.14344008266925812,-2.3074817657470703,-0.07682446390390396
1761400543569245400,8.666245361328125,0.5844188332557678,-2.0928795337677,0.12283920496702194
1761400543579347700,8.67634765625,1.0019322633743286,-1.9086041450500488,0.23663532733917236
1761400543589417200,8.686417236328126,1.3354099988937378,-1.8439370393753052,0.32591691613197327
1761400543599503000,8.696503173828125,1.4561841487884521,-1.870649814605713,0.4721548557281494
1761400543609601500,8.7066015625,1.5350403785705566,-1.7788035869598389,0.8457685708999634
1761400543619652000,8.716652099609375,1.7678786516189575,-1.6049368381500244,1.3177735805511475
1761400543629752600,8.726752685546876,2.038088321685791,-1.4544687271118164,1.6161948442459106
1761400543639834000,8.736834228515624,2.1727516651153564,-1.2438634634017944,1.746761441230774
1761400543649915000,8.746914794921874,2.136795997619629,-1.201046347618103,1.8191226720809937
1761400543659983400,8.7569833984375,2.099407911300659,-1.2889622449874878,1.9583659172058105
1761400543670075400,8.767075439453125,2.0455658435821533,-1.4348838329315186,2.133498430252075
1761400543680158500,8.777158447265625,1.9124178886413574,-1.593379020690918,2.248427152633667
1761400543690239000,8.787239013671876,1.726110577583313,-1.6075681447982788,2.272841691970825
1761400543700307500,8.797307373046875,1.5175038576126099,-1.475502610206604,2.21102237701416
1761400543710388500,8.807388427734375,1.3393902778625488,-1.3018523454666138,2.1109156608581543
1761400543720457200,8.817457275390625,1.2478104829788208,-1.1199917793273926,2.0893490314483643
1761400543730549000,8.827549072265626,1.2556544542312622,-0.8559940457344055,2.094944715499878
1761400543740617500,8.837617431640625,1.2930591106414795,-0.5149054527282715,2.022350311279297
1761400543750712800,8.847712890625,1.3570433855056763,-0.3550778925418854,1.8013862371444702
1761400543760794000,8.857794189453125,1.3829402923583984,-0.3698332607746124,1.5807219743728638
1761400543770887700,8.8678876953125,1.3218870162963867,-0.4349500238895416,1.4185129404067993
1761400543780968400,8.877968505859375,1.1923030614852905,-0.4465411603450775,1.2687610387802124
1761400543791040800,8.888040771484375,1.0711125135421753,-0.3892017602920532,1.1490528583526611
1761400543801126100,8.898126220703125,0.9680748581886292,-0.33209550380706787,1.0791064500808716
1761400543811211300,8.908211181640626,0.8375914692878723,-0.28201723098754883,0.9834297299385071
1761400543821293000,8.91829296875,0.6793960332870483,-0.19989681243896484,0.8242517113685608
1761400543831376000,8.9283759765625,0.564800500869751,-0.08709992468357086,0.6565302610397339
1761400543841455000,8.938455078125,0.49084052443504333,0.05753923952579498,0.4539687931537628
1761400543851525600,8.948525634765625,0.42435815930366516,0.17185164988040924,0.2213137447834015
1761400543861591600,8.958591552734376,0.33387747406959534,0.20404364168643951,0.019734878093004227
1761400543871685600,8.968685546875,0.23005704581737518,0.2892283797264099,-0.16054363548755646
1761400543881779500,8.978779541015625,0.10773411393165588,0.4601973593235016,-0.3139927089214325
1761400543891860000,8.98885986328125,-0.06348468363285065,0.6382442712783813,-0.4057723879814148
1761400543901929500,8.998929443359375,-0.21040543913841248,0.9162312150001526,-0.4739701449871063
1761400543912022000,9.00902197265625,-0.3267662525177002,1.344536304473877,-0.5036807060241699
1761400543922101200,9.019101318359375,-0.4218267500400543,1.7751396894454956,-0.5522268414497375
1761400543932182300,9.029182373046876,-0.5105087757110596,2.1180436611175537,-0.657429575920105
1761400543942265000,9.03926513671875,-0.6001400947570801,2.354562282562256,-0.8076977133750916
1761400543952346400,9.049346435546875,-0.5733606219291687,2.2543225288391113,-1.021783709526062
1761400543962414800,9.059414794921874,-0.48842573165893555,1.9596483707427979,-1.2450958490371704
1761400543972491300,9.0694912109375,-0.44794008135795593,1.8639882802963257,-1.332528829574585
1761400543982589400,9.07958935546875,-0.35622701048851013,2.1058197021484375,-1.1825271844863892
1761400543992639200,9.08963916015625,-0.3585086166858673,2.634664297103882,-1.1069351434707642
1761400544002719200,9.09971923828125,-0.6944511532783508,2.8237361907958984,-1.3269498348236084
1761400544012832500,9.10983251953125,-1.000250220298767,2.1819279193878174,-1.811062216758728
1761400544022913800,9.119913818359375,-0.7918432354927063,1.5816212892532349,-2.180429220199585
1761400544032994800,9.129994873046876,-0.5517272353172302,1.3248348236083984,-1.9178470373153687
1761400544043053600,9.140053466796875,-0.9013925790786743,1.036189317703247,-1.4211276769638062
1761400544053155000,9.150155029296876,-1.7328554391860962,0.7422312498092651,-1.3301640748977661
1761400544063237600,9.160237548828125,-2.431952953338623,0.5993407368659973,-1.5670825242996216
1761400544073303000,9.170302978515625,-2.6702871322631836,0.41038551926612854,-1.3444697856903076
1761400544083374600,9.18037451171875,-2.705510139465332,0.09016424417495728,-0.6232890486717224
1761400544093481200,9.190481201171876,-2.415365695953369,0.34570175409317017,-0.46434417366981506
1761400544103562200,9.200562255859374,-1.8928495645523071,0.8421879410743713,-0.7788198590278625
1761400544113630500,9.21063037109375,-1.5694140195846558,1.1192256212234497,-0.766495943069458
1761400544133805300,9.230805419921875,-1.721797227859497,0.6329982876777649,-0.5844188332557678
1761400544153967400,9.25096728515625,-1.5658667087554932,0.534557044506073,-1.1380279064178467
1761400544164040400,9.26104052734375,-1.3695005178451538,0.43032023310661316,-1.3761454820632935
1761400544174128600,9.271128662109374,-1.456250786781311,0.07112883031368256,-1.4042738676071167
1761400544184195300,9.2811953125,-1.5929460525512695,-0.16990314424037933,-1.3383578062057495
1761400544194291000,9.291291015625,-1.581021785736084,-0.2394331842660904,-1.3060991764068604
1761400544204372500,9.30137255859375,-1.6836764812469482,-0.5373215675354004,-1.1578294038772583
1761400544214440400,9.3114404296875,-1.8291816711425781,-0.7359859943389893,-1.0516774654388428
1761400544224522200,9.321522216796875,-1.678164005279541,-0.6718018651008606,-1.0964597463607788
1761400544234587600,9.331587646484374,-1.2327053546905518,-0.8034176826477051,-1.077757477760315
1761400544244694300,9.3416943359375,-0.5879161357879639,-1.209606409072876,-0.9384641647338867
1761400544254783500,9.351783447265625,0.13554613292217255,-1.986677646636963,-0.6583954691886902
1761400544264859000,9.36185888671875,0.7604172825813293,-2.799271583557129,-0.20351071655750275
1761400544274939400,9.371939453125,1.185524821281433,-3.167189598083496,0.25600382685661316
1761400544285010700,9.3820107421875,1.5320760011672974,-3.029761552810669,0.3321954309940338
1761400544295101700,9.392101806640625,1.747044563293457,-2.4321861267089844,0.029827143996953964
1761400544305182500,9.402182373046875,1.7537727355957031,-1.6261205673217773,-0.343769907951355
1761400544315250200,9.412250244140624,1.636745810508728,-0.9131502509117126,-0.45488476753234863
1761400544325344500,9.422344482421876,1.5360729694366455,-0.5043135285377502,0.052243299782276154
1761400544335426300,9.43242626953125,1.5925463438034058,-0.7592681646347046,1.110548973083496
1761400544345505000,9.442505126953124,1.7468280792236328,-1.352297067642212,2.1133971214294434
1761400544355574800,9.45257470703125,1.8377084732055664,-1.7475109100341797,2.8265674114227295
1761400544365667300,9.462667236328125,1.8534131050109863,-2.1144630908966064,3.0482640266418457
1761400544375747800,9.472747802734375,1.8063491582870483,-2.0876002311706543,2.8816585540771484
1761400544385812700,9.482812744140626,1.6718522310256958,-1.456234097480774,2.667339324951172
1761400544395899400,9.4928994140625,1.5104259252548218,-0.6288014650344849,2.5745604038238525
1761400544405993500,9.502993408203125,1.4391305446624756,0.12990045547485352,2.5664167404174805
1761400544416074000,9.513073974609375,1.5439335107803345,0.5296275019645691,2.5814883708953857
1761400544426146800,9.523146728515625,1.748909831047058,0.6720683574676514,2.5404200553894043
1761400544436212200,9.533212158203124,1.9391140937805176,0.24104861915111542,2.340639591217041
1761400544446318300,9.543318359375,2.079206705093384,-0.448323130607605,2.0641849040985107
1761400544456398600,9.553398681640624,2.188905954360962,-1.0039973258972168,1.8025187253952026
1761400544476560400,9.573560302734375,2.30180287361145,-1.497818946838379,1.5405694246292114
1761400544486641400,9.583641357421875,2.138761043548584,-1.5244650840759277,1.4654103517532349
1761400544496701700,9.59370166015625,1.8337781429290771,-1.4895418882369995,1.356893539428711
1761400544506804500,9.603804443359374,1.4991178512573242,-1.5164213180541992,1.157945990562439
1761400544516884500,9.613884521484374,1.2180832624435425,-1.4158650636672974,0.8932988047599792
1761400544526965200,9.62396533203125,1.0302605628967285,-1.1000736951828003,0.6542819738388062
1761400544537021200,9.634021240234375,0.9149155616760254,-0.6006730198860168,0.4172802269458771
1761400544547127600,9.64412744140625,0.773773729801178,-0.1697365939617157,0.1805782914161682
1761400544557208800,9.654208740234376,0.6613265872001648,0.037421323359012604,-0.05072779580950737
1761400544567289600,9.66428955078125,0.6232390999794006,0.22149693965911865,-0.2699930965900421
1761400544577371000,9.674370849609375,0.5505114793777466,0.4491558074951172,-0.4172136187553406
1761400544587451600,9.68445166015625,0.393848180770874,0.814792275428772,-0.5180030465126038
1761400544597532700,9.69453271484375,0.22835834324359894,1.3905178308486938,-0.6673885583877563
1761400544607613700,9.70461376953125,0.05002833157777786,2.0424516201019287,-0.8069982528686523
1761400544617694700,9.71469482421875,-0.29529038071632385,2.5657339096069336,-0.7543386220932007
1761400544627776000,9.72477587890625,-0.6955170035362244,2.932436227798462,-0.5780071020126343
1761400544637831700,9.734831787109375,-1.1028382778167725,2.844003915786743,-0.34521880745887756
1761400544647939000,9.74493896484375,-1.4573166370391846,2.538987636566162,-0.21433575451374054
1761400544658015000,9.755014892578124,-1.662792444229126,2.4212944507598877,-0.2894115447998047
1761400544668096000,9.765095947265625,-1.6901048421859741,2.6097335815429688,-0.5456818342208862
1761400544678178600,9.775178466796875,-1.7324557304382324,3.2370526790618896,-0.8626722693443298
1761400544688253700,9.785253662109374,-1.8206714391708374,3.6716363430023193,-1.0798557996749878
1761400544698344000,9.795343994140625,-1.6791965961456299,3.35434627532959,-1.1148790121078491
1761400544708425000,9.805425048828125,-1.2875466346740723,2.553609848022461,-0.9298041462898254
1761400544718508500,9.815508544921874,-0.9688408970832825,1.775123119354248,-0.8647040724754333
1761400544728587000,9.8255869140625,-0.9748862981796265,0.8739802837371826,-0.9029247760772705
1761400544738668000,9.83566796875,-1.0299108028411865,-0.04130168259143829,-0.9125673770904541
1761400544748748500,9.84574853515625,-1.3244351148605347,-0.47773391008377075,-0.5039138793945312
1761400544758825700,9.85582568359375,-1.9028418064117432,-0.539503276348114,0.1475202888250351
1761400544768885200,9.86588525390625,-2.384606122970581,0.024031585082411766,0.5054460167884827
1761400544778991600,9.87599169921875,-2.070913076400757,0.3362090289592743,0.40170884132385254
1761400544789072600,9.88607275390625,-0.9777007699012756,0.5392034649848938,0.5175367593765259
1761400544799153700,9.896153564453124,-0.4411952495574951,0.9031912088394165,0.8359094262123108
1761400544809235000,9.90623486328125,-0.7474605441093445,0.8553112149238586,1.0119578838348389
1761400544819312000,9.91631201171875,-1.4213608503341675,0.33790773153305054,0.8023185133934021
1761400544829371100,9.92637109375,-2.0194191932678223,-0.34278732538223267,0.2926757335662842
1761400544839478300,9.936478271484376,-2.4055399894714355,-1.0353732109069824,-0.31492534279823303
1761400544849559600,9.9465595703125,-2.7887630462646484,-0.9770346283912659,-0.8746131062507629
1761400544859640800,9.956640869140625,-3.3438541889190674,-0.11737672239542007,-1.3272829055786133
1761400544869721000,9.96672119140625,-3.7834508419036865,0.8023351430892944,-1.6767817735671997
1761400544879761700,9.97676171875,-3.456268072128296,1.0757089853286743,-1.7277426719665527
1761400544889883400,9.98688330078125,-2.4978859424591064,0.7805352210998535,-2.0705134868621826
1761400544899964000,9.9969638671875,-1.819089412689209,0.6056358814239502,-2.666673183441162
1761400544910045200,10.007045166015626,-1.529361367225647,0.31196093559265137,-3.16595721244812
1761400544920126200,10.017126220703124,-1.288995623588562,-0.10145559161901474,-3.3548126220703125
1761400544930207500,10.02720751953125,-0.9807984232902527,-0.8477503657341003,-3.1542162895202637
1761400544940288800,10.037288818359375,-0.5100924372673035,-1.786064624786377,-2.6486868858337402
1761400544950365400,10.047365478515625,-0.025647012516856194,-2.450122594833374,-1.8676854372024536
1761400544960450300,10.0574501953125,0.4342339038848877,-2.5672993659973145,-0.8951807022094727
1761400544970534700,10.06753466796875,0.7868636846542358,-2.4703569412231445,0.26649579405784607
1761400544980612400,10.0776123046875,1.0240319967269897,-2.174950122833252,1.355594515800476
1761400544990669000,10.0876689453125,1.1473374366760254,-1.9232429265975952,2.076741933822632
1761400545000780300,10.0977802734375,1.1799625158309937,-1.9382814168930054,2.2542724609375
1761400545020911400,10.117911376953124,1.6427744626998901,-1.8080145120620728,2.0273630619049072
1761400545030995500,10.127995361328125,2.027996063232422,-1.5219171047210693,1.9487733840942383
1761400545041073400,10.138073486328125,2.424542188644409,-1.0358062982559204,2.0106592178344727
1761400545051154700,10.14815478515625,2.674250841140747,-0.5158213973045349,2.265580654144287
1761400545061235700,10.158235595703125,2.7110393047332764,0.081021249294281,2.829881429672241
1761400545071305200,10.16830517578125,2.6825110912323,0.07910604774951935,3.3357770442962646
1761400545081404200,10.178404052734376,2.581371784210205,-0.19185298681259155,3.4130513668060303
1761400545091488000,10.188488037109375,2.400676965713501,-0.7259104251861572,2.941296100616455
1761400545101585000,10.1985849609375,2.1256377696990967,-1.15884530544281,2.366086959838867
1761400545111667000,10.2086669921875,1.785181999206543,-1.260101079940796,2.0712127685546875
1761400545121747200,10.218747314453125,1.722763180732727,-1.1717021465301514,1.9449262619018555
1761400545131810300,10.228810302734376,2.0294947624206543,-0.9224931001663208,1.9849456548690796
1761400545141905000,10.23890478515625,2.3997111320495605,-0.6560472846031189,2.0329089164733887
1761400545151990300,10.248990234375,2.3968799114227295,-0.5657997727394104,1.8519141674041748
1761400545172152000,10.269152099609375,1.820604920387268,-1.0252643823623657,1.1162112951278687
1761400545182233000,10.279233154296875,1.7942917346954346,-1.1877398490905762,0.9263567924499512
1761400545192314600,10.289314697265626,1.8054331541061401,-1.1862576007843018,0.779336154460907
1761400545202391800,10.299391845703125,1.6790133714675903,-1.067182183265686,0.5993240475654602
1761400545212477200,10.309477294921875,1.468791127204895,-0.9332848191261292,0.3179396986961365
1761400545222557400,10.319557373046875,1.167488694190979,-0.6920696496963501,-0.029210949316620827
1761400545232638500,10.329638427734375,0.8573263883590698,-0.37872645258903503,-0.2396496832370758
1761400545242719700,10.3397197265625,0.505062997341156,-0.03683843836188316,-0.22705933451652527
1761400545252800500,10.349800537109376,0.13281488418579102,0.3759785592556,-0.17673124372959137
1761400545272958500,10.36995849609375,-0.5121408700942993,1.4105024337768555,-0.33972299098968506
1761400545283043600,10.380043701171875,-0.6797291040420532,1.591447114944458,-0.5153717398643494
1761400545293124900,10.390124755859375,-0.7585353851318359,1.3149423599243164,-0.679512619972229
1761400545303206000,10.400205810546876,-0.8403393626213074,1.0097095966339111,-0.7694770097732544
1761400545313287000,10.410286865234376,-0.9418615698814392,1.1385442018508911,-0.8173903226852417
1761400545323368000,10.420367919921874,-1.0586388111114502,1.5595049858093262,-0.8955970406532288
1761400545333444900,10.43044482421875,-1.0851850509643555,2.082803964614868,-1.020268201828003
1761400545343530200,10.4405302734375,-1.0683480501174927,2.3332786560058594,-1.1791797876358032
1761400545353566700,10.450566650390625,-1.243713617324829,2.1581294536590576,-1.32651686668396
1761400545363692500,10.460692626953126,-1.7119214534759521,1.8284988403320312,-1.4355332851409912
1761400545373773300,10.470773193359374,-2.3453361988067627,1.7392338514328003,-1.4887924194335938
1761400545383866400,10.480866455078125,-2.97044038772583,1.5168876647949219,-1.451221227645874
1761400545393935600,10.490935546875,-3.3927001953125,1.0871002674102783,-1.4228763580322266
1761400545404012800,10.5010126953125,-3.4325530529022217,0.15160049498081207,-1.5523604154586792
1761400545414072000,10.511072021484376,-3.300337553024292,-0.4083537459373474,-2.4401302337646484
1761400545424179000,10.521178955078126,-2.131866455078125,-0.5636847019195557,-2.8385915756225586
1761400545434259700,10.531259765625,-0.5176866054534912,-0.33126282691955566,-1.989891767501831
1761400545444317000,10.54131689453125,-0.1078173816204071,0.14672090113162994,-1.1461883783340454
1761400545454422300,10.55142236328125,-0.6733673214912415,0.6805285215377808,-0.8196385502815247
1761400545464503600,10.561503662109375,-1.2366024255752563,0.9251077771186829,-0.3522633910179138
1761400545474559500,10.5715595703125,-1.638777494430542,0.8097461462020874,-0.15799559652805328
1761400545484664800,10.581664794921876,-1.8958139419555664,0.6637080907821655,-0.43739816546440125
1761400545494745900,10.591745849609374,-1.9667428731918335,0.6104155778884888,-0.7258771061897278
1761400545504827400,10.601827392578125,-1.8152422904968262,0.1848749965429306,-1.010109305381775
1761400545514882300,10.61188232421875,-1.633298397064209,-0.3619726300239563,-1.3963966369628906
1761400545524963600,10.621963623046875,-1.5195854902267456,-0.5829699635505676,-1.7574032545089722
1761400545535070000,10.632070068359376,-1.4439102411270142,-0.6029213070869446,-2.0145230293273926
1761400545545151000,10.64215087890625,-1.3392903804779053,-0.5580556988716125,-2.182011365890503
1761400545555232800,10.652232666015625,-1.2386674880981445,-0.6216070055961609,-2.316275119781494
1761400545565287000,10.662286865234375,-1.1197586059570312,-0.8262002468109131,-2.485995054244995
1761400545575395000,10.67239501953125,-0.8309465646743774,-1.0657832622528076,-2.7062928676605225
1761400545585475600,10.6824755859375,-0.3406722843647003,-1.292542815208435,-2.8528971672058105
1761400545595527700,10.692527587890625,0.09242916852235794,-1.6860579252243042,-2.572328805923462
1761400545605638000,10.702637939453124,0.3380243182182312,-2.124788522720337,-1.933718204498291
1761400545615718400,10.712718505859375,0.3339274525642395,-2.370666742324829,-1.2497090101242065
1761400545625775400,10.722775390625,0.17270098626613617,-2.186774253845215,-0.5433336496353149
1761400545635880400,10.73288037109375,0.13619562983512878,-2.072728395462036,0.11409590393304825
1761400545645961500,10.74296142578125,0.3327283561229706,-2.0708131790161133,0.5803053379058838
1761400545656043800,10.753043701171874,0.7148188948631287,-1.8539626598358154,1.0615365505218506
1761400545666123500,10.76312353515625,1.1362792253494263,-1.486710786819458,1.7591853141784668
1761400545676204500,10.77320458984375,1.2496423721313477,-0.9524701237678528,2.4860615730285645
1761400545686285800,10.783285888671875,1.1739004850387573,-0.1290511041879654,3.173851251602173
1761400545696364300,10.7933642578125,1.2672955989837646,0.3265664279460907,3.8236865997314453
1761400545716529400,10.813529296875,1.7891457080841064,-1.4104357957839966,3.90042781829834
1761400545726610400,10.8236103515625,2.1120481491088867,-1.4490230083465576,3.590298652648926
1761400545736665900,10.833665771484375,2.3347108364105225,-1.0979419946670532,3.2918941974639893
1761400545746772200,10.843772216796875,2.385688543319702,-0.6383941173553467,3.0489137172698975
1761400545756853000,10.85385302734375,2.423959255218506,-0.45385220646858215,2.8050005435943604
1761400545766897000,10.86389697265625,2.5384714603424072,-0.4223596751689911,2.498868465423584
1761400545777014800,10.874014892578124,2.6951513290405273,-0.6676217317581177,2.1550652980804443
1761400545787096000,10.884095947265624,2.824219226837158,-1.1893385648727417,1.900177240371704
1761400545797177000,10.894177001953125,2.916948080062866,-1.787913203239441,1.6720020771026611
1761400545807258000,10.904258056640625,2.969574451446533,-2.301936149597168,1.4591318368911743
1761400545817339400,10.91433935546875,2.9340016841888428,-2.5805890560150146,1.2232459783554077
1761400545827420200,10.924420166015626,2.724412202835083,-2.6334986686706543,0.9297875165939331
1761400545837476400,10.934476318359375,2.3494997024536133,-2.4584994316101074,0.5876830220222473
1761400545847582700,10.944582763671875,1.9397135972976685,-2.1017894744873047,0.3636213541030884
1761400545857664300,10.954664306640625,1.5607706308364868,-1.6513012647628784,0.3429372012615204
1761400545867744500,10.96474462890625,1.2343207597732544,-1.2586522102355957,0.3502316176891327
1761400545877825800,10.97482568359375,0.8910171985626221,-0.8859710693359375,0.2858309745788574
1761400545887886800,10.984886962890625,0.6217901706695557,-0.5893983244895935,0.015588055364787579
1761400545897993500,10.994993408203126,0.49452105164527893,-0.39179977774620056,-0.32585030794143677
1761400545908064500,11.005064453125,0.4842788875102997,-0.08303637057542801,-0.6461381912231445
1761400545918146000,11.01514599609375,0.4106353223323822,0.3314793109893799,-0.9235755801200867
1761400545928232000,11.02523193359375,0.23233862221240997,0.7827168703079224,-1.079606056213379
1761400545938312700,11.035312744140626,-0.0115245021879673,1.2616665363311768,-1.118043303489685
1761400545948393200,11.045393310546874,-0.30416691303253174,1.9221436977386475,-1.2049932479858398
1761400545958449000,11.055448974609375,-0.6680713891983032,2.6347808837890625,-1.3090968132019043
1761400545968531700,11.06553173828125,-1.0686976909637451,3.026014566421509,-1.3382577896118164
1761400545978636000,11.075635986328125,-1.4235424995422363,2.698948383331299,-1.223379135131836
1761400545988717600,11.085717529296875,-1.5144894123077393,2.058206081390381,-1.1101826429367065
1761400545998798000,11.095798095703126,-1.3508981466293335,1.9873604774475098,-1.2633318901062012
1761400546008879000,11.105879150390624,-1.1540156602859497,2.101672887802124,-1.3858712911605835
1761400546018960100,11.115960205078125,-1.0042637586593628,2.2248783111572266,-1.3915170431137085
1761400546029016300,11.126016357421875,-0.8960133790969849,2.4176974296569824,-1.1724015474319458
1761400546039118300,11.136118408203124,-1.0006831884384155,2.6030054092407227,-0.9269896745681763
1761400546049203500,11.146203369140625,-1.3746966123580933,2.4294049739837646,-0.9021586775779724
1761400546059284500,11.156284423828126,-1.7767051458358765,1.7903780937194824,-1.1034377813339233
1761400546069340400,11.16634033203125,-2.1314001083374023,1.1201915740966797,-1.0285284519195557
1761400546079421700,11.176421630859375,-2.656081199645996,0.5520769357681274,-0.6953504681587219
1761400546089502200,11.186502197265625,-3.3721492290496826,0.42740580439567566,-0.2490924596786499
1761400546099605200,11.196605224609375,-3.878194808959961,0.6276357173919678,-0.1088499203324318
1761400546109689600,11.206689697265626,-3.7571041584014893,0.6027048230171204,-0.6829932928085327
1761400546119770600,11.2167705078125,-2.685009241104126,0.21936523914337158,-1.096126675605774
1761400546129851600,11.2268515625,-1.289245367050171,-0.2704094648361206,-0.41544830799102783
1761400546139907800,11.236907958984375,-0.8300972580909729,-0.32771554589271545,-0.29868778586387634
1761400546149988900,11.24698876953125,-1.5344241857528687,0.07104555517435074,-0.7406157851219177
1761400546160090600,11.257090576171874,-2.2354869842529297,0.5628520250320435,-1.0199017524719238
1761400546170175700,11.26717578125,-2.72279691696167,0.3229691684246063,-1.2106555700302124
1761400546180257000,11.277257080078124,-2.962646484375,0.20066289603710175,-1.4892255067825317
1761400546190338000,11.287338134765625,-3.151784896850586,0.7705262303352356,-1.8460520505905151
1761400546200418800,11.297418701171875,-3.1837270259857178,1.5674655437469482,-2.300020933151245
1761400546210500000,11.3075,-2.9106194972991943,1.6141630411148071,-2.487210750579834
1761400546220581000,11.3175810546875,-2.3468849658966064,1.2603175640106201,-2.1448731422424316
1761400546230658300,11.327658203125,-1.708640694618225,1.1818110942840576,-1.553659439086914
1761400546240744200,11.337744140625,-1.2168009281158447,1.3429542779922485,-1.1026883125305176
1761400546250824400,11.347824462890625,-0.9957203269004822,1.1547983884811401,-0.8992442488670349
1761400546260905500,11.357905517578125,-0.6386439204216003,0.24189797043800354,-1.1230894327163696
1761400546270986800,11.36798681640625,-0.12109053879976273,-0.9918898940086365,-1.4059226512908936
1761400546281042400,11.37804248046875,0.3576093018054962,-1.8662033081054688,-1.0040805339813232
1761400546291145500,11.3881455078125,0.8391736149787903,-2.5276131629943848,-0.2688772976398468
1761400546301230000,11.39822998046875,1.28556489944458,-2.6217076778411865,0.4844454228878021
1761400546311299000,11.408299072265624,1.6790300607681274,-2.2460122108459473,1.349565863609314
1761400546321367000,11.418366943359375,1.9647444486618042,-1.4006766080856323,1.8782939910888672
1761400546331447000,11.428447021484375,2.167039394378662,-0.4986512064933777,2.0250816345214844
1761400546341554700,11.4385546875,2.511958360671997,-0.14387308061122894,2.3281493186950684
1761400546351635000,11.448635009765624,2.759552001953125,-0.30578234791755676,2.733771800994873
1761400546361711600,11.458711669921875,2.8502824306488037,-0.7457285523414612,2.994938373565674
1761400546371771600,11.468771728515625,2.902059555053711,-1.2702432870864868,3.3883368968963623
1761400546381877800,11.478877685546875,2.8977127075195312,-1.7406162023544312,3.8436713218688965
1761400546391927800,11.488927734375,2.8592422008514404,-2.1722354888916016,3.842388868331909
1761400546401993700,11.49899365234375,2.7898621559143066,-2.209207057952881,3.59582781791687
1761400546412121300,11.509121337890624,2.6824111938476562,-1.792609691619873,3.5019164085388184
1761400546422177300,11.51917724609375,2.531193733215332,-1.2644643783569336,3.2488603591918945
1761400546432242700,11.52924267578125,2.2372689247131348,-0.34798333048820496,2.6785807609558105
1761400546442364200,11.5393642578125,1.7460620403289795,0.5164209604263306,1.9695740938186646
1761400546452445400,11.549445556640626,1.2099894285202026,0.8465679287910461,1.1461549997329712
1761400546462489600,11.559489501953125,0.7723748087882996,0.8635382652282715,0.1565467119216919
1761400546472581400,11.569581298828124,0.415631502866745,0.7565369606018066,-0.6359127163887024
1761400546482663200,11.5796630859375,-0.08245348185300827,0.613513171672821,-0.8971125483512878
1761400546492770000,11.58977001953125,-0.7874798774719238,0.6928357481956482,-1.0372718572616577
1761400546502851000,11.59985107421875,-1.1800624132156372,0.9963531494140625,-1.2700600624084473
1761400546512905700,11.60990576171875,-1.2479103803634644,1.143557071685791,-1.493772029876709
1761400546523000800,11.620000732421875,-1.3336280584335327,0.86720210313797,-1.6157784461975098
1761400546533075000,11.630074951171874,-1.448140263557434,0.8031511902809143,-1.6597281694412231
1761400546543154400,11.640154541015624,-1.6025053262710571,0.8741801381111145,-1.6048035621643066
1761400546553254400,11.65025439453125,-1.812644362449646,1.111514925956726,-1.5231162309646606
1761400546563336000,11.6603359375,-2.0777411460876465,1.431619644165039,-1.4733043909072876
1761400546573420300,11.670420166015624,-2.330747365951538,1.6657402515411377,-1.4402796030044556
1761400546583487700,11.68048779296875,-2.4475743770599365,1.7024121284484863,-1.4120179414749146
1761400546593554700,11.6905546875,-2.3237359523773193,1.447524070739746,-1.3883694410324097
1761400546603661300,11.700661376953125,-2.040053367614746,1.0138731002807617,-1.439030647277832
1761400546613717200,11.71071728515625,-1.7393004894256592,0.4832463562488556,-1.5444997549057007
1761400546623797000,11.720796875,-1.4941051006317139,-0.05225995182991028,-1.5403029918670654
1761400546633904400,11.730904296875,-1.3081974983215332,-0.5629686117172241,-1.267179012298584
1761400546643986200,11.740986083984374,-1.074310064315796,-0.924424946308136,-0.7359194159507751
1761400546654045700,11.751045654296876,-0.5571897029876709,-1.1170439720153809,0.07224463671445847
1761400546664148200,11.761148193359375,0.5506113767623901,-0.7888122200965881,1.234870433807373
1761400546674228500,11.771228515625,1.7786036729812622,0.32050439715385437,2.494438409805298
1761400546684305700,11.7813056640625,1.8167245388031006,0.8929324150085449,1.9808820486068726
1761400546694390300,11.791390380859376,0.9757856130599976,0.7674452662467957,0.3759785592556
1761400546704470000,11.801469970703126,0.6326152086257935,0.8601242303848267,0.046447739005088806
1761400546714562600,11.8115625,0.9861942529678345,2.0634520053863525,0.5506113767623901
1761400546724635000,11.821634765625,1.7760556936264038,2.2492263317108154,0.4273058772087097
1761400546734715100,11.831715087890625,2.429288387298584,1.5161548852920532,0.046580970287323
1761400546744797000,11.841796875,1.813260555267334,0.6308498978614807,-0.04867936298251152
1761400546754876700,11.851876708984374,0.5966761112213135,-0.17130206525325775,0.12653636932373047
1761400546764958500,11.86195849609375,-0.5493124127388,-0.651117742061615,-0.19401799142360687
1761400546775038700,11.872038818359375,-1.6102161407470703,-0.7675451636314392,-0.6284018158912659
1761400546785119700,11.88211962890625,-2.063202381134033,-0.7263600826263428,-1.2447295188903809
1761400546795201000,11.892200927734375,-1.6720353364944458,-0.2616661489009857,-2.0064291954040527
1761400546805283300,11.902283447265624,-1.4214107990264893,0.10048966109752655,-2.2375686168670654
1761400546815363800,11.91236376953125,-1.4539358615875244,0.20692476630210876,-1.974686861038208
1761400546825444400,11.9224443359375,-1.3853883743286133,0.21225401759147644,-1.4806487560272217
1761400546835525400,11.932525390625,-1.1876899003982544,0.09519372135400772,-0.9440765380859375
1761400546845607200,11.942607177734375,-0.9974856376647949,0.029777182266116142,-0.4602639675140381
1761400546855688400,11.9526884765625,-1.0283286571502686,-0.03770444169640541,-0.1160777136683464
1761400546865769700,11.962769775390624,-1.239466905593872,-0.1562802493572235,-0.017669793218374252
1761400546875850200,11.972850341796875,-1.5064122676849365,-0.16510681807994843,-0.1086500734090805
1761400546885931000,11.982930908203125,-1.7408826351165771,-0.12681949138641357,-0.19746534526348114
1761400546895989200,11.9929892578125,-1.9446598291397095,0.08843223750591278,-0.1410752236843109
1761400546906067000,12.00306689453125,-1.9436938762664795,0.3952304720878601,-0.011074846610426903
1761400546916193300,12.013193359375,-1.4428277015686035,0.4270061254501343,0.29668930172920227
1761400546926254800,12.0232548828125,-0.6695369482040405,0.2291743904352188,0.7462281584739685
1761400546936335600,12.033335693359374,0.12147358059883118,-0.08403560519218445,1.230173945426941
1761400546946417700,12.043417724609375,0.8002867698669434,-0.31860584020614624,1.6559476852416992
1761400546956497700,12.05349755859375,1.447940468788147,-0.24952545762062073,1.9154821634292603
1761400546966579500,12.063579345703126,2.082803964614868,0.2575526237487793,2.0719122886657715
1761400546976660200,12.07366015625,2.6125481128692627,0.7359527349472046,2.153916120529175
1761400546986741800,12.08374169921875,2.8788938522338867,0.983629584312439,2.2370190620422363
1761400546996823000,12.093822998046875,2.8548290729522705,0.6949341297149658,2.4311203956604004
1761400547006904000,12.103904052734375,2.683210611343384,-0.1604437232017517,2.607501983642578
1761400547016984000,12.113984130859375,2.387104034423828,-0.5441330075263977,2.500433921813965
1761400547027065300,12.1240654296875,2.053609609603882,-0.5211173295974731,2.0577731132507324
1761400547037110800,12.13411083984375,1.707474946975708,-0.5942113399505615,1.4289216995239258
1761400547047228200,12.144228271484375,1.2901114225387573,-0.37609514594078064,0.8962798714637756
1761400547057309000,12.154308837890625,0.5670821070671082,0.5045633316040039,0.601855456829071
1761400547067390000,12.164389892578125,-0.27320730686187744,1.0195354223251343,0.42872145771980286
1761400547077470500,12.174470458984375,-0.7041937112808228,0.7165342569351196,0.12728579342365265
1761400547087526700,12.184526611328126,-0.85877525806427,0.30125248432159424,-0.22392840683460236
1761400547097607200,12.194607177734374,-0.9575495719909668,0.17718088626861572,-0.4742865562438965
1761400547107688400,12.2046884765625,-0.9650105237960815,0.18365925550460815,-0.6216403245925903
1761400547117789400,12.21478955078125,-0.9866272807121277,0.1872398555278778,-0.7655633687973022
1761400547127876600,12.224876708984375,-1.115128755569458,0.20714126527309418,-0.9545685052871704
1761400547137958000,12.2349580078125,-1.311678171157837,0.2762882709503174,-1.151517629623413
1761400547148035800,12.245035888671875,-1.4388141632080078,0.34298717975616455,-1.3286818265914917
1761400547158115000,12.255114990234375,-1.5132070779800415,0.3394898474216461,-1.445125937461853
1761400547168198100,12.2651982421875,-1.6196755170822144,0.22116385400295258,-1.4579328298568726
1761400547178256000,12.275255859375,-1.7206647396087646,0.01194084994494915,-1.3798093795776367
1761400547188358100,12.285358154296874,-1.7314565181732178,-0.25620368123054504,-1.2500587701797485
1761400547198443500,12.295443603515626,-1.6572966575622559,-0.5626355409622192,-1.0952273607254028
1761400547208538400,12.305538330078125,-1.5562574863433838,-0.8169073462486267,-0.9170805811882019
1761400547218605000,12.31560498046875,-1.4408292770385742,-0.8442031145095825,-0.7596845030784607
1761400547228686000,12.32568603515625,-1.3699501752853394,-0.6766814589500427,-0.6659896373748779
1761400547238768000,12.33576806640625,-1.360873818397522,-0.38825249671936035,-0.5967094302177429
1761400547248844300,12.34584423828125,-1.34578537940979,-0.11001569777727127,-0.43260183930397034
1761400547258929400,12.355929443359376,-1.2679450511932373,0.05785566568374634,-0.20547588169574738
1761400547269010200,12.36601025390625,-1.0256640911102295,0.13429708778858185,0.09810815006494522
1761400547279091500,12.376091552734374,-0.6362624168395996,0.19388476014137268,0.5789063572883606
1761400547289149700,12.386149658203125,-0.12290582060813904,0.33431047201156616,1.0970759391784668
1761400547299254000,12.39625390625,0.4162643551826477,0.6029879450798035,1.3523303270339966
1761400547309312300,12.406312255859374,0.7983049154281616,0.8421546816825867,1.253506064414978
1761400547319414800,12.416414794921875,0.9432771801948547,0.7838993072509766,1.1361960172653198
1761400547329496800,12.426496826171874,0.9870935678482056,0.3141259551048279,1.5661665201187134
1761400547339578000,12.436578125,1.0800390243530273,-0.13119946420192719,1.7333550453186035
1761400547349633500,12.446633544921875,1.130233883857727,-0.4481232762336731,1.6052699089050293
1761400547359740000,12.456739990234375,1.383673071861267,-1.2988547086715698,1.059588074684143
1761400547369821000,12.466821044921875,1.8500655889511108,-0.35834208130836487,1.2040939331054688
1761400547379898000,12.476898193359375,1.9483237266540527,3.004181146621704,0.7180164456367493
1761400547389983000,12.48698291015625,2.2151691913604736,3.2700109481811523,0.44579172134399414
1761400547400063700,12.497063720703125,2.384106397628784,1.4189460277557373,0.24146497249603271
1761400547410145300,12.507145263671875,1.9243919849395752,0.00481297867372632,-0.15839529037475586
1761400547420226000,12.51722607421875,0.7257105708122253,-0.3350265920162201,-0.5160878300666809
1761400547430307300,12.527307373046876,-0.3850216269493103,-0.04175134003162384,-0.9158815145492554
1761400547440384500,12.537384521484375,-1.0392036437988281,0.08658365160226822,-1.2411322593688965
1761400547450469600,12.5474697265625,-1.3418217897415161,0.4715886116027832,-1.6122312545776367
1761400547460550100,12.557550048828125,-1.5410524606704712,0.40650516748428345,-1.8317795991897583
1761400547470631700,12.567631591796875,-1.7791199684143066,0.053125955164432526,-1.8288651704788208
1761400547480712400,12.57771240234375,-1.725494384765625,0.06821439415216446,-1.5497957468032837
1761400547490782000,12.587781982421875,-1.4693406820297241,0.10933288186788559,-1.1147791147232056
1761400547500874800,12.597874755859374,-1.1950008869171143,0.0708790197968483,-0.912900447845459
1761400547510951700,12.60795166015625,-1.0289615392684937,-0.02742898091673851,-1.0077277421951294
1761400547521036800,12.618036865234375,-0.9513543248176575,-0.5069448351860046,-1.0784902572631836
1761400547531117800,12.628117919921875,-0.9943879842758179,-1.15220046043396,-1.0700966119766235
1761400547541173200,12.63817333984375,-1.0091266632080078,-1.3608405590057373,-1.0412853956222534
1761400547551259100,12.648259033203125,-1.021417260169983,-1.0640345811843872,-1.0042637586593628
1761400547561361000,12.65836083984375,-0.9156816601753235,-0.8178399801254272,-0.8881694078445435
1761400547571438000,12.66843798828125,-0.45448505878448486,-0.913516640663147,-0.5478968024253845
1761400547581523700,12.678523681640625,0.10395367443561554,-1.123239278793335,-0.07057924568653107
1761400547591580700,12.68858056640625,0.5161544680595398,-1.3033013343811035,0.22912442684173584
1761400547601685000,12.69868505859375,0.7957568764686584,-1.1462550163269043,0.3135930299758911
1761400547611766000,12.70876611328125,1.0018322467803955,-0.7245447635650635,0.3347601294517517
1761400547621848000,12.71884814453125,1.1434404850006104,-0.16685546934604645,0.46177947521209717
1761400547631888400,12.728888427734375,1.267994999885559,0.366685688495636,0.8010528087615967
1761400547642005800,12.739005859375,1.3320626020431519,0.6541154384613037,1.342088222503662
1761400547652090600,12.749090576171875,1.3862709999084473,0.4951205849647522,1.9852620363235474
1761400547662171400,12.75917138671875,1.523615837097168,-0.13507981598377228,2.395530939102173
1761400547672228400,12.769228271484375,1.521767258644104,-1.0985748767852783,2.2542226314544678
1761400547682308900,12.779308837890625,1.3753293752670288,-1.9392139911651611,1.9612303972244263
1761400547692415200,12.789415283203125,1.0860344171524048,-2.233754873275757,1.7868473529815674
1761400547702491600,12.79949169921875,0.7015790343284607,-1.871032953262329,1.6739839315414429
1761400547712577300,12.809577392578126,0.31540828943252563,-0.8948309421539307,1.480099081993103
1761400547722657500,12.819657470703126,-0.0026479708030819893,0.2656797468662262,1.1592117547988892
1761400547732738600,12.829738525390624,-0.21735011041164398,1.158578872680664,0.7862308621406555
1761400547742820400,12.8398203125,-0.2869800925254822,1.5130739212036133,0.5303602814674377
1761400547752900900,12.84990087890625,-0.30569908022880554,1.2966231107711792,0.2774707078933716
1761400547762978000,12.85997802734375,-0.4052228033542633,0.9157982468605042,0.03640543669462204
