time,seconds_elapsed,z,y,x
1761316257330753500,0.23675341796875,0.02924431301653385,-0.12140589207410812,-0.06757497787475586
1761316257349676000,0.255676025390625,0.010308047756552696,-0.042606595903635025,-0.021150587126612663
1761316257368598500,0.2745986328125,0.006642963737249374,-0.0462716780602932,-0.021150587126612663
1761316257387521000,0.29352099609375,0.0029778804164379835,-0.05665608495473862,-0.033978380262851715
1761316257406443500,0.312443603515625,0.004810422193259001,-0.0029015245381742716,-0.011987877078354359
1761316257425366000,0.331365966796875,0.010918894782662392,0.0032069480512291193,0.002061609411612153
1761316257444288300,0.350288330078125,0.013362283818423748,-0.004734066314995289,0.012446013279259205
1761316257463210800,0.369210693359375,0.008475505746901035,-0.0004581354442052543,0.009391776286065578
1761316257482133200,0.38813330078125,0.011529741808772087,0.0068720318377017975,0.02160872146487236
1761316257501055700,0.4070556640625,0.017027366906404495,0.008093725889921188,0.017332790419459343
1761316257519978000,0.42597802734375,0.02008160389959812,0.016645587980747223,0.019776180386543274
1761316257538900500,0.444900390625,0.013973130844533443,0.0331384651362896,0.019776180386543274
1761316257557823000,0.463822998046875,0.014583977870643139,0.030695075169205666,0.010613471269607544
1761316257576745500,0.482745361328125,0.03596363216638565,0.025808297097682953,0.006337540224194527
1761316257595668000,0.50166796875,0.045737188309431076,0.025197450071573257,0.0051158457063138485
1761316257614590200,0.520590087890625,0.027411770075559616,0.013591351918876171,-0.00038177953683771193
1761316257633512700,0.5395126953125,0.04023956134915352,0.0068720318377017975,-0.0009926267666742206
1761316257652435200,0.558435302734375,0.1214822456240654,-0.007788302376866341,-0.0358109213411808
1761316257671357700,0.577357666015625,0.10071343928575516,0.05207473039627075,-0.07857023179531097
1761316257690280000,0.596280029296875,0.13064496219158173,0.07589777559041977,-0.059023115783929825
1761316257709202400,0.615202392578125,0.17706935107707977,-0.03161134570837021,-0.022372281178832054
1761316257728125000,0.634125,0.15141376852989197,-0.09147437661886215,-0.04741701856255531
1761316257747047400,0.65304736328125,-0.03855973482131958,0.12781979143619537,-0.06818582862615585
1761316257765970000,0.671969970703125,-0.14667969942092896,0.32756683230400085,-0.07246175408363342
1761316257784892200,0.69089208984375,-0.2725142240524292,0.4136963188648224,-0.1946312040090561
1761316257803814700,0.709814697265625,-0.1937149316072464,0.11560284346342087,-0.09994988143444061
1761316257822737200,0.728737060546875,0.15568970143795013,-0.3486410677433014,0.24640052020549774
1761316257841659600,0.74765966796875,0.04085041210055351,-0.23319093883037567,0.11140327155590057
1761316257860582100,0.76658203125,-0.03306210786104202,0.02641914412379265,-0.12499462068080902
1761316257879504400,0.78550439453125,-0.09170344471931458,0.00259610079228878,-0.0009926267666742206
1761316257898427000,0.804427001953125,-0.18699561059474945,-0.019394399598240852,0.2916032075881958
1761316257917349400,0.823349365234375,-0.14362546801567078,0.30130040645599365,0.19264595210552216
1761316257936272000,0.84227197265625,-0.10941801220178604,0.254265159368515,0.017332790419459343
1761316257955194000,0.861194091796875,0.0029778804164379835,-0.01572931744158268,-0.044362783432006836
1761316257974116600,0.88011669921875,0.012751436792314053,-0.052990999072790146,-0.013209572061896324
1761316257993039000,0.8990390625,0.035352785140275955,0.21150586009025574,0.12850698828697205
1761316258011961600,0.917961669921875,0.04940227046608925,0.5402180552482605,0.2262425571680069
1761316258030883800,0.9368837890625,0.02435753494501114,0.5658736228942871,0.24884390830993652
1761316258049806300,0.955806396484375,0.0555107444524765,0.47417017817497253,0.19203510880470276
1761316258068728800,0.974728759765625,0.14225105941295624,0.43568679690361023,0.17065545916557312
1761316258087651300,0.9936513671875,0.1727934181690216,0.40453359484672546,0.15477342903614044
1761316258106573800,1.01257373046875,0.1874537467956543,0.3361186981201172,0.15538427233695984
1761316258125496000,1.03149609375,0.1874537467956543,0.41980478167533875,0.2011978179216385
1761316258144418600,1.05041845703125,0.18195612728595734,0.4637857675552368,0.3184804916381836
1761316258163341000,1.069341064453125,0.1984490007162094,0.37704548239707947,0.3594072461128235
1761316258182263600,1.088263671875,0.22105035185813904,0.3831539452075958,0.2763320207595825
1761316258201185800,1.107185791015625,0.16607409715652466,0.2951919436454773,0.11140327155590057
1761316258220108300,1.1261083984375,0.11842801421880722,0.16630317270755768,0.053983625024557114
1761316258239030800,1.14503076171875,0.04634803533554077,0.0856713280081749,0.05276193097233772
1761316258257953300,1.163953369140625,0.017027366906404495,0.04169032722711563,0.05215108394622803
1761316258276875800,1.182875732421875,-0.0067956759594380856,-0.03588727489113808,0.008170082233846188
1761316258295798000,1.201798095703125,-0.01901262067258358,-0.09941539168357849,-0.04741701856255531
1761316258314720500,1.220720458984375,-0.012293301522731781,-0.08170082420110703,-0.07307260483503342
1761316258333643000,1.23964306640625,-0.00007635590736754239,-0.04871506989002228,-0.053525492548942566
1761316258352565500,1.2585654296875,0.0011453386396169662,-0.02733541466295719,-0.027869906276464462
1761316258371487700,1.27748779296875,-0.012293301522731781,-0.01511846948415041,-0.03336753323674202
1761316258390410200,1.29641015625,-0.0067956759594380856,-0.009009997360408306,-0.0028251686599105597
1761316258409332700,1.315332763671875,-0.0025197449140250683,0.008704573847353458,0.009391776286065578
1761316258428255200,1.334255126953125,0.006032116711139679,0.11377029865980148,-0.0009926267666742206
1761316258447177700,1.353177734375,0.020692450925707817,-0.0010689827613532543,-0.05291464552283287
1761316258466100000,1.372099853515625,0.0029778804164379835,-0.019394399598240852,-0.09750649333000183
1761316258485022500,1.3910224609375,-0.009849912486970425,-0.07803573459386826,-0.10850174725055695
1761316258503945000,1.409945068359375,-0.01901262067258358,-0.19531841576099396,-0.1286597102880478
1761316258522867500,1.428867431640625,-0.015347537584602833,-0.16111096739768982,-0.10972344130277634
1761316258541789700,1.447789794921875,-0.01046075951308012,-0.06826218217611313,-0.07185091078281403
1761316258560712200,1.466712158203125,0.00908635277301073,-0.0975828468799591,-0.1280488520860672
1761316258579634700,1.485634765625,0.03901786729693413,-0.03894151374697685,-0.09689565002918243
1761316258598557200,1.50455712890625,0.05184566229581833,-0.007788302376866341,-0.06146650388836861
1761316258617479400,1.5234794921875,0.035352785140275955,-0.03955236077308655,-0.08284615725278854
1761316258636402000,1.54240185546875,0.0231358390301466,-0.04993676394224167,-0.08162446320056915
1761316258655324400,1.561324462890625,0.013362283818423748,-0.005955760832875967,-0.07368344813585281
1761316258674247000,1.580246826171875,0.0011453386396169662,0.02641914412379265,-0.0889546349644661
1761316258693169200,1.599169189453125,0.012140588834881783,0.014813045971095562,-0.10972344130277634
1761316258712091600,1.618091552734375,0.0231358390301466,0.001985253533348441,-0.12377292662858963
1761316258731014100,1.63701416015625,0.02680092304944992,-0.033443886786699295,-0.15859122574329376
1761316258749936600,1.6559365234375,0.04879142343997955,-0.11346487700939178,-0.22578442096710205
1761316258768859000,1.67485888671875,0.07566870748996735,-0.23685602843761444,-0.3003077805042267
1761316258787781400,1.693781494140625,0.10437852889299393,-0.26373329758644104,-0.28992336988449097
1761316258806703900,1.712703857421875,0.12575818598270416,-0.23502348363399506,-0.27587389945983887
1761316258825626400,1.73162646484375,0.09704835712909698,-0.20814619958400726,-0.28931254148483276
1761316258844548600,1.750548583984375,0.09032903611660004,-0.23258009552955627,-0.3094705045223236
1761316258863471000,1.76947119140625,0.0958266630768776,-0.455539345741272,-0.364446759223938
1761316258882393600,1.7883935546875,0.1996707022190094,-0.6351284384727478,-0.4817294180393219
1761316258901316000,1.807316162109375,0.27419406175613403,-0.6180247068405151,-0.4927246570587158
1761316258920238300,1.82623828125,0.29984965920448303,-0.4524851143360138,-0.3882697820663452
1761316258939160800,1.845160888671875,0.013973130844533443,-0.4756973087787628,-0.26854372024536133
1761316258958083300,1.864083251953125,-0.5101338028907776,-0.7133168578147888,0.14072394371032715
1761316258977005800,1.883005859375,-0.9273424744606018,-0.22097399830818176,0.08819106966257095
1761316258995928000,1.901927978515625,-0.7025507092475891,0.1388150453567505,-0.1152210608124733
1761316259014850600,1.9208505859375,-0.2755684554576874,0.23960483074188232,-0.21784339845180511
1761316259033773000,1.93977294921875,-0.13079766929149628,0.12293300777673721,-0.2740413546562195
1761316259052695600,1.958695556640625,-0.2328091561794281,0.04963133856654167,-0.4017084240913391
1761316259071618000,1.9776181640625,-0.2890070974826813,-0.1122431829571724,-0.5116609334945679
1761316259090540300,1.996540283203125,-0.29511559009552,-0.24662958085536957,-0.5806866884231567
1761316259109462800,2.015462890625,-0.2706816792488098,-0.23624517023563385,-0.595346987247467
1761316259128385300,2.03438525390625,-0.141182079911232,-0.10552386194467545,-0.5409815907478333
1761316259147307800,2.053307861328125,0.22349373996257782,0.05329642444849014,-0.36750099062919617
1761316259166230000,2.07222998046875,0.05062396824359894,0.12232216447591782,-0.18424680829048157
1761316259185152500,2.091152587890625,-0.22181391716003418,0.2298312783241272,-0.2050156146287918
1761316259204075000,2.110074951171875,-0.29267218708992004,0.058183200657367706,-0.3656684458255768
1761316259222997500,2.12899755859375,-0.35497862100601196,-0.23746687173843384,-0.6148941516876221
1761316259241919700,2.147919677734375,-0.42400434613227844,-0.3455868363380432,-0.7688276171684265
1761316259260842200,2.16684228515625,-0.4814240038394928,-0.17943638563156128,-0.7779903411865234
1761316259279764700,2.1857646484375,-0.5614449977874756,0.15775130689144135,-0.6283327341079712
1761316259298687200,2.204687255859375,-0.6164212226867676,0.28725093603134155,-0.5757998824119568
1761316259317609500,2.223609375,-0.7654679417610168,0.3843756318092346,-0.4970006048679352
1761316259336532000,2.242531982421875,-0.8809180855751038,0.2958027720451355,-0.4719558656215668
1761316259355454500,2.261454345703125,-0.8766421675682068,0.09239064902067184,-0.5061632990837097
1761316259374376700,2.280376708984375,-0.7605811953544617,0.05024218559265137,-0.5018873810768127
1761316259393299200,2.29929931640625,-0.04222481697797775,0.5218162536621094,-0.5733565092086792
1761316259412221700,2.3182216796875,-0.4026246964931488,0.10216420143842697,0.03504735976457596
1761316259431144200,2.337144287109375,-0.5681642889976501,0.6269583702087402,0.3728458881378174
1761316259450066700,2.356066650390625,-0.194325789809227,0.37948885560035706,0.2409028857946396
1761316259468989000,2.374989013671875,0.24609509110450745,-0.12812520563602448,-0.05230379477143288
1761316259487911400,2.393911376953125,0.6126034259796143,-0.44393324851989746,-0.19096612930297852
1761316259506834000,2.412833984375,0.695067822933197,-0.4524851143360138,0.047264307737350464
1761316259525756400,2.43175634765625,0.6034407615661621,-0.4915793240070343,0.7057576775550842
1761316259544678700,2.4506787109375,0.4470638334751129,-0.08842013776302338,1.3838744163513184
1761316259563601200,2.46960107421875,0.51425701379776,0.038636088371276855,1.6984608173370361
1761316259582523600,2.488523681640625,0.7714237570762634,-0.0975828468799591,1.6697509288787842
1761316259601446100,2.507446044921875,1.0127084255218506,-0.2576248347759247,1.4706147909164429
1761316259620368400,2.526368408203125,1.1496145725250244,-0.5691569447517395,1.121133804321289
1761316259639291000,2.545290771484375,1.1984822750091553,-0.946049690246582,0.5964159965515137
1761316259658213400,2.56421337890625,1.1422843933105469,-1.1855018138885498,0.3062635362148285
1761316259677135600,2.583135498046875,1.230857253074646,-0.9930849075317383,0.5249468684196472
1761316259696058000,2.60205810546875,1.1850436925888062,-0.982700526714325,0.8731297850608826
1761316259714980600,2.620980712890625,0.9882745146751404,-0.8904625773429871,0.9843040108680725
1761316259733903000,2.639903076171875,0.954677939414978,-0.8128849864006042,0.847474217414856
1761316259752825600,2.65882568359375,0.9962155222892761,-0.6784985661506653,0.7515711784362793
1761316259771747800,2.677747802734375,1.0952491760253906,-0.4756973087787628,0.7741725444793701
1761316259790670300,2.69667041015625,1.1618314981460571,-0.668114185333252,0.7289698719978333
1761316259809592800,2.7155927734375,1.222305417060852,-0.8855758309364319,0.6373427510261536
1761316259828515300,2.734515380859375,1.2100883722305298,-1.5214678049087524,0.294657438993454
1761316259847437600,2.7534375,1.1813786029815674,-1.6234792470932007,0.0552053228020668
1761316259866360000,2.772360107421875,1.0738694667816162,-1.661962628364563,-0.12132953852415085
1761316259885282600,2.791282470703125,0.8984799385070801,-1.7035002708435059,-0.3119138777256012
1761316259904204800,2.810204833984375,0.6419241428375244,-1.6705145835876465,-0.4963897466659546
1761316259923127300,2.829127197265625,0.41285640001296997,-1.4762650728225708,-0.5739673376083374
1761316259942049800,2.8480498046875,0.2644205093383789,-1.0834903717041016,-0.5415924787521362
1761316259960972300,2.86697216796875,0.17768019437789917,-0.6552863717079163,-0.5067741274833679
1761316259979894500,2.88589453125,0.11659546941518784,-0.423164427280426,-0.6038988828659058
1761316259998817000,2.904817138671875,0.09093988686800003,-0.3205420970916748,-0.7260683178901672
1761316260017739500,2.923739501953125,0.11659546941518784,-0.2790044844150543,-0.7889856100082397
1761316260036662000,2.942662109375,0.1752368062734604,-0.2313583940267563,-0.7731035351753235
1761316260055584300,2.961584228515625,0.25647950172424316,-0.20875705778598785,-0.6967476606369019
1761316260074506800,2.9805068359375,0.31145575642585754,-0.44698747992515564,-0.5281538367271423
1761316260093429200,2.99942919921875,0.5105919241905212,-0.894738495349884,-0.30214032530784607
1761316260112351700,3.018351806640625,0.750654935836792,-1.1531269550323486,-0.2056264579296112
1761316260131274000,3.03727392578125,0.7286643981933594,-0.9356653094291687,-0.13598987460136414
1761316260150196500,3.056196533203125,0.6144359707832336,-0.9142856597900391,-0.20196136832237244
1761316260169119000,3.075118896484375,0.6315397024154663,-1.0798252820968628,-0.4652365446090698
1761316260188041500,3.09404150390625,0.6132143139839172,-1.0676082372665405,-0.9154309630393982
1761316260206963700,3.112963623046875,0.5258631110191345,-0.40422818064689636,-1.3442457914352417
1761316260225886200,3.13188623046875,0.32489439845085144,0.7631772756576538,-1.3326396942138672
1761316260244808700,3.15080859375,-0.08987089991569519,1.7380895614624023,-1.0284377336502075
1761316260263731200,3.169731201171875,-0.2890070974826813,1.7264834642410278,-0.3766636848449707
1761316260282653400,3.1886533203125,0.4220190942287445,0.7326349020004272,0.2916032075881958
1761316260301576000,3.207575927734375,-0.012904148548841476,0.10460758954286575,0.2677801549434662
1761316260320498400,3.22649853515625,-0.9206231832504272,0.2426590770483017,0.26900187134742737
1761316260339420700,3.245420654296875,-1.4416759014129639,2.350769281387329,-0.022372281178832054
1761316260358343200,3.26434326171875,-1.442286729812622,4.507747173309326,-0.36811181902885437
1761316260377265700,3.283265625,-1.0953254699707031,3.4674744606018066,-0.1805817186832428
1761316260396188200,3.302188232421875,-1.0550096035003662,1.7319810390472412,0.07963921129703522
1761316260415110400,3.3211103515625,-0.7966212034225464,0.9439880847930908,-0.31802234053611755
1761316260434033000,3.340032958984375,-0.6549046039581299,-0.14034216105937958,-0.6533774733543396
1761316260452955400,3.358955322265625,-0.6579588651657104,-0.3058817684650421,-0.6613185405731201
1761316260471878000,3.3778779296875,-0.7654679417610168,0.3336753249168396,-0.5073850154876709
1761316260490800000,3.396800048828125,-0.8680903315544128,0.7747833728790283,-0.42614230513572693
1761316260509722600,3.41572265625,-0.9029086232185364,0.6721610426902771,-0.39743250608444214
1761316260528645000,3.43464501953125,-0.8332720398902893,0.2970244884490967,-0.5110501050949097
1761316260547567600,3.453567626953125,-0.6897228956222534,0.24510246515274048,-0.5477009415626526
1761316260566489900,3.47248974609375,-0.5718293786048889,0.18035265803337097,-0.5434249639511108
1761316260585412400,3.491412353515625,-0.5675534605979919,0.150421142578125,-0.5153260231018066
1761316260604334800,3.5103349609375,-0.6787276864051819,0.3489464819431305,-0.4835619628429413
1761316260623257300,3.52925732421875,-0.7178218960762024,0.4540122151374817,-0.5104392170906067
1761316260642179600,3.5481796875,-0.7404232621192932,0.5664844512939453,-0.6069530844688416
1761316260661102000,3.56710205078125,-0.7178218960762024,0.6031352877616882,-0.7309551239013672
1761316260680024600,3.586024658203125,-0.72026526927948,0.5713712573051453,-0.7889856100082397
1761316260698946800,3.60494677734375,-0.7318713665008545,0.4527905285358429,-0.7657734155654907
1761316260717869300,3.623869384765625,-0.6756734251976013,0.29091599583625793,-0.6374954581260681
1761316260736791800,3.642791748046875,-0.5388436317443848,0.14186927676200867,-0.5104392170906067
1761316260755714300,3.66171435546875,-0.3794125020503998,0.3593308925628662,-0.40781688690185547
1761316260774636800,3.68063671875,-0.24869118630886078,0.32817769050598145,-0.2318928837776184
1761316260793559000,3.69955908203125,-0.17538951337337494,0.2793098986148834,-0.09689565002918243
1761316260812481500,3.7184814453125,-0.16928105056285858,0.5242596864700317,0.04665346071124077
1761316260831404000,3.737404052734375,-0.2047101855278015,0.8364789485931396,0.21646900475025177
1761316260850326300,3.756326171875,-0.14545799791812897,0.9299386143684387,0.2751103341579437
1761316260869248800,3.775248779296875,-0.1295759677886963,1.0392802953720093,0.4369848668575287
1761316260888171300,3.794171142578125,-0.12407834827899933,1.1174687147140503,0.611687183380127
1761316260907093800,3.81309375,0.08299887180328369,0.9409338235855103,0.6043570041656494
1761316260926016000,3.83201611328125,0.4324035048484802,0.35627666115760803,0.6782695055007935
1761316260944938500,3.8509384765625,0.9412392973899841,-0.2710634768009186,0.9274951815605164
1761316260963861000,3.869861083984375,1.4318259954452515,-0.6650599241256714,1.1884033679962158
1761316260982783200,3.888783203125,1.7164808511734009,-0.82082599401474,1.5451381206512451
1761316261001705700,3.907705810546875,1.7048747539520264,-0.8330429196357727,1.937912940979004
1761316261020628200,3.926628173828125,1.447708010673523,-0.3584146201610565,2.294036865234375
1761316261039550700,3.94555078125,1.1117420196533203,0.388651579618454,2.446748733520508
1761316261058473000,3.964472900390625,0.9082534909248352,0.8651887774467468,2.2977020740509033
1761316261077395500,3.9833955078125,0.9595646858215332,0.5579326152801514,2.008160352706909
1761316261096318000,4.00231787109375,1.0676846504211426,-0.15866757929325104,1.7332791090011597
1761316261115240200,4.021240234375,1.1575555801391602,0.09116895496845245,1.669140100479126
1761316261134162700,4.04016259765625,1.2693406343460083,-0.7505785822868347,1.2592616081237793
1761316261153085200,4.059085205078125,1.2699514627456665,-1.1964970827102661,0.7399650812149048
1761316261172007700,4.078007568359375,1.2534586191177368,-1.2252068519592285,0.475468248128891
1761316261190930200,4.09693017578125,1.2278029918670654,-1.3919682502746582,0.32581067085266113
1761316261209852400,4.115852294921875,1.151447057723999,-1.4848170280456543,0.26045000553131104
1761316261228775000,4.13477490234375,0.9607864022254944,-1.7322101593017578,0.17187714576721191
1761316261247697400,4.153697509765625,0.7048413753509521,-1.9722731113433838,0.004504998680204153
1761316261266619600,4.17261962890625,0.41529977321624756,-2.027860164642334,-0.2477749139070511
1761316261285542100,4.191542236328125,0.15752223134040833,-1.8403301239013672,-0.5110501050949097
1761316261304464600,4.210464599609375,0.015805672854185104,-1.520246148109436,-0.6497124433517456
1761316261323387100,4.22938720703125,-0.058717694133520126,-0.978424608707428,-0.6368846297264099
1761316261342309400,4.248309326171875,-0.15767495334148407,-0.4402681589126587,-0.5599178671836853
1761316261361232000,4.26723193359375,-0.27801185846328735,-0.14767232537269592,-0.4713450074195862
1761316261380154400,4.286154296875,-0.3671955466270447,-0.01817270554602146,-0.4841728210449219
1761316261399076600,4.30507666015625,-0.3653630316257477,0.06612421572208405,-0.5825192332267761
1761316261417999000,4.3239990234375,-0.2853420376777649,0.16630317270755768,-0.6875849366188049
1761316261436921600,4.342921630859375,-0.18455222249031067,0.1382041871547699,-0.7511130571365356
1761316261455844000,4.361843994140625,-0.10758547484874725,-0.09636115282773972,-0.752945601940155
1761316261474766300,4.380766357421875,-0.014125842601060867,-0.4402681589126587,-0.697969377040863
1761316261493688800,4.399688720703125,0.19295138120651245,-0.760962963104248,-0.5654155015945435
1761316261512611300,4.418611328125,0.49470990896224976,-1.1341906785964966,-0.4811185598373413
1761316261531533800,4.437533935546875,0.6388698816299438,-1.0895987749099731,-0.39865419268608093
1761316261550456000,4.4564560546875,0.616879403591156,-0.5392253994941711,-0.20806984603405
1761316261569378600,4.475378662109375,0.5496861934661865,-0.10430216789245605,-0.08223531395196915
1761316261588301000,4.494301025390625,0.3468848764896393,0.008093725889921188,-0.179360032081604
1761316261607223300,4.513223388671875,0.17584764957427979,-0.007788302376866341,-0.19585290551185608
1761316261626145800,4.532145751953125,0.18439951539039612,-0.07375980913639069,-0.0064902519807219505
1761316261645068300,4.551068359375,0.06589514762163162,0.014202198944985867,0.25800660252571106
1761316261663990800,4.56999072265625,0.11293038725852966,0.3703261613845825,0.3844519853591919
1761316261682913000,4.5889130859375,-0.2193705290555954,0.9500965476036072,0.1346154659986496
1761316261701835500,4.60783544921875,-0.7214869856834412,1.537731647491455,-0.05230379477143288
1761316261720758000,4.626758056640625,-1.2181057929992676,2.381922483444214,-0.13110309839248657
1761316261739680300,4.64568017578125,-1.2510915994644165,3.344083309173584,-0.18791188299655914
1761316261758602800,4.664602783203125,-0.877863883972168,3.1589202880859375,-0.07918107509613037
1761316261777525200,4.683525146484375,-0.6127561330795288,1.8492636680603027,-0.14698512852191925
1761316261796447700,4.70244775390625,-0.5492280125617981,0.7222505211830139,-0.5470900535583496
1761316261815370000,4.721369873046875,-0.60909104347229,0.24998924136161804,-0.762108325958252
1761316261834292500,4.74029248046875,-0.6445202231407166,0.3184041380882263,-0.6924717426300049
1761316261853215000,4.759215087890625,-0.6903337836265564,0.6098546385765076,-0.5641937851905823
1761316261872137500,4.778137451171875,-0.7025507092475891,0.8175426721572876,-0.5226562023162842
1761316261891059700,4.797059814453125,-0.6799493432044983,0.6978166103363037,-0.5715239644050598
1761316261909982200,4.815982177734375,-0.6378008723258972,0.41797223687171936,-0.6643727421760559
1761316261928904700,4.83490478515625,-0.6109235882759094,0.1907370537519455,-0.7266791462898254
1761316261947827000,4.853826904296875,-0.6109235882759094,0.19684553146362305,-0.7101863026618958
1761316261966749400,4.87274951171875,-0.5846571922302246,0.26403874158859253,-0.6649835705757141
1761316261985672000,4.891671875,-0.5675534605979919,0.30740886926651,-0.6100073456764221
1761316262004594400,4.910594482421875,-0.5932090282440186,0.4100312292575836,-0.5367056727409363
1761316262023516700,4.9295166015625,-0.6402443051338196,0.5108210444450378,-0.4713450074195862
1761316262042439200,4.948439208984375,-0.7428666353225708,0.4497362971305847,-0.5367056727409363
1761316262061361700,4.967361572265625,-0.8393805027008057,0.36605021357536316,-0.6894174814224243
1761316262080284000,4.986283935546875,-0.9041302800178528,0.3348970115184784,-0.8506811857223511
1761316262099206400,5.005206298828125,-0.8925241827964783,0.4112529158592224,-0.9154309630393982
1761316262118129000,5.02412890625,-0.8296069502830505,0.4143071472644806,-0.9129875898361206
1761316262137051100,5.043051025390625,-0.7306496500968933,0.2664821147918701,-0.8390750885009766
1761316262155973600,5.0619736328125,-0.5956524610519409,0.18035265803337097,-0.7260683178901672
1761316262174896000,5.080896240234375,-0.4307236671447754,0.2011214643716812,-0.5550310611724854
1761316262193818600,5.099818603515625,-0.2957264184951782,0.2964136302471161,-0.33268269896507263
1761316262212741000,5.1187412109375,-0.1937149316072464,0.41980478167533875,-0.08590039610862732
1761316262231663400,5.137663330078125,-0.13507360219955444,0.5884749889373779,0.14316733181476593
1761316262250585900,5.1565859375,-0.09475768357515335,0.7753942608833313,0.36123979091644287
1761316262269508400,5.17550830078125,0.07994463294744492,0.8419765830039978,0.5255576968193054
1761316262288430600,5.1944306640625,0.49226653575897217,0.7552362680435181,0.5451048016548157
1761316262307353000,5.21335302734375,0.9998806118965149,0.3703261613845825,0.6959841251373291
1761316262326275600,5.232275634765625,1.5161229372024536,-0.19837264716625214,0.9116131663322449
1761316262345197800,5.25119775390625,2.0750482082366943,-0.9381086826324463,1.3130161762237549
1761316262364120300,5.270120361328125,2.4287288188934326,-1.0999832153320312,1.763210654258728
1761316262383042800,5.289042724609375,1.7085397243499756,-0.45737189054489136,2.4174280166625977
1761316262401965300,5.30796533203125,0.9827768802642822,0.3202366828918457,2.7039153575897217
1761316262420887600,5.326887451171875,0.8416711688041687,0.5622085332870483,2.5383758544921875
1761316262439810000,5.34581005859375,0.912529468536377,0.4106420576572418,2.225011110305786
1761316262458732500,5.364732666015625,0.9223030209541321,0.022754060104489326,1.8536159992218018
1761316262477654800,5.38365478515625,1.1575555801391602,-0.1495048701763153,1.647149682044983
1761316262496577300,5.402577392578125,1.2754490375518799,-0.7200362086296082,1.319124698638916
1761316262515499800,5.421499755859375,1.235133171081543,-1.3553173542022705,0.7979955673217773
1761316262534422000,5.440422119140625,1.1850436925888062,-1.353484869003296,0.5695387125015259
1761316262553344500,5.459344482421875,1.1233481168746948,-1.0584455728530884,0.46935975551605225
1761316262572267000,5.47826708984375,0.9748358726501465,-1.1134217977523804,0.2622825503349304
1761316262591189500,5.497189453125,0.7579851150512695,-1.28018319606781,0.07963921129703522
1761316262610111700,5.51611181640625,0.5173112750053406,-1.3424896001815796,-0.04130854457616806
1761316262629034200,5.5350341796875,0.3328354060649872,-1.3363810777664185,-0.1799708753824234
1761316262647956700,5.553956787109375,0.18378867208957672,-1.35226309299469,-0.4267531633377075
1761316262666879200,5.572879150390625,-0.02023431472480297,-1.2288719415664673,-0.623445987701416
1761316262685801500,5.591801513671875,-0.23036576807498932,-1.0767710208892822,-0.7474479675292969
1761316262704724000,5.610723876953125,-0.44721654057502747,-0.7689039707183838,-0.7645516991615295
1761316262723646500,5.629646484375,-0.5461738109588623,-0.38040512800216675,-0.7547781467437744
1761316262742568700,5.648568603515625,-0.5681642889976501,-0.04749337583780289,-0.7602757811546326
1761316262761491200,5.6674912109375,-0.5577799081802368,0.16935740411281586,-0.7425612211227417
1761316262780413700,5.68641357421875,-0.4954734742641449,0.29030516743659973,-0.7407286763191223
1761316262799336000,5.7053359375,-0.3641413152217865,0.1907370537519455,-0.7205706834793091
1761316262818258400,5.724258544921875,-0.17722205817699432,-0.1378987729549408,-0.5880168676376343
1761316262837181000,5.743180908203125,0.06406260281801224,-0.4237752854824066,-0.3742203116416931
1761316262856103400,5.762103515625,0.33711132407188416,-0.6277982592582703,-0.19707459211349487
1761316262875025700,5.781025634765625,0.5484644770622253,-0.6931589245796204,-0.08590039610862732
1761316262893948200,5.7999482421875,0.6229878664016724,-0.4695888161659241,0.008170082233846188
1761316262912870700,5.81887060546875,0.5838935971260071,-0.1238492801785469,0.02160872146487236
1761316262931793200,5.837793212890625,0.4476746916770935,0.08261708915233612,-0.2184542566537857
1761316262950715400,5.85671533203125,0.18012358248233795,0.16080553829669952,-0.6350520849227905
1761316262969638000,5.875637939453125,-0.13812783360481262,0.5774797201156616,-1.058980107307434
1761316262988560400,5.894560302734375,-0.5315134525299072,1.2604069709777832,-1.08646821975708
1761316263007482600,5.913482666015625,-0.8974109888076782,0.9085589647293091,-0.3015294671058655
1761316263026405000,5.932405029296875,-0.2865637242794037,0.4637857675552368,0.9146674275398254
1761316263045327600,5.95132763671875,-0.008017370477318764,0.944598913192749,0.783335268497467
1761316263064249900,5.970249755859375,-0.31893861293792725,1.251244306564331,0.3270323574542999
1761316263083172400,5.98917236328125,-0.7404232621192932,1.2158150672912598,-0.29297763109207153
1761316263102094800,6.0080947265625,-0.7850151062011719,0.9048938751220703,-0.9649096131324768
1761316263121017000,6.02701708984375,-0.11613733321428299,0.7692857384681702,-1.1390010118484497
1761316263139939600,6.045939697265625,0.29679539799690247,0.8755732178688049,-0.7828771471977234
1761316263158862000,6.064862060546875,-0.09109259396791458,0.9073372483253479,-0.22150848805904388
1761316263177784600,6.08378466796875,-0.4582118093967438,0.8627454042434692,0.02832804247736931
1761316263196706800,6.102706787109375,-0.5229616165161133,0.7094227075576782,-0.4829511046409607
1761316263215629300,6.12162939453125,-0.4325562119483948,0.33978378772735596,-0.7480587959289551
1761316263234551800,6.1405517578125,-0.4569900929927826,0.5273138880729675,-0.6307761669158936
1761316263253474000,6.15947412109375,-0.4692070484161377,0.5945834517478943,-0.3113030195236206
1761316263272396500,6.178396484375,-0.5107446908950806,0.5512133240699768,-0.22700610756874084
1761316263291319000,6.197319091796875,-0.49913856387138367,0.37887802720069885,-0.41209283471107483
1761316263310241500,6.216241455078125,-0.40751147270202637,0.40331190824508667,-0.7071320414543152
1761316263329163800,6.235163818359375,-0.33115556836128235,0.5787014365196228,-0.7462263107299805
1761316263348086300,6.254086181640625,-0.35681116580963135,0.7521820664405823,-0.5611395835876465
1761316263367008800,6.2730087890625,-0.4942517876625061,0.8163210153579712,-0.4065952003002167
1761316263385931000,6.291930908203125,-0.6323032975196838,0.7698966264724731,-0.4157579243183136
1761316263404853500,6.310853515625,-0.7514184713363647,0.5872532725334167,-0.48967042565345764
1761316263423776000,6.32977587890625,-0.8161683082580566,0.4821111857891083,-0.5202127695083618
1761316263442698200,6.3486982421875,-0.8406021595001221,0.4943281412124634,-0.5464792251586914
1761316263461620700,6.367620849609375,-0.8198333978652954,0.5536566972732544,-0.6216134428977966
1761316263480543200,6.386543212890625,-0.7459208369255066,0.4521796703338623,-0.6478798985481262
1761316263499465500,6.405465576171875,-0.5956524610519409,0.4637857675552368,-0.6289436221122742
1761316263518388000,6.424387939453125,-0.4453839957714081,0.4265241026878357,-0.5055524706840515
1761316263537310500,6.443310546875,-0.3097759187221527,0.31229567527770996,-0.3253525197505951
1761316263556233000,6.46223291015625,-0.17477867007255554,0.39414918422698975,-0.1408766508102417
1761316263575155200,6.4811552734375,-0.09964445978403091,0.6190173625946045,0.09246700257062912
1761316263594077700,6.50007763671875,-0.04100312292575836,0.8627454042434692,0.3673482835292816
1761316263613000200,6.519000244140625,0.12270393967628479,0.8224294781684875,0.630012571811676
1761316263631922400,6.53792236328125,0.5631248354911804,0.46073153614997864,0.6501705646514893
1761316263650845000,6.556844970703125,1.1502254009246826,-0.429883748292923,0.736299991607666
1761316263669767400,6.575767333984375,1.666391372680664,-1.186112642288208,0.8670213222503662
1761316263688689700,6.594689697265625,1.7525207996368408,-1.3650909662246704,1.2647593021392822
1761316263707612200,6.613612060546875,1.5289506912231445,-0.8855758309364319,1.7241164445877075
1761316263726534700,6.63253466796875,1.0438616275787354,-0.6021426916122437,1.947075605392456
1761316263745457200,6.65145703125,0.7433247566223145,-0.6394043564796448,1.9397454261779785
1761316263764379400,6.67037939453125,0.7677586674690247,-0.4109475016593933,1.8609461784362793
1761316263783302000,6.689302001953125,0.9424609541893005,-0.34131091833114624,1.909203052520752
1761316263802224400,6.708224365234375,1.1270132064819336,-0.5880932211875916,1.980061411857605
1761316263821146600,6.727146728515625,1.2271921634674072,-1.0401201248168945,1.4638954401016235
1761316263840069000,6.746069091796875,1.1826002597808838,-1.5788874626159668,0.9342145323753357
1761316263858991600,6.76499169921875,1.018206000328064,-1.5825525522232056,0.6465054750442505
1761316263877913900,6.783913818359375,0.9687274098396301,-1.4243431091308594,0.5163949728012085
1761316263896836400,6.80283642578125,1.051191806793213,-1.5953803062438965,0.46630552411079407
1761316263915758800,6.8217587890625,1.0970816612243652,-1.6308094263076782,0.4742465317249298
1761316263934681000,6.84068115234375,1.028590440750122,-1.9111883640289307,0.28671643137931824
1761316263953603600,6.859603515625,0.8777111768722534,-1.7664175033569336,0.18042901158332825
1761316263972526000,6.878526123046875,0.5991647839546204,-1.3773078918457031,0.12667444348335266
1761316263991448300,6.8974482421875,0.31389912962913513,-1.4322841167449951,-0.1152210608124733
1761316264010370800,6.916370849609375,0.06100837141275406,-1.358371615409851,-0.34184539318084717
1761316264029293300,6.935293212890625,-0.10636378079652786,-1.0046910047531128,-0.42614230513572693
1761316264048215800,6.9542158203125,-0.22853323817253113,-0.5331169366836548,-0.417590469121933
1761316264067138000,6.973137939453125,-0.2816769480705261,-0.22402822971343994,-0.4554629921913147
1761316264086060500,6.992060546875,-0.25052374601364136,-0.07437065243721008,-0.47501009702682495
1761316264104983000,7.010983154296875,-0.1662268042564392,-0.004123218823224306,-0.4298073947429657
1761316264123905300,7.0299052734375,-0.061771929264068604,-0.026724567636847496,-0.34123456478118896
1761316264142827800,7.048827880859375,0.08483141660690308,-0.14461809396743774,-0.25327253341674805
1761316264161750300,7.067750244140625,0.23021306097507477,-0.4286620616912842,-0.26243525743484497
1761316264180672500,7.086672607421875,0.3670428395271301,-0.6241331696510315,-0.3241308331489563
1761316264199595000,7.105594970703125,0.5002075433731079,-0.8006680607795715,-0.34245625138282776
1761316264218517500,7.124517578125,0.5411342978477478,-0.6833853721618652,-0.22395187616348267
1761316264237439700,7.143439697265625,0.5197546482086182,-0.31382277607917786,-0.15920206904411316
1761316264256362200,7.1623623046875,0.3975852131843567,-0.09269607067108154,-0.35650572180747986
1761316264275284700,7.18128466796875,0.28457847237586975,0.2292204350233078,-0.6161158084869385
1761316264294207000,7.20020703125,0.19722731411457062,0.8584694862365723,-0.6680378317832947
1761316264313129500,7.21912939453125,-0.11613733321428299,1.424724817276001,-0.3351260721683502
1761316264332052000,7.238052001953125,-0.4130091071128845,0.9861365556716919,0.23051849007606506
1761316264350974200,7.25697412109375,-0.2957264184951782,0.6000810861587524,0.4864634871482849
1761316264369896700,7.275896728515625,-0.8357154130935669,0.5071559548377991,0.29954421520233154
1761316264388819200,7.294819091796875,-1.3573789596557617,1.3947933912277222,0.08696937561035156
1761316264407741400,7.313741455078125,-1.4062467813491821,2.7972986698150635,-0.43835926055908203
1761316264426664000,7.332663818359375,-1.0238564014434814,3.925609827041626,-1.0198858976364136
1761316264445586400,7.35158642578125,-0.36963894963264465,2.9267983436584473,-1.0931875705718994
1761316264464508700,7.3705087890625,-0.06543701142072678,0.9806389212608337,-0.2996969223022461
1761316264483431200,7.38943115234375,-0.1656159609556198,0.6110763549804688,0.16821207106113434
1761316264502353700,7.408353759765625,-0.5968741178512573,0.28969430923461914,0.3722350597381592
1761316264521276000,7.42727587890625,-0.901076078414917,0.5144860744476318,0.030160583555698395
1761316264540198400,7.446198486328125,-0.845488965511322,0.7387434244155884,-0.47684264183044434
1761316264559121000,7.465120849609375,-0.6310815811157227,0.6422295570373535,-0.7474479675292969
1761316264578043100,7.484043212890625,-0.4569900929927826,0.21883602440357208,-0.8366316556930542
1761316264596965600,7.502965576171875,-0.46370941400527954,-0.13484452664852142,-0.804256796836853
1761316264615888100,7.52188818359375,-0.5528931021690369,0.17913095653057098,-0.7150730490684509
1761316264634810400,7.540810302734375,-0.6072585582733154,0.5303681492805481,-0.7205706834793091
1761316264653732900,7.55973291015625,-0.6011500358581543,0.41980478167533875,-0.7077429294586182
1761316264672655400,7.5786552734375,-0.5644991993904114,0.3471139669418335,-0.6564317345619202
1761316264691577600,7.59757763671875,-0.5345677137374878,0.45767730474472046,-0.5385382175445557
1761316264710500000,7.6165,-0.5706077218055725,0.5175403356552124,-0.4432460367679596
1761316264729422600,7.635422607421875,-0.6732300519943237,0.5420506000518799,-0.5293754935264587
1761316264748344800,7.6543447265625,-0.7721872925758362,0.4088095426559448,-0.7547781467437744
1761316264767267300,7.673267333984375,-0.8021187782287598,0.24998924136161804,-0.919096052646637
1761316264786189800,7.69218994140625,-0.7593594789505005,0.22616620361804962,-0.9673529863357544
1761316264805112300,7.7111123046875,-0.7288171648979187,0.2163926362991333,-0.9368106126785278
1761316264824034600,7.73003466796875,-0.6408551335334778,0.1119377613067627,-0.8726716637611389
1761316264842957000,7.74895703125,-0.482034832239151,0.08628217875957489,-0.8195279240608215
1761316264861879600,7.767879638671875,-0.3378748893737793,0.0325276181101799,-0.710797131061554
1761316264880801800,7.7868017578125,-0.2071535736322403,0.10521844029426575,-0.5086066722869873
1761316264899724300,7.805724365234375,-0.12530004978179932,0.32634514570236206,-0.22822780907154083
1761316264918646800,7.824646728515625,-0.1008661538362503,0.6422295570373535,0.10285140573978424
1761316264937569000,7.843569091796875,-0.03184041380882263,0.8774057030677795,0.43881741166114807
1761316264956491500,7.862491455078125,0.16607409715652466,0.9226084351539612,0.6678851246833801
1761316264975413800,7.881413818359375,0.5496861934661865,0.6684959530830383,0.755847156047821
1761316264994336300,7.900336181640625,0.9039775729179382,0.012369656935334206,0.9360470771789551
1761316265013258800,7.9192587890625,1.2797249555587769,-0.5422796607017517,1.1517524719238281
1761316265032181000,7.938180908203125,1.6309621334075928,-0.876413106918335,1.4138059616088867
1761316265051103500,7.957103515625,1.6963227987289429,-0.99736088514328,1.7497719526290894
1761316265070026000,7.97602587890625,1.3389772176742554,-0.71453857421875,1.8297929763793945
1761316265088948200,7.9949482421875,0.9565104246139526,-0.5862606763839722,1.7137320041656494
1761316265107870700,8.01387060546875,0.8911498188972473,-0.3217637836933136,1.7424417734146118
1761316265126793200,8.032793212890626,0.8838196396827698,-0.23685602843761444,1.8640004396438599
1761316265145715500,8.051715576171874,0.9516236782073975,-0.2527380585670471,1.9446322917938232
1761316265164638000,8.070637939453125,1.0866972208023071,-0.44820916652679443,1.600114345550537
1761316265183560400,8.089560546875,1.1331216096878052,-0.9112313985824585,1.212226390838623
1761316265202482700,8.108482666015625,1.0401965379714966,-1.2862915992736816,0.9555941820144653
1761316265221405200,8.1274052734375,1.0206494331359863,-1.3650909662246704,0.6526139378547668
1761316265240327700,8.14632763671875,1.0873081684112549,-1.4732109308242798,0.40460994839668274
1761316265259250000,8.16525,1.1410627365112305,-1.7187714576721191,0.25556322932243347
1761316265278172400,8.18417236328125,1.1117420196533203,-2.1403324604034424,0.10468395054340363
1761316265297095000,8.203094970703125,0.9363524913787842,-1.9997612237930298,0.11995512992143631
1761316265316017200,8.22201708984375,0.6834617257118225,-1.5843850374221802,0.08758022636175156
1761316265334939600,8.240939697265626,0.4458421468734741,-1.4414467811584473,-0.12010784447193146
1761316265353862100,8.259862060546874,0.23021306097507477,-1.4164021015167236,-0.3772745430469513
1761316265372784400,8.278784423828125,0.06650599837303162,-1.1085350513458252,-0.5134934782981873
1761316265391707000,8.297706787109375,-0.01779092662036419,-0.6479562520980835,-0.5006656646728516
1761316265410629400,8.31662939453125,-0.05566345527768135,-0.28572380542755127,-0.4163687527179718
1761316265429551600,8.335551513671875,-0.07337802648544312,-0.1629435122013092,-0.3650575876235962
1761316265448474000,8.35447412109375,-0.044668205082416534,-0.11835165321826935,-0.3241308331489563
1761316265467396400,8.373396240234374,0.028633465990424156,-0.1501157134771347,-0.21784339845180511
1761316265486318800,8.39231884765625,0.12270393967628479,-0.3852919042110443,-0.12377292662858963
1761316265505241300,8.411241455078125,0.2686964273452759,-0.8513683676719666,-0.13232478499412537
1761316265524163600,8.43016357421875,0.4647783935070038,-1.2410888671875,-0.22639526426792145
1761316265543086000,8.449086181640626,0.6816291809082031,-1.3834162950515747,-0.364446759223938
1761316265562008600,8.468008544921876,0.7341620326042175,-1.2765181064605713,-0.3253525197505951
1761316265580931000,8.48693115234375,0.6822400093078613,-1.015075445175171,-0.18607935309410095
1761316265599853300,8.505853271484375,0.6126034259796143,-0.6626165509223938,-0.2208976447582245
1761316265618775800,8.52477587890625,0.5661790370941162,-0.3321481943130493,-0.47378841042518616
1761316265637698000,8.543697998046875,0.5625139474868774,-0.14095300436019897,-0.7987591624259949
1761316265656620500,8.56262060546875,0.4580591022968292,0.13331741094589233,-0.8775584697723389
1761316265675543000,8.58154296875,0.2522035539150238,0.7888329029083252,-0.47439923882484436
1761316265694465300,8.60046533203125,0.2943520247936249,1.1791642904281616,-0.1286597102880478
1761316265713387800,8.6193876953125,-0.1008661538362503,0.44729289412498474,-0.016874656081199646
1761316265732310300,8.638310302734375,-1.0959362983703613,0.32695600390434265,0.28610557317733765
1761316265751232500,8.657232421875,-1.8436896800994873,2.3513801097869873,0.5854207277297974
1761316265770155000,8.676155029296876,-1.9560856819152832,4.977488994598389,0.2787754237651825
1761316265789077200,8.6950771484375,-1.5442981719970703,5.808852195739746,-0.15126104652881622
1761316265807999700,8.713999755859374,-0.766689658164978,4.869369029998779,-0.33207184076309204
1761316265826922200,8.732922119140625,-0.535789430141449,2.387420177459717,-0.14637427031993866
1761316265845844500,8.751844482421875,-0.7734090089797974,0.6654417514801025,-0.17752748727798462
1761316265864767000,8.77076708984375,-1.196115255355835,-0.07803573459386826,-0.2068481594324112
1761316265883689500,8.789689453125,-1.2956833839416504,0.12354385852813721,-0.21356746554374695
1761316265902611700,8.80861181640625,-1.0965471267700195,0.46867257356643677,-0.47684264183044434
1761316265921534200,8.8275341796875,-0.8876374363899231,0.3953709006309509,-0.6680378317832947
1761316265940456700,8.846456787109375,-0.7630245685577393,0.08933641016483307,-0.7376744151115417
1761316265959379000,8.86537890625,-0.715989351272583,-0.043828289955854416,-0.7291225790977478
1761316265978301400,8.884301513671875,-0.6213080286979675,-0.14706148207187653,-0.8231930136680603
1761316265997224000,8.903223876953126,-0.6011500358581543,-0.08964183181524277,-0.9618553519248962
1761316266016146200,8.922146240234374,-0.6384117603302002,0.2176143378019333,-1.0553150177001953
1761316266035068700,8.941068603515625,-0.60909104347229,0.29946786165237427,-1.0235509872436523
1761316266053991000,8.959990966796875,-0.6109235882759094,0.19379130005836487,-0.8958838582038879
1761316266072913400,8.978913330078125,-0.6512395143508911,0.2683146595954895,-0.7645516991615295
1761316266091836000,8.9978359375,-0.6713975071907043,0.409420371055603,-0.7114079594612122
1761316266110758100,9.016758056640626,-0.743477463722229,0.5242596864700317,-0.729733407497406
1761316266129680600,9.0356806640625,-0.8234984874725342,0.560375988483429,-0.7413395047187805
1761316266148603100,9.05460302734375,-0.8106706738471985,0.5181511640548706,-0.7462263107299805
1761316266167525400,9.073525390625,-0.748364269733429,0.5083776116371155,-0.8500702977180481
1761316266186448000,9.09244775390625,-0.618253767490387,0.5334223508834839,-0.8922187685966492
1761316266205370000,9.1113701171875,-0.5070796012878418,0.4955498278141022,-0.7718818783760071
1761316266224292600,9.130292724609374,-0.4533250331878662,0.3080197274684906,-0.5776324272155762
1761316266243215000,9.149215087890624,-0.3470376133918762,0.20600824058055878,-0.43652671575546265
1761316266262137300,9.168137451171875,-0.2065427303314209,0.23899398744106293,-0.2984752357006073
1761316266281059800,9.187059814453125,-0.10025530308485031,0.4815003573894501,-0.06329904496669769
1761316266299982300,9.205982421875,-0.06116108223795891,0.842587411403656,0.2818296551704407
1761316266318904600,9.224904541015626,-0.000687203137204051,0.9989643096923828,0.5762580037117004
1761316266337827000,9.2438271484375,0.26930728554725647,0.810823380947113,0.5121190547943115
1761316266356749300,9.262749267578124,0.703619658946991,0.35627666115760803,0.37773266434669495
1761316266375671800,9.281671875,1.106244444847107,-0.2985515892505646,0.5060105919837952
1761316266394594300,9.30059423828125,1.414722204208374,-0.5331169366836548,0.8120450973510742
1761316266413516500,9.3195166015625,1.5277290344238281,-0.839762270450592,1.3673815727233887
1761316266432439000,9.33843896484375,1.461146593093872,-0.8825215697288513,1.776038408279419
1761316266451361500,9.357361572265624,1.2827792167663574,-0.27472856640815735,1.925085186958313
1761316266470283800,9.37628369140625,1.0230927467346191,-0.005955760832875967,1.7473286390304565
1761316266489206300,9.395206298828125,0.888706386089325,-0.3370349705219269,1.6385977268218994
1761316266508128800,9.414128662109375,0.852055549621582,-0.6522321701049805,1.6715835332870483
1761316266527051000,9.433051025390625,1.0206494331359863,-0.46897798776626587,1.7644323110580444
1761316266545973500,9.451973388671876,1.1667182445526123,-0.7273663878440857,1.5854541063308716
1761316266564895700,9.470895751953124,1.1997040510177612,-0.9943066239356995,1.262926697731018
1761316266583818200,9.489818359375,1.1373976469039917,-1.1653438806533813,0.9568158984184265
1761316266602740700,9.50874072265625,1.1209046840667725,-1.1476292610168457,0.7491278052330017
1761316266621663000,9.5276630859375,1.1917630434036255,-1.4054068326950073,0.6367319226264954
1761316266640585500,9.54658544921875,1.2778924703598022,-1.5507885217666626,0.6159631013870239
1761316266659507700,9.5655078125,1.3066022396087646,-1.7994033098220825,0.5756471753120422
1761316266678430200,9.58443017578125,1.2925528287887573,-2.1359801292419434,0.3722350597381592
1761316266697352700,9.603352783203125,1.1783243417739868,-1.9270703792572021,0.27205610275268555
1761316266716275000,9.62227490234375,0.954067051410675,-1.9649429321289062,0.0008399150101467967
1761316266735197400,9.641197509765625,0.6510868072509766,-1.728545069694519,-0.2581593096256256
1761316266754120000,9.660119873046876,0.3823140263557434,-1.3559281826019287,-0.4291965663433075
1761316266773042200,9.679042236328126,0.22349373996257782,-1.065775752067566,-0.5556419491767883
1761316266791964700,9.697964599609374,0.12270393967628479,-0.7481352090835571,-0.5831300616264343
1761316266810887000,9.716886962890625,0.02435753494501114,-0.5044071078300476,-0.5867951512336731
1761316266829809400,9.735809326171875,-0.04100312292575836,-0.39445462822914124,-0.6582642793655396
1761316266848732000,9.75473193359375,-0.05566345527768135,-0.31199023127555847,-0.7431720495223999
1761316266867654100,9.773654052734376,0.0011453386396169662,-0.24479703605175018,-0.8097543716430664
1761316266886576600,9.79257666015625,0.16790664196014404,-0.36818817257881165,-0.8720608353614807
1761316266905499100,9.8114990234375,0.3945309817790985,-0.6650599241256714,-0.8268581032752991
1761316266924421400,9.83042138671875,0.5405234694480896,-0.8660287261009216,-0.7492805123329163
1761316266943343900,9.84934375,0.5112028121948242,-0.9753703474998474,-0.6423822641372681
1761316266962266000,9.86826611328125,0.44156619906425476,-0.8269344568252563,-0.48600533604621887
1761316266981188600,9.887188720703126,0.4073587656021118,-0.5318952798843384,-0.41942301392555237
1761316267000111000,9.906111083984374,0.4629458785057068,-0.25212720036506653,-0.567858874797821
1761316267019033300,9.925033447265625,0.4855472147464752,-0.20081603527069092,-0.8213604688644409
1761316267037955800,9.943955810546875,0.3053472638130188,0.09910997003316879,-0.6631510257720947
1761316267056878000,9.962878173828125,0.0817771777510643,0.7424085140228271,-0.03764346241950989
1761316267075800600,9.981800537109375,0.06528430432081223,0.7625664472579956,0.264725923538208
1761316267094723000,10.00072314453125,-0.35497862100601196,0.44484952092170715,0.058870404958724976
1761316267113645300,10.019645263671874,-1.1386955976486206,0.6764369606971741,-0.13782241940498352
1761316267132567800,10.03856787109375,-1.6243956089019775,2.4619436264038086,-0.4127036929130554
1761316267151490000,10.057489990234375,-1.5791164636611938,4.379469394683838,-0.5751890540122986
1761316267170412500,10.07641259765625,-1.1545777320861816,4.723376274108887,-0.5935144424438477
1761316267189335000,10.0953349609375,-0.7282062768936157,3.265894889831543,-0.22639526426792145
1761316267208257300,10.11425732421875,-0.5528931021690369,1.0453886985778809,0.1871483325958252
1761316267227179800,10.1331796875,-0.6500178575515747,0.36849361658096313,0.11323580890893936
1761316267246102000,10.15210205078125,-0.8332720398902893,0.06856760382652283,-0.028480753302574158
1761316267265024500,10.1710244140625,-0.8106706738471985,0.3458922505378723,-0.3931565582752228
1761316267283947000,10.189947021484375,-0.6732300519943237,0.6098546385765076,-0.6161158084869385
1761316267302869200,10.208869140625,-0.6115344762802124,0.5402180552482605,-0.6374954581260681
1761316267321791700,10.227791748046876,-0.5987066626548767,0.08322793990373611,-0.6106181740760803
1761316267340714200,10.24671435546875,-0.5840463638305664,-0.2722851634025574,-0.6802547574043274
1761316267359636500,10.265636474609375,-0.5956524610519409,-0.14095300436019897,-0.8531245589256287
1761316267378559000,10.28455908203125,-0.5791595578193665,0.1241547018289566,-0.9398648738861084
1761316267397481200,10.303481201171875,-0.5699968338012695,0.1375933438539505,-0.9606336951255798
1761316267416403700,10.32240380859375,-0.5809921026229858,0.3061871826648712,-0.8030350804328918
1761316267435326200,10.341326171875,-0.554114818572998,0.3605526089668274,-0.6717029213905334
1761316267454248400,10.36024853515625,-0.48508909344673157,0.40636613965034485,-0.5617504119873047
1761316267473171000,10.3791708984375,-0.530902624130249,0.44423866271972656,-0.48844873905181885
1761316267492093200,10.39809326171875,-0.6243622303009033,0.5903075337409973,-0.48661619424819946
1761316267511015700,10.417015625,-0.6915554404258728,0.6984274983406067,-0.6106181740760803
1761316267529938000,10.43593798828125,-0.7343147397041321,0.6440621018409729,-0.697969377040863
1761316267548860400,10.4548603515625,-0.7086591720581055,0.6171848177909851,-0.706521213054657
1761316267567783000,10.473782958984375,-0.6775059700012207,0.6049678325653076,-0.6643727421760559
1761316267586705200,10.492705078125,-0.6121453046798706,0.5615977048873901,-0.5751890540122986
1761316267605627600,10.511627685546875,-0.48875415325164795,0.4796678125858307,-0.48967042565345764
1761316267624550000,10.5305498046875,-0.34398335218429565,0.3471139669418335,-0.387658953666687
1761316267643472400,10.549472412109376,-0.21509459614753723,0.388651579618454,-0.21417832374572754
1761316267662395000,10.568394775390624,-0.14729054272174835,0.6385644674301147,0.04115583375096321
1761316267681317000,10.587317138671875,-0.14667969942092896,0.972697913646698,0.32519981265068054
1761316267700239600,10.606239501953125,-0.14484715461730957,1.1577845811843872,0.6495596766471863
1761316267719162000,10.625162109375,-0.04100312292575836,0.9146674275398254,0.9061155319213867
1761316267738084400,10.64408447265625,0.35116082429885864,0.3361186981201172,0.7356891632080078
1761316267757006800,10.6630068359375,0.8178481459617615,-0.5514423847198486,0.49196112155914307
1761316267775929000,10.68192919921875,1.2442958354949951,-0.9307785034179688,0.37467843294143677
1761316267794851600,10.7008515625,1.5772075653076172,-0.9930849075317383,0.6245149374008179
1761316267813773800,10.71977392578125,1.5704883337020874,-1.1598461866378784,1.203063726425171
1761316267832696300,10.7386962890625,1.3292036056518555,-0.6210789680480957,1.6514256000518799
1761316267851618800,10.757618896484376,1.0475267171859741,0.17302247881889343,1.8340688943862915
1761316267870541000,10.776541015625,0.8825979232788086,0.18157434463500977,1.7797034978866577
1761316267889463600,10.795463623046874,0.8636616468429565,-0.4146125912666321,1.696628212928772
1761316267908385800,10.8143857421875,1.013930082321167,-0.6546755433082581,1.7057909965515137
1761316267927308300,10.833308349609375,1.1355650424957275,-0.9802571535110474,1.5225367546081543
1761316267946230800,10.852230712890625,1.2027583122253418,-0.9484930634498596,1.1969552040100098
1761316267965153000,10.871153076171876,1.1850436925888062,-1.043174386024475,0.9763630032539368
1761316267984075500,10.890075439453126,1.1270132064819336,-1.2001621723175049,0.7656207084655762
1761316268002997800,10.908997802734374,1.1318999528884888,-1.592326045036316,0.5896966457366943
1761316268021920300,10.927920166015625,1.2058124542236328,-1.737096905708313,0.5084539651870728
1761316268040842500,10.946842529296875,1.2589561939239502,-1.6185925006866455,0.46752721071243286
1761316268059765000,10.965764892578125,1.226581335067749,-1.9521151781082153,0.3447469174861908
1761316268078687500,10.9846875,1.0493592023849487,-1.8372758626937866,0.3062635362148285
1761316268097609700,11.003609619140626,0.8160156011581421,-1.7230473756790161,0.1877591758966446
1761316268116532200,11.0225322265625,0.5820610523223877,-1.7847429513931274,-0.03764346241950989
1761316268135454500,11.041454345703125,0.433625191450119,-1.592326045036316,-0.14515258371829987
1761316268154377000,11.060376953125,0.39330926537513733,-1.3455437421798706,-0.1915769726037979
1761316268173299500,11.079299560546875,0.3193967640399933,-1.0437852144241333,-0.22273017466068268
1761316268192221700,11.0982216796875,0.19539476931095123,-0.7603521347045898,-0.2746522128582001
1761316268211144200,11.117144287109374,0.08727480471134186,-0.4940227270126343,-0.3082487881183624
1761316268230066400,11.13606640625,0.04023956134915352,-0.2930539846420288,-0.35833826661109924
1761316268248989000,11.154989013671875,0.0426829531788826,-0.14828316867351532,-0.4579063653945923
1761316268267911400,11.173911376953125,0.06589514762163162,-0.0853659063577652,-0.604509711265564
1761316268286833700,11.192833740234375,0.16973918676376343,-0.24785128235816956,-0.7162947654724121
1761316268305756200,11.211756103515626,0.4000285863876343,-0.5905365943908691,-0.7315659523010254
1761316268324678400,11.230678466796874,0.6645254492759705,-1.0169079303741455,-0.7187381386756897
1761316268343601000,11.249600830078125,0.7579851150512695,-1.2606359720230103,-0.734620213508606
1761316268362523100,11.268523193359375,0.7439355850219727,-1.1867234706878662,-0.701634407043457
1761316268381445600,11.287445556640625,0.6779640913009644,-0.7456917762756348,-0.5153260231018066
1761316268400368000,11.3063681640625,0.6174902319908142,-0.28572380542755127,-0.34306707978248596
1761316268419290400,11.325290283203126,0.5270848274230957,-0.025502873584628105,-0.35711658000946045
1761316268438212900,11.344212890625,0.5399126410484314,-0.05115845799446106,-0.13110309839248657
1761316268457135000,11.363135009765625,0.6077166795730591,0.5628194212913513,0.12362021207809448
1761316268476057600,11.3820576171875,0.436068594455719,0.6990383267402649,-0.07857023179531097
1761316268494979800,11.400979736328125,-0.6213080286979675,0.5567108988761902,-0.2887016832828522
1761316268513902300,11.41990234375,-1.5168100595474243,1.2885059118270874,-0.13171394169330597
1761316268532824800,11.438824951171876,-1.6689873933792114,3.0398049354553223,0.07108735293149948
1761316268551747000,11.4577470703125,-1.6134003400802612,3.653782844543457,-0.20379391312599182
1761316268570669600,11.476669677734375,-1.3237823247909546,3.0923378467559814,-0.13110309839248657
1761316268589591800,11.495591796875,-0.9444462060928345,2.2426493167877197,0.12423106282949448
1761316268608514300,11.514514404296875,-0.8387696146965027,1.5383424758911133,-0.03825430944561958
1761316268627436800,11.533436767578126,-0.951776385307312,1.1907703876495361,-0.39865419268608093
1761316268646359000,11.552359130859376,-0.9945356845855713,0.9091697931289673,-0.577021598815918
1761316268665281500,11.571281494140624,-0.8406021595001221,0.6086329221725464,-0.6087856292724609
1761316268684203800,11.590203857421875,-0.6744517087936401,0.6043570041656494,-0.567858874797821
1761316268703126300,11.609126220703125,-0.5504497289657593,0.43568679690361023,-0.5941253304481506
1761316268722048500,11.628048583984375,-0.4710395932197571,0.21333840489387512,-0.6197808980941772
1761316268740971000,11.646970947265626,-0.4936409294605255,0.045355409383773804,-0.646658182144165
1761316268759893200,11.665893310546876,-0.5388436317443848,0.019088976085186005,-0.6875849366188049
1761316268778815700,11.684815673828124,-0.5040253400802612,-0.04077405482530594,-0.7682167887687683
1761316268797738200,11.70373828125,-0.4142307937145233,-0.05115845799446106,-0.8225821852684021
1761316268816660500,11.722660400390625,-0.3122192919254303,0.09300149232149124,-0.7669950723648071
1761316268835583000,11.7415830078125,-0.2712925374507904,0.18340688943862915,-0.6680378317832947
1761316268854505200,11.760505126953126,-0.29145050048828125,0.4680617153644562,-0.47562095522880554
1761316268873427700,11.779427734375,-0.3384857475757599,0.5951942801475525,-0.3882697820663452
1761316268892350000,11.798349853515624,-0.4166741967201233,0.4943281412124634,-0.46096062660217285
1761316268911272400,11.8172724609375,-0.5125772356987,0.39109495282173157,-0.5812975168228149
1761316268930194700,11.836194580078125,-0.605426013469696,0.3324536085128784,-0.6448256373405457
1761316268949117200,11.8551171875,-0.6042042970657349,0.34100547432899475,-0.5922927856445312
1761316268968039700,11.874039794921876,-0.5687751770019531,0.4100312292575836,-0.5000548362731934
1761316268986962000,11.8929619140625,-0.5144097208976746,0.5451048016548157,-0.39437827467918396
1761316269005884400,11.911884521484374,-0.4679853618144989,0.5077667832374573,-0.32779592275619507
1761316269024806700,11.930806640625,-0.39834877848625183,0.43080002069473267,-0.29358845949172974
1761316269043729200,11.949729248046875,-0.30366745591163635,0.4228590130805969,-0.21601086854934692
1761316269062651400,11.9686513671875,-0.18577392399311066,0.4900522232055664,-0.1023932695388794
1761316269081574000,11.987573974609376,-0.11613733321428299,0.4240806996822357,0.010613471269607544
1761316269100496400,12.006496337890624,-0.08131904155015945,0.31596073508262634,0.0955212414264679
1761316269119418600,12.025418701171875,-0.04222481697797775,0.2145601063966751,0.21707984805107117
1761316269138341000,12.044341064453125,0.03962871432304382,0.10644013434648514,0.3936147093772888
1761316269157263400,12.063263427734375,0.2748049199581146,-0.10430216789245605,0.6043570041656494
1761316269176185900,12.082185791015625,0.6064949631690979,-0.23258009552955627,0.7161420583724976
1761316269195108000,12.101108154296876,0.8019660711288452,-0.6705575585365295,0.7882220149040222
1761316269214030600,12.120030517578124,0.9638406038284302,-1.2777397632598877,0.8303704857826233
1761316269232952800,12.138952880859375,0.9803335070610046,-1.5269653797149658,1.0172897577285767
1761316269251875300,12.157875244140625,0.8141830563545227,-1.3467655181884766,1.4718364477157593
1761316269270797800,12.1767978515625,0.5637356638908386,-0.7921161651611328,1.961125135421753
1761316269289720000,12.195719970703125,0.47088688611984253,-0.07314895838499069,2.4058220386505127
1761316269308642600,12.214642578125,0.671855628490448,0.30313295125961304,2.6886441707611084
1761316269327564800,12.233564697265624,0.7787538766860962,0.21394924819469452,2.6623778343200684
1761316269346487300,12.2524873046875,0.6828508973121643,-0.021226942539215088,2.1706457138061523
1761316269365409500,12.271409423828125,0.6217661499977112,-0.08353336155414581,1.6453170776367188
1761316269384332000,12.29033203125,0.5338041186332703,-0.41888850927352905,1.2555965185165405
1761316269403254300,12.309254150390625,0.4653892517089844,-0.7597413063049316,0.9720870852470398
1761316269422176800,12.3281767578125,0.41041299700737,-0.8800781965255737,0.7112552523612976
1761316269441099000,12.34709912109375,0.35238251090049744,-0.9026795625686646,0.5310553312301636
1761316269460021500,12.366021484375,0.33588963747024536,-0.9142856597900391,0.49684789776802063
1761316269478944000,12.384944091796875,0.34993913769721985,-0.8580876588821411,0.4736357033252716
1761316269497866200,12.4038662109375,0.22899135947227478,-0.5557183027267456,0.36612656712532043
1761316269516788700,12.422788818359376,0.00908635277301073,-0.35230615735054016,0.08758022636175156
1761316269535711000,12.4417109375,-0.2456369549036026,-0.47325390577316284,-0.19890713691711426
1761316269554633500,12.460633544921874,-0.46065518260002136,-0.5593833923339844,-0.34428879618644714
1761316269573555700,12.4795556640625,-0.49180838465690613,-0.3242071866989136,-0.34306707978248596
1761316269592478200,12.498478271484375,-0.44721654057502747,0.19379130005836487,-0.18180342018604279
1761316269611400700,12.517400634765625,-0.3629196286201477,0.5738146305084229,0.06558972597122192
1761316269630323000,12.536322998046876,-0.3213820159435272,0.704535961151123,0.19081340730190277
1761316269649245400,12.555245361328126,-0.35925453901290894,0.639175295829773,-0.010155336000025272
1761316269668167700,12.574167724609374,-0.3616979420185089,0.39109495282173157,-0.44874367117881775
1761316269687090200,12.593090087890625,-0.29328304529190063,0.22189027070999146,-0.831744909286499
1761316269706012400,12.612012451171875,-0.25479966402053833,0.1510319858789444,-1.0681427717208862
1761316269724935000,12.630934814453125,-0.1949366331100464,0.11621369421482086,-1.107847809791565
1761316269743857200,12.649857177734376,-0.05199837312102318,0.09300149232149124,-0.9038248658180237
1761316269762779600,12.668779541015626,0.1721825748682022,-0.03833066672086716,-0.4921138286590576
1761316269781702000,12.687701904296874,0.2259371280670166,-0.05543438717722893,-0.019928891211748123
1761316269800624400,12.706624267578125,0.10682191699743271,0.3752129375934601,0.03749075159430504
1761316269819546600,12.725546630859375,-0.07948649674654007,0.44362783432006836,-0.10544750839471817
1761316269838470400,12.744470458984376,-0.1949366331100464,-0.15744587779045105,-0.10178242623806
1761316269857393000,12.763392822265626,-0.30183491110801697,-0.5129590034484863,-0.1268271654844284
1761316269876315100,12.782315185546874,-0.30672168731689453,-0.3639122545719147,-0.09323056042194366
1761316269895237600,12.801237548828125,-0.17600037157535553,-0.14645062386989594,-0.1927986592054367
1761316269914159900,12.820159912109375,-0.04283566400408745,0.007482878863811493,-0.231282040476799
1761316269933082400,12.839082275390625,0.022524992004036903,0.14614520967006683,-0.044362783432006836
1761316269952004900,12.8580048828125,-0.0019088976550847292,0.29946786165237427,0.19081340730190277
1761316269970927000,12.876927001953124,-0.03367295488715172,0.3202366828918457,0.18898087739944458
1761316269989849600,12.895849609375,-0.02695363573729992,0.23105297982692719,0.08391514420509338
1761316270008771800,12.914771728515625,-0.009849912486970425,0.09239064902067184,0.030160583555698395
1761316270027694300,12.9336943359375,-0.019623467698693275,-0.0035123717971146107,-0.004657710436731577
1761316270046616600,12.952616455078125,-0.036727190017700195,0.01175880990922451,-0.01626380905508995
1761316270065539000,12.9715390625,-0.043446511030197144,0.10766182839870453,0.004504998680204153
1761316270084461300,12.99046142578125,-0.05077667906880379,0.1754658818244934,0.006948387715965509
1761316270103383800,13.0093837890625,-0.05444176122546196,0.17118994891643524,-0.02664821222424507
1761316270122306000,13.02830615234375,-0.06849125027656555,0.13087402284145355,-0.04130854457616806
1761316270141228500,13.047228515625,-0.08009734749794006,0.12965233623981476,-0.04130854457616806
1761316270160150800,13.06615087890625,-0.08376242965459824,0.14858859777450562,-0.02298312820494175
1761316270179073300,13.0850732421875,-0.07643226534128189,0.16080553829669952,0.01916533336043358
1761316270197995800,13.103995849609374,-0.06665870547294617,0.15652960538864136,0.04359922185540199
1761316270216918000,13.12291796875,-0.05444176122546196,0.1650814712047577,0.058870404958724976
1761316270235840500,13.141840576171875,-0.05077667906880379,0.23227466642856598,0.11384665966033936
1761316270254762800,13.1607626953125,-0.03489464893937111,0.24876753985881805,0.1358371526002884
1761316270273685200,13.179685302734375,-0.03184041380882263,0.18707197904586792,-0.0028251686599105597
1761316270292607500,13.198607421875,-0.03489464893937111,0.10033166408538818,-0.1292705535888672
1761316270311530000,13.217530029296874,-0.01779092662036419,0.10094250738620758,-0.13049224019050598
1761316270330452200,13.2364521484375,-0.0165692325681448,0.1113269105553627,-0.010766183026134968
