time,seconds_elapsed,z,y,x
1761402221240114000,0.126114013671875,9.798495292663574,0.0751928985118866,-0.04638765752315521
1761402221250229800,0.136229736328125,9.80448055267334,0.07160159200429916,-0.050053779035806656
1761402221260287700,0.146287841796875,9.790115356445312,0.06920739263296127,-0.052373163402080536
1761402221270369000,0.156369140625,9.80448055267334,0.07160159200429916,-0.04885667935013771
1761402221280425200,0.16642529296875,9.793706893920898,0.0644189864397049,-0.04638765752315521
1761402221290530800,0.17653076171875,9.777022361755371,0.0727238729596138,-0.04272153601050377
1761402221300587000,0.1865869140625,9.792509078979492,0.07998129725456238,-0.05117605999112129
1761402221310686000,0.19668603515625,9.799766540527344,0.06920739263296127,-0.04287117347121239
1761402221320799000,0.206799072265625,9.77941608428955,0.06673837453126907,-0.04990414157509804
1761402221330855400,0.21685546875,9.786599159240723,0.06561609357595444,-0.04519055783748627
1761402221340891100,0.22689111328125,9.787796020507812,0.06801029294729233,-0.0487818606197834
1761402221351016400,0.237016357421875,9.77941608428955,0.07032967358827591,-0.04990414157509804
1761402221361094700,0.2470947265625,9.793706893920898,0.06681319326162338,-0.05596446618437767
1761402221371202600,0.25720263671875,9.797297477722168,0.0751928985118866,-0.0487818606197834
1761402221381231400,0.2672314453125,9.777022361755371,0.07751227915287018,-0.05349544435739517
1761402221391297800,0.2772978515625,9.779341697692871,0.06075286865234375,-0.05349544435739517
1761402221401417500,0.28741748046875,9.790115356445312,0.06920739263296127,-0.05117605999112129
1761402221411504000,0.297504150390625,9.786523818969727,0.0751928985118866,-0.06307224929332733
1761402221421559800,0.307559814453125,9.794903755187988,0.07638999819755554,-0.05357026308774948
1761402221431656200,0.31765625,9.790115356445312,0.07040449231863022,-0.052373163402080536
1761402221441722600,0.32772265625,9.793706893920898,0.0644189864397049,-0.06554127484560013
1761402221451803600,0.3378037109375,9.790115356445312,0.06322188675403595,-0.05835866555571556
1761402221461910000,0.347909912109375,9.794903755187988,0.06920739263296127,-0.04758475720882416
1761402221472007400,0.35800732421875,9.784204483032227,0.06913257390260696,-0.04758475720882416
1761402221482071600,0.368071533203125,9.784130096435547,0.06561609357595444,-0.052373163402080536
1761402221492128000,0.3781279296875,9.790115356445312,0.06322188675403595,-0.05596446618437767
1761402221502228200,0.388228271484375,9.787720680236816,0.062024787068367004,-0.052373163402080536
1761402221512291600,0.39829150390625,9.78061294555664,0.07990647852420807,-0.05349544435739517
1761402221522396400,0.408396484375,9.793706893920898,0.06801029294729233,-0.05117605999112129
1761402221532433400,0.418433349609375,9.775824546813965,0.06673837453126907,-0.05469254404306412
1761402221542541600,0.42854150390625,9.788992881774902,0.0751928985118866,-0.0487818606197834
1761402221552610300,0.4386103515625,9.794754028320312,0.0727238729596138,-0.05349544435739517
1761402221562695000,0.44869482421875,9.794754028320312,0.07032967358827591,-0.059480950236320496
1761402221572764400,0.458764404296875,9.78405475616455,0.06913257390260696,-0.05588964745402336
1761402221582872800,0.468872802734375,9.795950889587402,0.07040449231863022,-0.059480950236320496
1761402221592963800,0.4789638671875,9.792359352111816,0.06554127484560013,-0.057086747139692307
1761402221603044900,0.489044921875,9.786449432373047,0.07631517946720123,-0.05110124126076698
1761402221613100800,0.499100830078125,9.797147750854492,0.07160159200429916,-0.057086747139692307
1761402221623180800,0.509180908203125,9.794754028320312,0.06322188675403595,-0.05229834467172623
1761402221633263000,0.51926318359375,9.787496566772461,0.06905775517225266,-0.043843816965818405
1761402221643369200,0.529369140625,9.78989028930664,0.07145195454359055,-0.05581482872366905
1761402221653449700,0.53944970703125,9.794678688049316,0.06793547421693802,-0.04990414157509804
1761402221663507200,0.549507080078125,9.791088104248047,0.06554127484560013,-0.057011928409338
1761402221673611800,0.55961181640625,9.787496566772461,0.06554127484560013,-0.05820902809500694
1761402221683667700,0.569667724609375,9.78989028930664,0.06554127484560013,-0.04982932284474373
1761402221693748700,0.579748779296875,9.793481826782227,0.06434416770935059,-0.05342062562704086
1761402221703829800,0.589829833984375,9.786299705505371,0.07504326105117798,-0.04504092037677765
1761402221713937000,0.59993701171875,9.789216995239258,0.0752677172422409,-0.04414309561252594
1761402221724018000,0.610017822265625,9.799991607666016,0.07175122946500778,-0.05611410364508629
1761402221734091500,0.620091552734375,9.79640007019043,0.06815993040800095,-0.05611410364508629
1761402221744154600,0.630154541015625,9.786823272705078,0.07646481692790985,-0.0512508787214756
1761402221754235400,0.6402353515625,9.788020133972168,0.06928221136331558,-0.0512508787214756
1761402221764347600,0.65034765625,9.788020133972168,0.0752677172422409,-0.04414309561252594
1761402221774405400,0.6604052734375,9.790414810180664,0.06808511167764664,-0.05132569745182991
1761402221784504300,0.67050439453125,9.794005393981934,0.06217442452907562,-0.054917000234127045
1761402221794584800,0.680584716796875,9.780987739562988,0.07047931104898453,-0.04653729498386383
1761402221804645600,0.690645751953125,9.786972999572754,0.06935703009366989,-0.052522800862789154
1761402221814727000,0.700726806640625,9.790489196777344,0.06097732484340668,-0.057311203330755234
1761402221824803300,0.71080322265625,9.786897659301758,0.07055412977933884,-0.05970540642738342
1761402221834909400,0.720909423828125,9.79408073425293,0.06815993040800095,-0.06569091230630875
1761402221844990700,0.73099072265625,9.786972999572754,0.07646481692790985,-0.050128597766160965
1761402221855088000,0.741088134765625,9.780987739562988,0.06569091230630875,-0.04653729498386383
1761402221865154300,0.751154296875,9.79176139831543,0.07055412977933884,-0.045415014028549194
1761402221875210800,0.761210693359375,9.784130096435547,0.06681319326162338,-0.05357026308774948
1761402221885303800,0.7713037109375,9.786523818969727,0.07160159200429916,-0.05117605999112129
1761402221895370500,0.78137060546875,9.780538558959961,0.08110358566045761,-0.05588964745402336
1761402221905477000,0.79147705078125,9.794903755187988,0.07399579882621765,-0.05117605999112129
1761402221915518500,0.8015185546875,9.792509078979492,0.06681319326162338,-0.05117605999112129
1761402221925639000,0.811638916015625,9.786523818969727,0.06082768738269806,-0.05117605999112129
1761402221935720400,0.821720458984375,9.791312217712402,0.07040449231863022,-0.0487818606197834
1761402221945775900,0.83177587890625,9.793706893920898,0.0644189864397049,-0.052373163402080536
1761402221955865600,0.841865478515625,9.796100616455078,0.06082768738269806,-0.05835866555571556
1761402221965938000,0.85193798828125,9.783007621765137,0.06314706802368164,-0.04758475720882416
1761402221976045000,0.862045166015625,9.790115356445312,0.06920739263296127,-0.05596446618437767
1761402221986125600,0.87212548828125,9.786523818969727,0.06801029294729233,-0.052373163402080536
1761402221996163000,0.8821630859375,9.799692153930664,0.05970540642738342,-0.050053779035806656
1761402222006270500,0.8922705078125,9.792509078979492,0.07399579882621765,-0.0487818606197834
1761402222016348400,0.902348388671875,9.793706893920898,0.06561609357595444,-0.057161565870046616
1761402222026450200,0.9124501953125,9.790115356445312,0.06920739263296127,-0.054767362773418427
1761402222036531000,0.922531005859375,9.787720680236816,0.06322188675403595,-0.054767362773418427
1761402222046602200,0.932602294921875,9.797297477722168,0.07040449231863022,-0.05357026308774948
1761402222056693000,0.94269287109375,9.802085876464844,0.06681319326162338,-0.04885667935013771
1761402222066765000,0.95276513671875,9.797297477722168,0.06801029294729233,-0.04997896030545235
1761402222076855300,0.962855224609375,9.786599159240723,0.06322188675403595,-0.04758475720882416
1761402222086936600,0.9729365234375,9.774627685546875,0.06434416770935059,-0.05349544435739517
1761402222097017000,0.98301708984375,9.785401344299316,0.0644189864397049,-0.0487818606197834
1761402222107098400,0.993098388671875,9.788918495178223,0.07160159200429916,-0.05835866555571556
1761402222117180000,1.003179931640625,9.785326957702637,0.07990647852420807,-0.05469254404306412
1761402222127261400,1.013261474609375,9.792509078979492,0.06561609357595444,-0.054767362773418427
1761402222137327600,1.02332763671875,9.797297477722168,0.0727986991405487,-0.04758475720882416
1761402222147423000,1.033423095703125,9.78293228149414,0.07152677327394485,-0.05349544435739517
1761402222157479000,1.04347900390625,9.784130096435547,0.06801029294729233,-0.06307224929332733
1761402222167585000,1.0535849609375,9.798495292663574,0.07160159200429916,-0.054767362773418427
1761402222177666300,1.063666259765625,9.798495292663574,0.0751928985118866,-0.05357026308774948
1761402222187737300,1.0737373046875,9.786599159240723,0.06681319326162338,-0.04399345442652702
1761402222197836500,1.08383642578125,9.787720680236816,0.07638999819755554,-0.05596446618437767
1761402222207863300,1.09386328125,9.788918495178223,0.07399579882621765,-0.054767362773418427
1761402222217995000,1.1039951171875,9.792584419250488,0.07399579882621765,-0.04758475720882416
1761402222228067600,1.114067626953125,9.785401344299316,0.05843348428606987,-0.04519055783748627
1761402222238131000,1.124130859375,9.790115356445312,0.06681319326162338,-0.05117605999112129
1761402222248237300,1.1342373046875,9.77941608428955,0.07032967358827591,-0.04990414157509804
1761402222258310700,1.144310546875,9.794903755187988,0.0751928985118866,-0.059555768966674805
1761402222268396000,1.15439599609375,9.78061294555664,0.059555768966674805,-0.0487818606197834
1761402222278476500,1.1644765625,9.792509078979492,0.06561609357595444,-0.05835866555571556
1761402222288565200,1.174565185546875,9.792509078979492,0.07160159200429916,-0.04997896030545235
1761402222298638800,1.184638916015625,9.786523818969727,0.06920739263296127,-0.052373163402080536
1761402222308718300,1.19471826171875,9.791312217712402,0.07399579882621765,-0.059555768966674805
1761402222318778000,1.204778076171875,9.784204483032227,0.07870937883853912,-0.05229834467172623
1761402222328869400,1.214869384765625,9.786523818969727,0.06322188675403595,-0.054767362773418427
1761402222338947800,1.22494775390625,9.787720680236816,0.07399579882621765,-0.054767362773418427
1761402222349019100,1.23501904296875,9.791312217712402,0.06681319326162338,-0.05357026308774948
1761402222359126000,1.2451259765625,9.788918495178223,0.06561609357595444,-0.05117605999112129
1761402222369206300,1.255206298828125,9.791387557983398,0.07160159200429916,-0.04040215536952019
1761402222379264800,1.2652646484375,9.798495292663574,0.07638999819755554,-0.04758475720882416
1761402222389365200,1.275365234375,9.78061294555664,0.07152677327394485,-0.05349544435739517
1761402222399449900,1.285449951171875,9.786599159240723,0.06681319326162338,-0.0487818606197834
1761402222409530600,1.295530517578125,9.792509078979492,0.06920739263296127,-0.052373163402080536
1761402222419611600,1.305611572265625,9.792509078979492,0.06322188675403595,-0.05835866555571556
1761402222429683200,1.31568310546875,9.775824546813965,0.07032967358827591,-0.04750993847846985
1761402222439748600,1.32574853515625,9.785326957702637,0.0727238729596138,-0.05828384682536125
1761402222449863700,1.33586376953125,9.787720680236816,0.06801029294729233,-0.052373163402080536
1761402222459936500,1.3459365234375,9.796100616455078,0.06681319326162338,-0.04997896030545235
1761402222470017000,1.35601708984375,9.793706893920898,0.06561609357595444,-0.04997896030545235
1761402222480098000,1.36609814453125,9.787796020507812,0.06561609357595444,-0.0487818606197834
1761402222490179300,1.376179443359375,9.786523818969727,0.06322188675403595,-0.04997896030545235
1761402222500267000,1.38626708984375,9.78173542022705,0.07032967358827591,-0.05469254404306412
1761402222510316300,1.39631640625,9.797297477722168,0.06681319326162338,-0.054767362773418427
1761402222530503700,1.416503662109375,9.783980369567871,0.06554127484560013,-0.05828384682536125
1761402222540559400,1.426559326171875,9.791162490844727,0.07631517946720123,-0.057086747139692307
1761402222550666500,1.43666650390625,9.787646293640137,0.07511807978153229,-0.05110124126076698
1761402222560747800,1.446747802734375,9.786449432373047,0.06554127484560013,-0.04272153601050377
1761402222570802700,1.456802734375,9.793557167053223,0.06082768738269806,-0.057086747139692307
1761402222580884000,1.466884033203125,9.788843154907227,0.0727238729596138,-0.04990414157509804
1761402222590990000,1.476989990234375,9.782857894897461,0.0810287669301033,-0.04272153601050377
1761402222601045800,1.487045654296875,9.789067268371582,0.0727986991405487,-0.054842181503772736
1761402222611152100,1.497152099609375,9.793856620788574,0.07399579882621765,-0.0512508787214756
1761402222621208300,1.507208251953125,9.791461944580078,0.057311203330755234,-0.05843348428606987
1761402222631289600,1.51728955078125,9.786673545837402,0.0727986991405487,-0.057161565870046616
1761402222641416700,1.527416748046875,9.787870407104492,0.07399579882621765,-0.050053779035806656
1761402222651476700,1.537476806640625,9.796250343322754,0.07407061755657196,-0.054842181503772736
1761402222661558000,1.54755810546875,9.792658805847168,0.06569091230630875,-0.0512508787214756
1761402222671638500,1.557638427734375,9.793856620788574,0.07287351787090302,-0.0512508787214756
1761402222681719800,1.5677197265625,9.793706893920898,0.07160159200429916,-0.06075286865234375
1761402222691818800,1.57781884765625,9.791312217712402,0.06681319326162338,-0.05117605999112129
1761402222701860900,1.58786083984375,9.790115356445312,0.07040449231863022,-0.061949968338012695
1761402222711946200,1.5979462890625,9.793706893920898,0.062024787068367004,-0.04758475720882416
1761402222722044700,1.608044677734375,9.790189743041992,0.07040449231863022,-0.04638765752315521
1761402222732100000,1.61810009765625,9.791312217712402,0.07878419756889343,-0.05117605999112129
1761402222742206700,1.628206787109375,9.792509078979492,0.0751928985118866,-0.054767362773418427
1761402222752287700,1.638287841796875,9.794978141784668,0.0727986991405487,-0.04519055783748627
1761402222762393000,1.64839306640625,9.786599159240723,0.07392098009586334,-0.04519055783748627
1761402222772446200,1.6584462890625,9.791312217712402,0.0644189864397049,-0.05357026308774948
1761402222782539000,1.6685390625,9.794903755187988,0.07160159200429916,-0.06434416770935059
1761402222792611800,1.67861181640625,9.786523818969727,0.062024787068367004,-0.057161565870046616
1761402222802693000,1.688693115234375,9.788918495178223,0.06561609357595444,-0.04997896030545235
1761402222812749000,1.6987490234375,9.787720680236816,0.0751928985118866,-0.05596446618437767
1761402222822853600,1.708853515625,9.784204483032227,0.06673837453126907,-0.04997896030545235
1761402222832960000,1.7189599609375,9.788918495178223,0.07040449231863022,-0.04997896030545235
1761402222843013400,1.729013427734375,9.790115356445312,0.06681319326162338,-0.05596446618437767
1761402222853097700,1.73909765625,9.797297477722168,0.07040449231863022,-0.05357026308774948
1761402222863179000,1.749178955078125,9.797297477722168,0.06920739263296127,-0.04997896030545235
1761402222873260300,1.75926025390625,9.790115356445312,0.07399579882621765,-0.04997896030545235
1761402222883316200,1.769316162109375,9.794903755187988,0.06801029294729233,-0.05357026308774948
1761402222893411000,1.7794111328125,9.793781280517578,0.07160159200429916,-0.04638765752315521
1761402222903464000,1.7894638671875,9.792509078979492,0.07040449231863022,-0.04758475720882416
1761402222913584600,1.799584716796875,9.783007621765137,0.06793547421693802,-0.04399345442652702
1761402222923644200,1.80964404296875,9.802085876464844,0.07160159200429916,-0.045265376567840576
1761402222933747000,1.819746826171875,9.786599159240723,0.0644189864397049,-0.0487818606197834
1761402222943793000,1.82979296875,9.790115356445312,0.07160159200429916,-0.05117605999112129
1761402222953883600,1.839883544921875,9.791312217712402,0.062024787068367004,-0.054767362773418427
1761402222963985700,1.849985595703125,9.78061294555664,0.06913257390260696,-0.04870704188942909
1761402222974045700,1.860045654296875,9.792509078979492,0.07399579882621765,-0.057161565870046616
1761402222984152300,1.87015234375,9.788918495178223,0.06681319326162338,-0.0487818606197834
1761402222994232800,1.88023291015625,9.790115356445312,0.06681319326162338,-0.04997896030545235
1761402223004290800,1.890290771484375,9.787870407104492,0.06920739263296127,-0.04765957593917847
1761402223014395400,1.9003955078125,9.786673545837402,0.07399579882621765,-0.05835866555571556
1761402223024450800,1.910450927734375,9.80103874206543,0.07047931104898453,-0.05364508181810379
1761402223034558200,1.92055810546875,9.791461944580078,0.0751928985118866,-0.04885667935013771
1761402223044639200,1.93063916015625,9.796250343322754,0.07287351787090302,-0.062024787068367004
1761402223054719500,1.940719482421875,9.787870407104492,0.06329670548439026,-0.054842181503772736
1761402223064800800,1.95080078125,9.805827140808105,0.06928221136331558,-0.052522800862789154
1761402223074857200,1.960857177734375,9.787870407104492,0.0727986991405487,-0.052447982132434845
1761402223084984800,1.97098486328125,9.786523818969727,0.0727986991405487,-0.059480950236320496
1761402223095044000,1.981044189453125,9.793706893920898,0.0727986991405487,-0.04997896030545235
1761402223105125000,1.991125,9.785326957702637,0.06681319326162338,-0.052373163402080536
1761402223115182300,2.001182373046875,9.781810760498047,0.0727238729596138,-0.04990414157509804
1761402223125287700,2.01128759765625,9.786523818969727,0.06681319326162338,-0.059555768966674805
1761402223135368400,2.021368408203125,9.791312217712402,0.06920739263296127,-0.052373163402080536
1761402223145424000,2.031423828125,9.786523818969727,0.07631517946720123,-0.054767362773418427
1761402223155505000,2.0415048828125,9.794903755187988,0.07638999819755554,-0.054767362773418427
1761402223165586200,2.051586181640625,9.787496566772461,0.06905775517225266,-0.046238020062446594
1761402223175693300,2.061693359375,9.786299705505371,0.06905775517225266,-0.057011928409338
1761402223185773800,2.07177392578125,9.787496566772461,0.07624036073684692,-0.051026422530412674
1761402223195829500,2.08182958984375,9.781511306762695,0.0702548548579216,-0.04863222315907478
1761402223205935900,2.091935791015625,9.791088104248047,0.07743746042251587,-0.05222352594137192
1761402223216017000,2.102016845703125,9.795876502990723,0.06434416770935059,-0.043918635696172714
1761402223226098000,2.112097900390625,9.787422180175781,0.061949968338012695,-0.06060323119163513
1761402223236179000,2.122178955078125,9.794678688049316,0.06793547421693802,-0.05110124126076698
1761402223246260000,2.132260009765625,9.790788650512695,0.0677858367562294,-0.0545429065823555
1761402223256341200,2.14234130859375,9.790788650512695,0.06419453024864197,-0.058134209364652634
1761402223266422300,2.15242236328125,9.781211853027344,0.07137713581323624,-0.05446808785200119
1761402223276503000,2.1625029296875,9.78480339050293,0.06898293644189835,-0.04967968538403511
1761402223286560300,2.172560302734375,9.802759170532227,0.07264905422925949,-0.0545429065823555
1761402223296665300,2.182665283203125,9.791985511779785,0.06898293644189835,-0.050951603800058365
1761402223306747000,2.192746826171875,9.783605575561523,0.06898293644189835,-0.05686229094862938
1761402223316827400,2.202827392578125,9.796773910522461,0.07264905422925949,-0.05933130905032158
1761402223326888700,2.212888671875,9.793706893920898,0.07160159200429916,-0.05357026308774948
1761402223336989700,2.22298974609375,9.786599159240723,0.0644189864397049,-0.04758475720882416
1761402223347071000,2.233071044921875,9.792509078979492,0.06801029294729233,-0.057161565870046616
1761402223357152300,2.24315234375,9.788918495178223,0.06801029294729233,-0.057161565870046616
1761402223367233000,2.25323291015625,9.800889015197754,0.07040449231863022,-0.0512508787214756
1761402223377314300,2.263314208984375,9.797297477722168,0.06920739263296127,-0.04758475720882416
1761402223387394800,2.273394775390625,9.790115356445312,0.059630587697029114,-0.059555768966674805
1761402223397451300,2.283451171875,9.785326957702637,0.06801029294729233,-0.05117605999112129
1761402223407558000,2.293557861328125,9.794828414916992,0.06793547421693802,-0.04870704188942909
1761402223417639200,2.30363916015625,9.793557167053223,0.07511807978153229,-0.05588964745402336
1761402223427694300,2.3136943359375,9.790040016174316,0.07631517946720123,-0.05349544435739517
1761402223437801000,2.323801025390625,9.791162490844727,0.0727238729596138,-0.05588964745402336
1761402223447856600,2.333856689453125,9.788768768310547,0.06793547421693802,-0.05828384682536125
1761402223457963800,2.3439638671875,9.78405475616455,0.07032967358827591,-0.04750993847846985
1761402223468041200,2.354041259765625,9.803133964538574,0.06322188675403595,-0.052373163402080536
1761402223478117400,2.364117431640625,9.786449432373047,0.07152677327394485,-0.04990414157509804
1761402223488203500,2.37420361328125,9.78757095336914,0.06913257390260696,-0.05828384682536125
1761402223498287000,2.384287109375,9.778069496154785,0.06786065548658371,-0.051026422530412674
1761402223508363000,2.394363037109375,9.776872634887695,0.0702548548579216,-0.04743511974811554
1761402223518425600,2.404425537109375,9.793557167053223,0.06913257390260696,-0.05828384682536125
1761402223528530400,2.414530517578125,9.789965629577637,0.06793547421693802,-0.05349544435739517
1761402223538586400,2.42458642578125,9.797147750854492,0.07040449231863022,-0.05588964745402336
1761402223548688000,2.43468798828125,9.791162490844727,0.07511807978153229,-0.05828384682536125
1761402223558774000,2.44477392578125,9.786449432373047,0.06673837453126907,-0.04990414157509804
1761402223568855000,2.45485498046875,9.78173542022705,0.07392098009586334,-0.05588964745402336
1761402223578915000,2.4649150390625,9.77941608428955,0.07032967358827591,-0.05229834467172623
1761402223588992000,2.474991943359375,9.784204483032227,0.0644189864397049,-0.04758475720882416
1761402223599073300,2.4850732421875,9.792509078979492,0.0644189864397049,-0.04758475720882416
1761402223609178600,2.4951787109375,9.794903755187988,0.07160159200429916,-0.052373163402080536
1761402223619260700,2.5052607421875,9.786523818969727,0.07040449231863022,-0.05357026308774948
1761402223629353200,2.515353271484375,9.787720680236816,0.0727986991405487,-0.057161565870046616
1761402223639422200,2.525422119140625,9.784130096435547,0.07152677327394485,-0.052373163402080536
1761402223649478700,2.535478759765625,9.798345565795898,0.07040449231863022,-0.05357026308774948
1761402223659551500,2.545551513671875,9.781661033630371,0.07032967358827591,-0.0463128387928009
1761402223669642500,2.555642578125,9.787646293640137,0.07631517946720123,-0.04990414157509804
1761402223679746600,2.56574658203125,9.78757095336914,0.06913257390260696,-0.059480950236320496
1761402223689801500,2.575801513671875,9.792434692382812,0.07392098009586334,-0.05110124126076698
1761402223699909000,2.5859091796875,9.789965629577637,0.07511807978153229,-0.06067804992198944
1761402223709989600,2.59598974609375,9.787646293640137,0.06793547421693802,-0.05349544435739517
1761402223720045800,2.6060458984375,9.797147750854492,0.0644189864397049,-0.05357026308774948
1761402223730108700,2.616108642578125,9.790414810180664,0.07287351787090302,-0.050128597766160965
1761402223740226300,2.626226318359375,9.784428596496582,0.06928221136331558,-0.050053779035806656
1761402223750314200,2.636314208984375,9.784428596496582,0.07047931104898453,-0.04646247625350952
1761402223760395500,2.6463955078125,9.784428596496582,0.06808511167764664,-0.04646247625350952
1761402223770451500,2.656451416015625,9.785626411437988,0.0644938051700592,-0.05603928491473198
1761402223780521200,2.666521240234375,9.789216995239258,0.07167641073465347,-0.04653729498386383
1761402223790598400,2.676598388671875,9.785626411437988,0.06329670548439026,-0.05603928491473198
1761402223800715500,2.686715576171875,9.782034873962402,0.07638999819755554,-0.05843348428606987
1761402223810800400,2.69680029296875,9.785326957702637,0.07040449231863022,-0.05596446618437767
1761402223820856300,2.706856201171875,9.791312217712402,0.06681319326162338,-0.05117605999112129
1761402223830962400,2.71696240234375,9.78293228149414,0.06561609357595444,-0.06067804992198944
1761402223841022700,2.727022705078125,9.784130096435547,0.06681319326162338,-0.05117605999112129
1761402223851118800,2.737118896484375,9.794903755187988,0.06681319326162338,-0.05357026308774948
1761402223861159200,2.7471591796875,9.794903755187988,0.06920739263296127,-0.05357026308774948
1761402223871287600,2.75728759765625,9.792509078979492,0.062024787068367004,-0.05357026308774948
1761402223881368300,2.767368408203125,9.787720680236816,0.07399579882621765,-0.05357026308774948
1761402223891449000,2.777448974609375,9.792509078979492,0.07040449231863022,-0.05835866555571556
1761402223901530000,2.787530029296875,9.794978141784668,0.07638999819755554,-0.04638765752315521
1761402223911585800,2.797585693359375,9.786523818969727,0.06920739263296127,-0.05357026308774948
1761402223921688300,2.807688232421875,9.786523818969727,0.0644189864397049,-0.04997896030545235
1761402223931773400,2.8177734375,9.793706893920898,0.0751928985118866,-0.057161565870046616
1761402223941854500,2.8278544921875,9.788918495178223,0.07638999819755554,-0.052373163402080536
1761402223951935500,2.837935546875,9.787796020507812,0.07631517946720123,-0.04399345442652702
1761402223962011600,2.84801171875,9.780538558959961,0.06673837453126907,-0.05349544435739517
1761402223972097800,2.858097900390625,9.791237831115723,0.061949968338012695,-0.0463128387928009
1761402223982178600,2.868178466796875,9.78525161743164,0.07751227915287018,-0.04990414157509804
1761402223992256000,2.878256103515625,9.790040016174316,0.0727238729596138,-0.04990414157509804
1761402224002340900,2.8883408203125,9.798345565795898,0.07040449231863022,-0.057086747139692307
1761402224012422000,2.898421875,9.792434692382812,0.07032967358827591,-0.04750993847846985
1761402224022503200,2.908503173828125,9.778069496154785,0.07743746042251587,-0.04982932284474373
1761402224032584200,2.918584228515625,9.793557167053223,0.06554127484560013,-0.05588964745402336
1761402224042665000,2.9286650390625,9.779191970825195,0.06075286865234375,-0.06180033087730408
1761402224052742100,2.9387421875,9.789366722106934,0.07055412977933884,-0.054917000234127045
1761402224062827300,2.9488271484375,9.79176139831543,0.06815993040800095,-0.0537199005484581
1761402224072908500,2.958908447265625,9.79415512084961,0.07055412977933884,-0.05379471927881241
1761402224082989600,2.968989501953125,9.780987739562988,0.06808511167764664,-0.050128597766160965
1761402224093070600,2.979070556640625,9.790489196777344,0.07414543628692627,-0.06329670548439026
1761402224103151600,2.989151611328125,9.795352935791016,0.07414543628692627,-0.050203416496515274
1761402224113232600,2.999232666015625,9.784578323364258,0.06576573103666306,-0.05611410364508629
1761402224123310000,3.00931005859375,9.784578323364258,0.06815993040800095,-0.057311203330755234
1761402224133394700,3.019394775390625,9.787646293640137,0.07032967358827591,-0.04870704188942909
1761402224143476000,3.02947607421875,9.794754028320312,0.07032967358827591,-0.05229834467172623
1761402224153557200,3.03955712890625,9.787646293640137,0.06793547421693802,-0.0463128387928009
1761402224163638000,3.049637939453125,9.78405475616455,0.07152677327394485,-0.0463128387928009
1761402224173719300,3.05971923828125,9.787646293640137,0.06913257390260696,-0.04870704188942909
1761402224183796500,3.06979638671875,9.78525161743164,0.06913257390260696,-0.05469254404306412
1761402224193881300,3.07988134765625,9.792434692382812,0.07032967358827591,-0.04990414157509804
1761402224203962400,3.08996240234375,9.792359352111816,0.07511807978153229,-0.05828384682536125
1761402224214043600,3.100043701171875,9.795950889587402,0.07152677327394485,-0.05229834467172623
1761402224224124400,3.11012451171875,9.792434692382812,0.06913257390260696,-0.04750993847846985
1761402224234180600,3.1201806640625,9.782857894897461,0.07631517946720123,-0.05349544435739517
1761402224244284000,3.130283935546875,9.787646293640137,0.06554127484560013,-0.05349544435739517
1761402224254368000,3.140367919921875,9.787646293640137,0.06554127484560013,-0.05229834467172623
1761402224264449000,3.150448974609375,9.799616813659668,0.0727238729596138,-0.04519055783748627
1761402224274530000,3.160530029296875,9.790040016174316,0.06434416770935059,-0.05229834467172623
1761402224284611000,3.170611083984375,9.792434692382812,0.06075286865234375,-0.04870704188942909
1761402224294692400,3.1806923828125,9.790040016174316,0.06913257390260696,-0.0463128387928009
1761402224304773400,3.1907734375,9.792434692382812,0.07032967358827591,-0.0463128387928009
1761402224314854400,3.2008544921875,9.791237831115723,0.07511807978153229,-0.04870704188942909
1761402224324935200,3.21093505859375,9.790040016174316,0.061949968338012695,-0.05110124126076698
1761402224335016400,3.221016357421875,9.797147750854492,0.07392098009586334,-0.05349544435739517
1761402224345098000,3.231097900390625,9.788768768310547,0.07870937883853912,-0.059480950236320496
1761402224355170000,3.241170166015625,9.790040016174316,0.06913257390260696,-0.05349544435739517
1761402224365259800,3.251259765625,9.781661033630371,0.06793547421693802,-0.05110124126076698
1761402224375341300,3.26134130859375,9.788918495178223,0.0727986991405487,-0.04997896030545235
1761402224385421800,3.271421875,9.791312217712402,0.06920739263296127,-0.052373163402080536
1761402224395478300,3.281478271484375,9.790115356445312,0.07160159200429916,-0.052373163402080536
1761402224405563100,3.291563232421875,9.774553298950195,0.06554127484560013,-0.057086747139692307
1761402224415665000,3.301664794921875,9.788918495178223,0.07638999819755554,-0.057161565870046616
1761402224425746200,3.31174609375,9.797297477722168,0.07399579882621765,-0.05596446618437767
1761402224435827200,3.3218271484375,9.787796020507812,0.07160159200429916,-0.04997896030545235
1761402224445885400,3.331885498046875,9.785401344299316,0.07392098009586334,-0.04758475720882416
1761402224455989200,3.3419892578125,9.79752254486084,0.07287351787090302,-0.05850830301642418
1761402224466070000,3.352070068359375,9.79879379272461,0.07885901629924774,-0.04893149808049202
1761402224476126500,3.36212646484375,9.780838012695312,0.0751928985118866,-0.045265376567840576
1761402224486232600,3.372232666015625,9.784428596496582,0.06688801199197769,-0.057236384600400925
1761402224496290000,3.3822900390625,9.792808532714844,0.07047931104898453,-0.05611410364508629
1761402224506384600,3.392384521484375,9.789216995239258,0.07287351787090302,-0.05364508181810379
1761402224516475600,3.4024755859375,9.79640007019043,0.0776619166135788,-0.05611410364508629
1761402224526557000,3.412556884765625,9.788020133972168,0.0776619166135788,-0.050053779035806656
1761402224536638200,3.42263818359375,9.79752254486084,0.06815993040800095,-0.05850830301642418
1761402224546719700,3.4327197265625,9.786823272705078,0.06808511167764664,-0.04765957593917847
1761402224556800300,3.44280029296875,9.790414810180664,0.0644938051700592,-0.050128597766160965
1761402224566881000,3.452881103515625,9.791611671447754,0.06569091230630875,-0.04893149808049202
1761402224576962000,3.462962158203125,9.80111312866211,0.06337152421474457,-0.05850830301642418
1761402224587043300,3.473043212890625,9.790414810180664,0.06688801199197769,-0.0537199005484581
1761402224597124600,3.48312451171875,9.785626411437988,0.06688801199197769,-0.057236384600400925
1761402224607206100,3.4932060546875,9.786823272705078,0.05850830301642418,-0.05364508181810379
1761402224617286700,3.50328662109375,9.790115356445312,0.06801029294729233,-0.04997896030545235
1761402224627367700,3.51336767578125,9.794903755187988,0.0727986991405487,-0.05835866555571556
1761402224637448700,3.52344873046875,9.790115356445312,0.0644189864397049,-0.05357026308774948
1761402224647529700,3.53352978515625,9.797297477722168,0.06090250611305237,-0.059555768966674805
1761402224657611000,3.543611083984375,9.790189743041992,0.07751227915287018,-0.04758475720882416
1761402224667691800,3.55369189453125,9.784204483032227,0.07032967358827591,-0.04519055783748627
1761402224677773000,3.56377294921875,9.796100616455078,0.0727986991405487,-0.04758475720882416
1761402224687853800,3.573853759765625,9.793706893920898,0.07399579882621765,-0.052373163402080536
1761402224697935000,3.58393505859375,9.797147750854492,0.07032967358827591,-0.05117605999112129
1761402224708012500,3.594012451171875,9.794828414916992,0.06554127484560013,-0.04870704188942909
1761402224718093300,3.60409326171875,9.794754028320312,0.07032967358827591,-0.05349544435739517
1761402224728175400,3.61417529296875,9.786449432373047,0.06913257390260696,-0.04870704188942909
1761402224738244900,3.624244873046875,9.787646293640137,0.06913257390260696,-0.05349544435739517
1761402224748315400,3.6343154296875,9.776872634887695,0.06905775517225266,-0.04743511974811554
1761402224758418000,3.64441796875,9.780463218688965,0.06913257390260696,-0.0463128387928009
1761402224768503000,3.6545029296875,9.782857894897461,0.06554127484560013,-0.05469254404306412
1761402224778583600,3.66458349609375,9.792509078979492,0.062024787068367004,-0.05357026308774948
1761402224788665000,3.6746650390625,9.791387557983398,0.07040449231863022,-0.04758475720882416
1761402224798745900,3.684745849609375,9.792509078979492,0.07040449231863022,-0.0487818606197834
1761402224808827000,3.694826904296875,9.791312217712402,0.07040449231863022,-0.054767362773418427
1761402224818904000,3.704904052734375,9.784130096435547,0.0644189864397049,-0.052373163402080536
1761402224828989200,3.7149892578125,9.785401344299316,0.06913257390260696,-0.04519055783748627
1761402224839070200,3.7250703125,9.793706893920898,0.06920739263296127,-0.059555768966674805
1761402224849152300,3.73515234375,9.788992881774902,0.07870937883853912,-0.04519055783748627
1761402224859217700,3.7452177734375,9.785626411437988,0.07407061755657196,-0.05603928491473198
1761402224869313500,3.7553134765625,9.789216995239258,0.07646481692790985,-0.045340195298194885
1761402224879370000,3.765369873046875,9.789216995239258,0.07287351787090302,-0.052447982132434845
1761402224889475600,3.7754755859375,9.780838012695312,0.07638999819755554,-0.04765957593917847
1761402224899556600,3.785556640625,9.785626411437988,0.07407061755657196,-0.05843348428606987
1761402224909638000,3.795637939453125,9.777246475219727,0.07040449231863022,-0.052447982132434845
1761402224919719000,3.805718994140625,9.783231735229492,0.06688801199197769,-0.057236384600400925
1761402224929789200,3.8157890625,9.794005393981934,0.06569091230630875,-0.057311203330755234
1761402224939881200,3.825881103515625,9.786599159240723,0.07392098009586334,-0.04997896030545235
1761402224949958100,3.835958251953125,9.792509078979492,0.07160159200429916,-0.05596446618437767
1761402224960043000,3.84604296875,9.787720680236816,0.06681319326162338,-0.04997896030545235
1761402224970099000,3.856098876953125,9.792509078979492,0.06561609357595444,-0.054767362773418427
1761402224980172000,3.866172119140625,9.793781280517578,0.07998129725456238,-0.04638765752315521
1761402224990261500,3.876261474609375,9.787720680236816,0.06681319326162338,-0.04997896030545235
1761402225000367400,3.886367431640625,9.786599159240723,0.06801029294729233,-0.04519055783748627
1761402225010444500,3.896444580078125,9.78293228149414,0.06793547421693802,-0.05229834467172623
1761402225020529700,3.90652978515625,9.786673545837402,0.07040449231863022,-0.05357026308774948
1761402225030610400,3.9166103515625,9.795053482055664,0.07287351787090302,-0.057236384600400925
1761402225040691700,3.926691650390625,9.783082008361816,0.0727986991405487,-0.052373163402080536
1761402225050773000,3.93677294921875,9.786673545837402,0.07040449231863022,-0.06314706802368164
1761402225060854000,3.94685400390625,9.789067268371582,0.06090250611305237,-0.054842181503772736
1761402225070934800,3.956934814453125,9.791461944580078,0.06928221136331558,-0.059630587697029114
1761402225081012200,3.96701220703125,9.805827140808105,0.06569091230630875,-0.054917000234127045
1761402225091096800,3.977096923828125,9.787870407104492,0.07040449231863022,-0.05596446618437767
1761402225101158000,3.987157958984375,9.798495292663574,0.06681319326162338,-0.05357026308774948
1761402225111259600,3.997259765625,9.784130096435547,0.07392098009586334,-0.05349544435739517
1761402225121340400,4.00734033203125,9.790115356445312,0.06322188675403595,-0.052373163402080536
1761402225131397000,4.017397216796875,9.791312217712402,0.06801029294729233,-0.05835866555571556
1761402225141498600,4.02749853515625,9.784130096435547,0.06561609357595444,-0.05596446618437767
1761402225151583200,4.037583251953125,9.791312217712402,0.07040449231863022,-0.05596446618437767
1761402225161665000,4.0476650390625,9.790115356445312,0.0751928985118866,-0.05357026308774948
1761402225171745500,4.05774560546875,9.797297477722168,0.06920739263296127,-0.059555768966674805
1761402225181826800,4.067826904296875,9.797223091125488,0.07392098009586334,-0.0487818606197834
1761402225191907800,4.077907958984375,9.788843154907227,0.06913257390260696,-0.05229834467172623
1761402225201985000,4.087985107421875,9.791162490844727,0.07152677327394485,-0.057086747139692307
1761402225212070100,4.098070068359375,9.790040016174316,0.06793547421693802,-0.05110124126076698
1761402225222151000,4.10815087890625,9.791237831115723,0.06673837453126907,-0.05229834467172623
1761402225232232000,4.11823193359375,9.789965629577637,0.06314706802368164,-0.057086747139692307
1761402225242313700,4.128313720703125,9.790040016174316,0.07032967358827591,-0.04511573910713196
1761402225252394500,4.13839453125,9.790040016174316,0.07392098009586334,-0.04511573910713196
1761402225262475300,4.148475341796875,9.786449432373047,0.0727238729596138,-0.05469254404306412
1761402225272552700,4.158552734375,9.780463218688965,0.06913257390260696,-0.05342062562704086
1761402225282637300,4.16863720703125,9.792359352111816,0.07751227915287018,-0.05828384682536125
1761402225292718600,4.178718505859375,9.781585693359375,0.06554127484560013,-0.059406131505966187
1761402225302800000,4.1887998046875,9.782857894897461,0.06793547421693802,-0.05588964745402336
1761402225312880600,4.198880615234375,9.790040016174316,0.07392098009586334,-0.05110124126076698
1761402225322962000,4.2089619140625,9.794828414916992,0.07392098009586334,-0.04750993847846985
1761402225333038800,4.219038818359375,9.786449432373047,0.06793547421693802,-0.04750993847846985
1761402225343124000,4.2291240234375,9.793706893920898,0.06681319326162338,-0.059555768966674805
1761402225353205500,4.23920556640625,9.798495292663574,0.06561609357595444,-0.05835866555571556
1761402225363286500,4.24928662109375,9.796100616455078,0.0727986991405487,-0.05596446618437767
1761402225373367000,4.259366943359375,9.784130096435547,0.06322188675403595,-0.05596446618437767
1761402225383423000,4.269423095703125,9.790115356445312,0.07399579882621765,-0.04997896030545235
1761402225393486800,4.27948681640625,9.785401344299316,0.06801029294729233,-0.0487818606197834
1761402225403606300,4.289606201171875,9.793706893920898,0.08237550407648087,-0.04997896030545235
1761402225413691600,4.299691650390625,9.788918495178223,0.07040449231863022,-0.059555768966674805
1761402225423747300,4.309747314453125,9.793481826782227,0.07032967358827591,-0.05222352594137192
1761402225433854000,4.31985400390625,9.78989028930664,0.06554127484560013,-0.05581482872366905
1761402225443909600,4.32990966796875,9.794678688049316,0.06554127484560013,-0.05229834467172623
1761402225454016300,4.340016357421875,9.788619041442871,0.061949968338012695,-0.059406131505966187
1761402225464093200,4.35009326171875,9.794604301452637,0.06554127484560013,-0.05820902809500694
1761402225474178000,4.360177978515625,9.792284965515137,0.07392098009586334,-0.057011928409338
1761402225484259000,4.370259033203125,9.792284965515137,0.06793547421693802,-0.05461772531270981
1761402225494340000,4.380340087890625,9.795801162719727,0.06793547421693802,-0.059406131505966187
1761402225504420900,4.3904208984375,9.796998977661133,0.0727238729596138,-0.057086747139692307
1761402225514502100,4.400502197265625,9.7791166305542,0.06666355580091476,-0.05461772531270981
1761402225524583700,4.410583740234375,9.800664901733398,0.06434416770935059,-0.04990414157509804
1761402225534664400,4.42066455078125,9.78989028930664,0.07264905422925949,-0.05581482872366905
1761402225544720100,4.43072021484375,9.783905029296875,0.06426934897899628,-0.05581482872366905
1761402225554806000,4.440805908203125,9.785101890563965,0.07624036073684692,-0.05222352594137192
1761402225564908000,4.450907958984375,9.78989028930664,0.061949968338012695,-0.041524436324834824
1761402225574988500,4.460988525390625,9.792210578918457,0.0727238729596138,-0.06419453024864197
1761402225585029400,4.471029296875,9.792808532714844,0.08364742249250412,-0.05843348428606987
1761402225595151400,4.4811513671875,9.792808532714844,0.0752677172422409,-0.04893149808049202
1761402225605232400,4.491232421875,9.788020133972168,0.0752677172422409,-0.04885667935013771
1761402225615312600,4.501312744140625,9.792808532714844,0.07646481692790985,-0.0537199005484581
1761402225625394200,4.511394287109375,9.785626411437988,0.05970540642738342,-0.05364508181810379
1761402225635475200,4.52147509765625,9.788020133972168,0.0644938051700592,-0.047734394669532776
1761402225645576400,4.531576416015625,9.799991607666016,0.0752677172422409,-0.052522800862789154
1761402225655663600,4.54166357421875,9.786823272705078,0.06688801199197769,-0.05843348428606987
1761402225665718500,4.551718505859375,9.791237831115723,0.07152677327394485,-0.04990414157509804
1761402225675774200,4.561774169921875,9.789965629577637,0.06793547421693802,-0.05349544435739517
1761402225685880600,4.571880615234375,9.795950889587402,0.06913257390260696,-0.05349544435739517
1761402225695961300,4.58196142578125,9.78405475616455,0.06793547421693802,-0.05349544435739517
1761402225706042600,4.592042724609375,9.78757095336914,0.07392098009586334,-0.05828384682536125
1761402225716123400,4.602123291015625,9.787646293640137,0.07032967358827591,-0.04511573910713196
1761402225726205000,4.612204833984375,9.781661033630371,0.06673837453126907,-0.05349544435739517
1761402225736285700,4.62228564453125,9.792434692382812,0.07152677327394485,-0.05110124126076698
1761402225746367700,4.63236767578125,9.788918495178223,0.07040449231863022,-0.057161565870046616
1761402225756448000,4.642447998046875,9.785326957702637,0.06801029294729233,-0.057161565870046616
1761402225766525200,4.652525146484375,9.784204483032227,0.0727238729596138,-0.04997896030545235
1761402225776610600,4.662610595703125,9.791312217712402,0.06920739263296127,-0.05117605999112129
1761402225786691300,4.67269140625,9.787720680236816,0.07160159200429916,-0.05357026308774948
1761402225796737000,4.682737060546875,9.797297477722168,0.0727986991405487,-0.057161565870046616
1761402225806853600,4.692853515625,9.792509078979492,0.06681319326162338,-0.05357026308774948
1761402225816909000,4.702908935546875,9.791312217712402,0.0727986991405487,-0.052373163402080536
1761402225827015400,4.713015380859375,9.784130096435547,0.06322188675403595,-0.052373163402080536
1761402225837096700,4.7230966796875,9.787720680236816,0.06322188675403595,-0.054767362773418427
1761402225847176000,4.733176025390625,9.783007621765137,0.06793547421693802,-0.0487818606197834
1761402225857257200,4.74325732421875,9.78293228149414,0.07152677327394485,-0.05349544435739517
1761402225877421600,4.763421630859375,9.787720680236816,0.06920739263296127,-0.05835866555571556
1761402225887502000,4.773502197265625,9.784204483032227,0.06434416770935059,-0.04279635474085808
1761402225897584000,4.783584228515625,9.790115356445312,0.06322188675403595,-0.04758475720882416
1761402225907664100,4.7936640625,9.78173542022705,0.0644189864397049,-0.05828384682536125
1761402225917745700,4.80374560546875,9.787720680236816,0.07870937883853912,-0.057161565870046616
1761402225927826700,4.81382666015625,9.796100616455078,0.0751928985118866,-0.04638765752315521
1761402225937882400,4.82388232421875,9.787720680236816,0.07160159200429916,-0.05596446618437767
1761402225947994000,4.833994140625,9.786523818969727,0.0727986991405487,-0.05357026308774948
1761402225958055700,4.8440556640625,9.786523818969727,0.07160159200429916,-0.05357026308774948
1761402225968147000,4.85414697265625,9.788918495178223,0.06801029294729233,-0.052373163402080536
1761402225978230000,4.86422998046875,9.787720680236816,0.07399579882621765,-0.061875149607658386
1761402225988312800,4.874312744140625,9.793481826782227,0.06673837453126907,-0.04750993847846985
1761402225998394400,4.884394287109375,9.78989028930664,0.061949968338012695,-0.04743511974811554
1761402226008475100,4.89447509765625,9.786299705505371,0.07384616136550903,-0.05342062562704086
1761402226018543900,4.9045439453125,9.795801162719727,0.06673837453126907,-0.06180033087730408
1761402226028637200,4.91463720703125,9.797073364257812,0.0727238729596138,-0.04990414157509804
1761402226038715000,4.92471484375,9.78869342803955,0.0702548548579216,-0.05581482872366905
1761402226048799200,4.93479931640625,9.787496566772461,0.07264905422925949,-0.04863222315907478
1761402226058880300,4.94488037109375,9.783905029296875,0.07384616136550903,-0.04982932284474373
1761402226068961800,4.9549619140625,9.785401344299316,0.07751227915287018,-0.052373163402080536
1761402226079011600,4.965011474609375,9.790115356445312,0.0727986991405487,-0.05357026308774948
1761402226089124400,4.975124267578125,9.790115356445312,0.07399579882621765,-0.052373163402080536
1761402226099200800,4.98520068359375,9.791312217712402,0.07040449231863022,-0.05357026308774948
1761402226109286000,4.995285888671875,9.78293228149414,0.06801029294729233,-0.059480950236320496
1761402226119367000,5.005366943359375,9.790115356445312,0.07758709788322449,-0.054767362773418427
1761402226129422600,5.015422607421875,9.790189743041992,0.0644189864397049,-0.04638765752315521
1761402226139529200,5.025529296875,9.781810760498047,0.06913257390260696,-0.04990414157509804
1761402226149588000,5.035587890625,9.797073364257812,0.06314706802368164,-0.05110124126076698
1761402226159687000,5.04568701171875,9.785101890563965,0.06307224929332733,-0.05581482872366905
1761402226169772800,5.055772705078125,9.793481826782227,0.07152677327394485,-0.04870704188942909
1761402226179853600,5.065853515625,9.79101276397705,0.06913257390260696,-0.06060323119163513
1761402226189908500,5.075908447265625,9.792284965515137,0.0727238729596138,-0.051026422530412674
1761402226200015000,5.08601513671875,9.792284965515137,0.0702548548579216,-0.04511573910713196
1761402226210096600,5.0960966796875,9.792284965515137,0.06075286865234375,-0.0463128387928009
1761402226220178000,5.106177978515625,9.793407440185547,0.06434416770935059,-0.05581482872366905
1761402226230254800,5.1162548828125,9.788768768310547,0.07511807978153229,-0.05588964745402336
1761402226240340200,5.12634033203125,9.78405475616455,0.07511807978153229,-0.05469254404306412
1761402226250420700,5.136420654296875,9.78757095336914,0.06793547421693802,-0.05828384682536125
1761402226260501800,5.146501708984375,9.798345565795898,0.06920739263296127,-0.059480950236320496
1761402226270582800,5.156582763671875,9.783980369567871,0.07392098009586334,-0.05828384682536125
1761402226280664000,5.1666640625,9.78757095336914,0.061949968338012695,-0.05469254404306412
1761402226290741200,5.1767412109375,9.789965629577637,0.06793547421693802,-0.057086747139692307
1761402226300826600,5.18682666015625,9.800814628601074,0.06561609357595444,-0.04638765752315521
1761402226310907100,5.1969072265625,9.790265083312988,0.0751928985118866,-0.05843348428606987
1761402226320989000,5.206989013671875,9.793856620788574,0.0644938051700592,-0.05364508181810379
1761402226331070000,5.217070068359375,9.780688285827637,0.07399579882621765,-0.061949968338012695
1761402226341126000,5.2271259765625,9.791461944580078,0.0727986991405487,-0.0512508787214756
1761402226351231500,5.2372314453125,9.785551071166992,0.07758709788322449,-0.04758475720882416
1761402226361308400,5.247308349609375,9.790265083312988,0.0644938051700592,-0.052447982132434845
1761402226371393500,5.2573935546875,9.789067268371582,0.0727986991405487,-0.04765957593917847
1761402226381475000,5.26747509765625,9.787870407104492,0.06681319326162338,-0.057161565870046616
1761402226391555800,5.277555908203125,9.790115356445312,0.06920739263296127,-0.059555768966674805
1761402226401636900,5.287636962890625,9.775824546813965,0.06434416770935059,-0.04870704188942909
1761402226411718000,5.2977177734375,9.786523818969727,0.06801029294729233,-0.059555768966674805
1761402226421795300,5.30779541015625,9.791312217712402,0.06801029294729233,-0.04997896030545235
1761402226431880000,5.3178798828125,9.799692153930664,0.06329670548439026,-0.05364508181810379
1761402226441961200,5.327961181640625,9.786599159240723,0.07152677327394485,-0.04638765752315521
1761402226452042800,5.338042724609375,9.787720680236816,0.06920739263296127,-0.054767362773418427
1761402226462123300,5.348123291015625,9.792509078979492,0.07160159200429916,-0.05117605999112129
1761402226472204500,5.35820458984375,9.792434692382812,0.06554127484560013,-0.05110124126076698
1761402226482281700,5.36828173828125,9.78525161743164,0.06554127484560013,-0.04870704188942909
1761402226492366300,5.378366455078125,9.800739288330078,0.07399579882621765,-0.052373163402080536
1761402226502448000,5.3884482421875,9.786449432373047,0.07152677327394485,-0.04272153601050377
1761402226512529000,5.39852880859375,9.78525161743164,0.06793547421693802,-0.04990414157509804
1761402226522609700,5.408609619140625,9.799542427062988,0.06801029294729233,-0.04997896030545235
1761402226532665900,5.418665771484375,9.790040016174316,0.06673837453126907,-0.05229834467172623
1761402226542771700,5.428771728515625,9.787646293640137,0.07392098009586334,-0.04750993847846985
1761402226552849000,5.438848876953125,9.790414810180664,0.0644938051700592,-0.0537199005484581
1761402226562912500,5.44891259765625,9.796324729919434,0.06935703009366989,-0.05850830301642418
1761402226573015300,5.459015380859375,9.790414810180664,0.06928221136331558,-0.05132569745182991
1761402226583071200,5.4690712890625,9.785626411437988,0.06329670548439026,-0.0512508787214756
1761402226593177300,5.47917724609375,9.79640007019043,0.06456862390041351,-0.05611410364508629
1761402226603259000,5.4892587890625,9.79520320892334,0.06456862390041351,-0.054917000234127045
1761402226613336000,5.499336181640625,9.791611671447754,0.0776619166135788,-0.057236384600400925
1761402226623421000,5.5094208984375,9.802385330200195,0.066962830722332,-0.047734394669532776
1761402226633501700,5.519501708984375,9.794903755187988,0.06920739263296127,-0.054767362773418427
1761402226643566800,5.52956689453125,9.78293228149414,0.062024787068367004,-0.05357026308774948
1761402226653659100,5.5396591796875,9.787720680236816,0.06801029294729233,-0.052373163402080536
1761402226663745000,5.5497451171875,9.790115356445312,0.06801029294729233,-0.05117605999112129
1761402226673826000,5.559825927734375,9.787796020507812,0.06920739263296127,-0.0487818606197834
1761402226683903000,5.569903076171875,9.793706893920898,0.08117840439081192,-0.05596446618437767
1761402226693987800,5.57998779296875,9.793706893920898,0.0644189864397049,-0.05117605999112129
1761402226704068900,5.59006884765625,9.792509078979492,0.07399579882621765,-0.05596446618437767
1761402226714150100,5.600150146484375,9.791162490844727,0.06913257390260696,-0.05828384682536125
1761402226724231200,5.610231201171875,9.787646293640137,0.07152677327394485,-0.05469254404306412
1761402226734312400,5.6203125,9.788843154907227,0.07032967358827591,-0.05349544435739517
1761402226744394200,5.630394287109375,9.791237831115723,0.07631517946720123,-0.04990414157509804
1761402226754474500,5.640474609375,9.791237831115723,0.0727238729596138,-0.04990414157509804
1761402226764555500,5.650555419921875,9.787646293640137,0.07032967358827591,-0.05349544435739517
1761402226774637000,5.660636962890625,9.791237831115723,0.06554127484560013,-0.04750993847846985
1761402226784708600,5.67070849609375,9.789965629577637,0.07392098009586334,-0.05469254404306412
1761402226794799600,5.680799560546875,9.789216995239258,0.0752677172422409,-0.05364508181810379
1761402226804880400,5.69088037109375,9.788020133972168,0.07047931104898453,-0.052447982132434845
1761402226814961700,5.700961669921875,9.785626411437988,0.06808511167764664,-0.04885667935013771
1761402226825042000,5.7110419921875,9.788020133972168,0.06928221136331558,-0.05364508181810379
1761402226835123500,5.72112353515625,9.793931007385254,0.07407061755657196,-0.06082768738269806
1761402226845204700,5.731204833984375,9.785626411437988,0.07287351787090302,-0.045265376567840576
1761402226855285500,5.741285400390625,9.786823272705078,0.0644938051700592,-0.05364508181810379
1761402226865366300,5.7513662109375,9.785626411437988,0.07885901629924774,-0.0512508787214756
1761402226875447800,5.76144775390625,9.795053482055664,0.07407061755657196,-0.05843348428606987
1761402226885528800,5.77152880859375,9.795053482055664,0.07998129725456238,-0.0512508787214756
1761402226895609600,5.781609619140625,9.789067268371582,0.05850830301642418,-0.05843348428606987
1761402226905706200,5.791706298828125,9.787870407104492,0.07638999819755554,-0.054767362773418427
1761402226915771400,5.801771484375,9.792658805847168,0.0644938051700592,-0.05843348428606987
1761402226925827800,5.811827880859375,9.783082008361816,0.06920739263296127,-0.05117605999112129
1761402226935934000,5.821933837890625,9.786673545837402,0.07399579882621765,-0.04765957593917847
1761402226946015700,5.832015625,9.790265083312988,0.06808511167764664,-0.05843348428606987
1761402226956054300,5.84205419921875,9.781885147094727,0.0727986991405487,-0.05596446618437767
1761402226966177000,5.852177001953125,9.791461944580078,0.07160159200429916,-0.045265376567840576
1761402226976257500,5.862257568359375,9.787870407104492,0.0644938051700592,-0.06314706802368164
1761402226986339000,5.872339111328125,9.786673545837402,0.07160159200429916,-0.054767362773418427
1761402226996420400,5.88242041015625,9.784278869628906,0.07758709788322449,-0.05357026308774948
1761402227006502000,5.892501953125,9.792658805847168,0.06928221136331558,-0.054842181503772736
1761402227016582100,5.90258203125,9.787870407104492,0.06920739263296127,-0.052447982132434845
1761402227026663400,5.912663330078125,9.786673545837402,0.06681319326162338,-0.057161565870046616
1761402227036724000,5.922723876953125,9.787720680236816,0.07631517946720123,-0.052373163402080536
1761402227046795000,5.932794921875,9.794903755187988,0.06801029294729233,-0.05117605999112129
1761402227056906800,5.94290673828125,9.78173542022705,0.059630587697029114,-0.05349544435739517
1761402227066988000,5.952988037109375,9.792509078979492,0.07399579882621765,-0.05117605999112129
1761402227077068800,5.96306884765625,9.787720680236816,0.07751227915287018,-0.05596446618437767
1761402227087150000,5.973150146484375,9.783007621765137,0.0727238729596138,-0.04758475720882416
1761402227097230800,5.98323095703125,9.788918495178223,0.06322188675403595,-0.052373163402080536
1761402227107312000,5.99331201171875,9.791312217712402,0.06561609357595444,-0.052373163402080536
1761402227117393200,6.00339306640625,9.795950889587402,0.06082768738269806,-0.05469254404306412
1761402227127474200,6.01347412109375,9.791237831115723,0.07032967358827591,-0.05110124126076698
1761402227137555200,6.02355517578125,9.793557167053223,0.06920739263296127,-0.06546645611524582
1761402227147637000,6.033636962890625,9.790040016174316,0.06793547421693802,-0.04990414157509804
1761402227157717500,6.043717529296875,9.788843154907227,0.07392098009586334,-0.04870704188942909
1761402227177879600,6.063879638671875,9.78405475616455,0.06434416770935059,-0.04870704188942909
1761402227187935500,6.073935546875,9.789965629577637,0.07152677327394485,-0.05469254404306412
1761402227198039800,6.084039794921875,9.779341697692871,0.06673837453126907,-0.05469254404306412
1761402227208118800,6.094118896484375,9.787796020507812,0.07990647852420807,-0.05117605999112129
1761402227218202400,6.104202392578125,9.791312217712402,0.06681319326162338,-0.05117605999112129
1761402227228285000,6.114284912109375,9.786523818969727,0.07160159200429916,-0.054767362773418427
1761402227238366000,6.124365966796875,9.790115356445312,0.06920739263296127,-0.0487818606197834
1761402227248443100,6.134443115234375,9.794903755187988,0.07758709788322449,-0.052373163402080536
1761402227258503400,6.14450341796875,9.80328369140625,0.07047931104898453,-0.059555768966674805
1761402227268609500,6.154609619140625,9.786523818969727,0.0727986991405487,-0.05596446618437767
1761402227278690000,6.16468994140625,9.781511306762695,0.06786065548658371,-0.057011928409338
1761402227288771600,6.174771484375,9.781511306762695,0.07145195454359055,-0.05581482872366905
1761402227298851800,6.184851806640625,9.795876502990723,0.06913257390260696,-0.05349544435739517
1761402227308933600,6.19493359375,9.797073364257812,0.07511807978153229,-0.04990414157509804
1761402227319011000,6.205010986328125,9.795876502990723,0.07032967358827591,-0.04870704188942909
1761402227329096000,6.215095947265625,9.793481826782227,0.07743746042251587,-0.05461772531270981
1761402227339176700,6.2251767578125,9.793481826782227,0.0727238729596138,-0.05461772531270981
1761402227349258200,6.23525830078125,9.7791166305542,0.06546645611524582,-0.04863222315907478
1761402227359334000,6.245333984375,9.784130096435547,0.06082768738269806,-0.05357026308774948
1761402227369420000,6.255419921875,9.78061294555664,0.06793547421693802,-0.05229834467172623
1761402227379497200,6.265497314453125,9.790115356445312,0.07040449231863022,-0.04997896030545235
1761402227389582300,6.275582275390625,9.781810760498047,0.07152677327394485,-0.05110124126076698
1761402227399663000,6.2856630859375,9.779341697692871,0.06913257390260696,-0.061875149607658386
1761402227409744400,6.295744384765625,9.786523818969727,0.06920739263296127,-0.061875149607658386
1761402227419825700,6.30582568359375,9.791312217712402,0.06681319326162338,-0.04997896030545235
1761402227429906400,6.315906494140625,9.783007621765137,0.07032967358827591,-0.04758475720882416
1761402227439983600,6.325983642578125,9.792808532714844,0.06329670548439026,-0.047734394669532776
1761402227450068000,6.33606787109375,9.796324729919434,0.06576573103666306,-0.062099605798721313
1761402227460149500,6.3461494140625,9.792808532714844,0.07407061755657196,-0.052522800862789154
1761402227470230800,6.356230712890625,9.79871940612793,0.06935703009366989,-0.05850830301642418
1761402227480311600,6.3663115234375,9.790414810180664,0.06808511167764664,-0.05603928491473198
1761402227490392800,6.376392822265625,9.792808532714844,0.07167641073465347,-0.04414309561252594
1761402227500448500,6.386448486328125,9.786823272705078,0.07407061755657196,-0.0512508787214756
1761402227510551000,6.396551025390625,9.785626411437988,0.0776619166135788,-0.052447982132434845
1761402227520635600,6.4066357421875,9.785326957702637,0.07032967358827591,-0.052373163402080536
1761402227530694000,6.41669384765625,9.794903755187988,0.0644189864397049,-0.05117605999112129
1761402227540772600,6.426772705078125,9.780538558959961,0.06314706802368164,-0.05349544435739517
1761402227550879200,6.436879150390625,9.787796020507812,0.0644189864397049,-0.0487818606197834
1761402227560960500,6.44696044921875,9.778219223022461,0.07392098009586334,-0.04990414157509804
1761402227571016000,6.457015869140625,9.784204483032227,0.0727238729596138,-0.04997896030545235
1761402227581122600,6.46712255859375,9.788992881774902,0.07160159200429916,-0.0487818606197834
1761402227591203300,6.477203369140625,9.788992881774902,0.07160159200429916,-0.0487818606197834
1761402227601284600,6.48728466796875,9.785401344299316,0.07032967358827591,-0.05117605999112129
1761402227611366000,6.497365966796875,9.775824546813965,0.06793547421693802,-0.05349544435739517
1761402227621447000,6.507447021484375,9.785326957702637,0.06920739263296127,-0.054767362773418427
1761402227631528200,6.517528076171875,9.785326957702637,0.06561609357595444,-0.05596446618437767
1761402227641588500,6.52758837890625,9.781810760498047,0.07631517946720123,-0.04870704188942909
1761402227651690500,6.5376904296875,9.785326957702637,0.06801029294729233,-0.052373163402080536
1761402227661771300,6.547771240234375,9.793706893920898,0.06920739263296127,-0.052373163402080536
1761402227671826400,6.557826416015625,9.788992881774902,0.06561609357595444,-0.04519055783748627
1761402227681933300,6.567933349609375,9.793557167053223,0.062024787068367004,-0.05469254404306412
1761402227692014300,6.578014404296875,9.792434692382812,0.06793547421693802,-0.04511573910713196
1761402227702091800,6.588091796875,9.791237831115723,0.07152677327394485,-0.04870704188942909
1761402227712176400,6.59817626953125,9.786449432373047,0.0727238729596138,-0.04870704188942909
1761402227722257400,6.60825732421875,9.786449432373047,0.06793547421693802,-0.05349544435739517
1761402227732338700,6.618338623046875,9.791162490844727,0.07751227915287018,-0.057086747139692307
1761402227742419700,6.628419677734375,9.789965629577637,0.061949968338012695,-0.05229834467172623
1761402227752500700,6.638500732421875,9.78757095336914,0.06314706802368164,-0.06067804992198944
1761402227762577700,6.64857763671875,9.786523818969727,0.06322188675403595,-0.04997896030545235
1761402227772662800,6.658662841796875,9.793706893920898,0.06561609357595444,-0.04997896030545235
1761402227782743800,6.668743896484375,9.80328369140625,0.07399579882621765,-0.04765957593917847
1761402227792801500,6.678801513671875,9.797297477722168,0.06801029294729233,-0.05117605999112129
1761402227802905900,6.68890576171875,9.790115356445312,0.07878419756889343,-0.059555768966674805
1761402227812987400,6.6989873046875,9.790115356445312,0.062024787068367004,-0.05596446618437767
1761402227823072000,6.709072021484375,9.792584419250488,0.07040449231863022,-0.04638765752315521
1761402227833145300,6.719145263671875,9.790115356445312,0.06920739263296127,-0.057161565870046616
1761402227843230500,6.72923046875,9.775824546813965,0.07511807978153229,-0.05229834467172623
1761402227853311200,6.739311279296875,9.791312217712402,0.06801029294729233,-0.0487818606197834
1761402227863393300,6.749393310546875,9.797297477722168,0.0751928985118866,-0.05357026308774948
1761402227873473800,6.759473876953125,9.796100616455078,0.06681319326162338,-0.05117605999112129
1761402227883541000,6.769541015625,9.788918495178223,0.06561609357595444,-0.057161565870046616
1761402227893632000,6.779632080078125,9.787720680236816,0.07399579882621765,-0.05357026308774948
1761402227903717600,6.789717529296875,9.784204483032227,0.06322188675403595,-0.0487818606197834
1761402227913775400,6.799775390625,9.791312217712402,0.06801029294729233,-0.057161565870046616
1761402227923879000,6.80987890625,9.792658805847168,0.06928221136331558,-0.05364508181810379
1761402227933934600,6.8199345703125,9.785476684570312,0.07040449231863022,-0.05596446618437767
1761402227944016400,6.830016357421875,9.796250343322754,0.06688801199197769,-0.052447982132434845
1761402227954121700,6.840121826171875,9.796250343322754,0.0644938051700592,-0.04765957593917847
1761402227964199700,6.85019970703125,9.790265083312988,0.0751928985118866,-0.045265376567840576
1761402227974284000,6.860283935546875,9.793856620788574,0.0727986991405487,-0.045265376567840576
1761402227984365600,6.870365478515625,9.790265083312988,0.06801029294729233,-0.052447982132434845
1761402227994446600,6.880446533203125,9.783082008361816,0.07160159200429916,-0.04758475720882416
1761402228004528400,6.8905283203125,9.788992881774902,0.07040449231863022,-0.04638765752315521
1761402228014609200,6.900609130859375,9.787720680236816,0.0727986991405487,-0.05117605999112129
1761402228024663600,6.91066357421875,9.786523818969727,0.07392098009586334,-0.05357026308774948
1761402228034771200,6.920771240234375,9.787796020507812,0.07040449231863022,-0.04638765752315521
1761402228044852500,6.9308525390625,9.788918495178223,0.05843348428606987,-0.05835866555571556
1761402228054911200,6.9409111328125,9.787720680236816,0.0727986991405487,-0.05117605999112129
1761402228065014300,6.95101416015625,9.802085876464844,0.07040449231863022,-0.057161565870046616
1761402228075095000,6.961094970703125,9.787720680236816,0.06681319326162338,-0.05117605999112129
1761402228085176800,6.9711767578125,9.792509078979492,0.0751928985118866,-0.054767362773418427
1761402228095257300,6.98125732421875,9.786523818969727,0.06920739263296127,-0.057161565870046616
1761402228105338000,6.991338134765625,9.791312217712402,0.062024787068367004,-0.0487818606197834
1761402228115419600,7.001419677734375,9.796100616455078,0.06322188675403595,-0.05835866555571556
1761402228125478000,7.011477783203125,9.793706893920898,0.06322188675403595,-0.04758475720882416
1761402228135581700,7.021581787109375,9.794903755187988,0.07160159200429916,-0.059555768966674805
1761402228145635300,7.03163525390625,9.802085876464844,0.062099605798721313,-0.057236384600400925
1761402228155744300,7.041744140625,9.798495292663574,0.07040449231863022,-0.052373163402080536
1761402228165825300,7.0518251953125,9.791088104248047,0.06673837453126907,-0.04511573910713196
1761402228175906000,7.061906005859375,9.77791976928711,0.07145195454359055,-0.058134209364652634
1761402228185986800,7.07198681640625,9.7791166305542,0.07145195454359055,-0.05574000999331474
1761402228196067800,7.08206787109375,9.786299705505371,0.07743746042251587,-0.05222352594137192
1761402228206149400,7.0921494140625,9.78989028930664,0.07264905422925949,-0.04982932284474373
1761402228216230100,7.102230224609375,9.787496566772461,0.06786065548658371,-0.04982932284474373
1761402228226311400,7.1123115234375,9.782708168029785,0.07504326105117798,-0.059406131505966187
1761402228236392000,7.122391845703125,9.793481826782227,0.06673837453126907,-0.05222352594137192
1761402228246474200,7.13247412109375,9.789591789245605,0.0677858367562294,-0.04975450411438942
1761402228256554800,7.1425546875,9.78600025177002,0.06539163738489151,-0.0520738884806633
1761402228266635800,7.1526357421875,9.790788650512695,0.0677858367562294,-0.06165069341659546
1761402228276716800,7.162716796875,9.799168586730957,0.0702548548579216,-0.05693710967898369
1761402228286798300,7.17279833984375,9.774028778076172,0.06771101802587509,-0.05446808785200119
1761402228296878600,7.182878662109375,9.782408714294434,0.07377134263515472,-0.053270988166332245
1761402228306959600,7.192959716796875,9.790788650512695,0.07018003612756729,-0.05214870721101761
1761402228317016000,7.20301611328125,9.7883939743042,0.07257423549890518,-0.05686229094862938
1761402228327097000,7.21309716796875,9.793706893920898,0.07040449231863022,-0.054767362773418427
1761402228337202400,7.223202392578125,9.793706893920898,0.07399579882621765,-0.05357026308774948
1761402228347284700,7.23328466796875,9.798495292663574,0.06920739263296127,-0.052373163402080536
1761402228357365000,7.243364990234375,9.788918495178223,0.07040449231863022,-0.05117605999112129
1761402228367446300,7.2534462890625,9.783007621765137,0.07392098009586334,-0.04279635474085808
1761402228377527300,7.26352734375,9.790189743041992,0.07160159200429916,-0.04638765752315521
1761402228387608800,7.27360888671875,9.792509078979492,0.06322188675403595,-0.0487818606197834
1761402228397689600,7.283689697265625,9.785326957702637,0.07631517946720123,-0.05349544435739517
1761402228407754800,7.293754638671875,9.791312217712402,0.06561609357595444,-0.05835866555571556
1761402228417827300,7.303827392578125,9.779341697692871,0.06554127484560013,-0.05469254404306412
1761402228427910700,7.31391064453125,9.787720680236816,0.06920739263296127,-0.05117605999112129
1761402228437974800,7.323974853515625,9.791312217712402,0.07399579882621765,-0.05117605999112129
1761402228468252700,7.354252685546875,9.793706893920898,0.07040449231863022,-0.04758475720882416
1761402228478338600,7.364338623046875,9.787720680236816,0.06681319326162338,-0.06075286865234375
1761402228488419300,7.37441943359375,9.789067268371582,0.06920739263296127,-0.04646247625350952
1761402228498500900,7.3845009765625,9.790265083312988,0.06681319326162338,-0.050053779035806656
1761402228508581000,7.3945810546875,9.789067268371582,0.06920739263296127,-0.054842181503772736
1761402228518662700,7.40466259765625,9.786673545837402,0.07160159200429916,-0.059555768966674805
1761402228528718000,7.414718017578125,9.77709674835205,0.06681319326162338,-0.05117605999112129
1761402228538785000,7.424784912109375,9.789067268371582,0.07040449231863022,-0.0512508787214756
1761402228548905700,7.43490576171875,9.786673545837402,0.06681319326162338,-0.054767362773418427
1761402228569043000,7.45504296875,9.795950889587402,0.07511807978153229,-0.05588964745402336
1761402228579148800,7.465148681640625,9.781661033630371,0.06434416770935059,-0.05588964745402336
1761402228589229800,7.475229736328125,9.783980369567871,0.06434416770935059,-0.05588964745402336
1761402228599307000,7.48530712890625,9.797147750854492,0.0644189864397049,-0.05588964745402336
1761402228609391900,7.495391845703125,9.787646293640137,0.07152677327394485,-0.04750993847846985
1761402228619473000,7.505472900390625,9.786449432373047,0.06913257390260696,-0.04511573910713196
1761402228629553700,7.5155537109375,9.78525161743164,0.07032967358827591,-0.05349544435739517
1761402228639635200,7.52563525390625,9.805527687072754,0.06801029294729233,-0.05596446618437767
1761402228649691100,7.535691162109375,9.795352935791016,0.08723872154951096,-0.047809213399887085
1761402228659793400,7.54579345703125,9.79295825958252,0.0777367353439331,-0.052522800862789154
1761402228669861000,7.555861083984375,9.789366722106934,0.06576573103666306,-0.050128597766160965
1761402228679928300,7.56592822265625,9.79527759552002,0.07175122946500778,-0.0561889223754406
1761402228690040600,7.57604052734375,9.783381462097168,0.07047931104898453,-0.05970540642738342
1761402228700121300,7.586121337890625,9.788169860839844,0.06935703009366989,-0.05132569745182991
1761402228710202400,7.596202392578125,9.779789924621582,0.0644938051700592,-0.05611410364508629
1761402228720300800,7.60630078125,9.782184600830078,0.07167641073465347,-0.05850830301642418
1761402228730365000,7.616364990234375,9.785401344299316,0.06561609357595444,-0.04638765752315521
1761402228740446000,7.626446044921875,9.791312217712402,0.06801029294729233,-0.04758475720882416
1761402228750501400,7.63650146484375,9.799692153930664,0.06681319326162338,-0.057161565870046616
1761402228760582700,7.646582763671875,9.792509078979492,0.062024787068367004,-0.04638765752315521
1761402228770689000,7.65668896484375,9.784130096435547,0.06082768738269806,-0.05596446618437767
1761402228780770300,7.666770263671875,9.786523818969727,0.06681319326162338,-0.05117605999112129
1761402228790819300,7.6768193359375,9.797297477722168,0.07399579882621765,-0.0487818606197834
1761402228800932900,7.686932861328125,9.787720680236816,0.0644189864397049,-0.05357026308774948
1761402228811014000,7.697013916015625,9.787646293640137,0.07511807978153229,-0.04870704188942909
1761402228821069000,7.707069091796875,9.779266357421875,0.0702548548579216,-0.0463128387928009
1761402228831175700,7.71717578125,9.797223091125488,0.06801029294729233,-0.04758475720882416
1761402228841256700,7.727256591796875,9.78405475616455,0.07032967358827591,-0.05229834467172623
1761402228851334000,7.737333984375,9.78637409210205,0.07152677327394485,-0.05828384682536125
1761402228861418800,7.747418701171875,9.794754028320312,0.06913257390260696,-0.05349544435739517
1761402228871499500,7.75749951171875,9.78525161743164,0.06793547421693802,-0.05229834467172623
1761402228881581000,7.7675810546875,9.786449432373047,0.06913257390260696,-0.05469254404306412
1761402228891661800,7.777661865234375,9.774627685546875,0.06314706802368164,-0.05229834467172623
1761402228901743000,7.7877431640625,9.784204483032227,0.07032967358827591,-0.05117605999112129
1761402228911824100,7.79782421875,9.788918495178223,0.06561609357595444,-0.04997896030545235
1761402228921901000,7.807901123046875,9.794903755187988,0.06082768738269806,-0.04997896030545235
1761402228931986400,7.817986328125,9.797297477722168,0.07160159200429916,-0.04997896030545235
1761402228952143600,7.8381435546875,9.780538558959961,0.06075286865234375,-0.05229834467172623
1761402228962229200,7.848229248046875,9.799692153930664,0.07040449231863022,-0.04885667935013771
1761402228972310500,7.858310546875,9.790040016174316,0.059555768966674805,-0.04990414157509804
1761402228982387500,7.868387451171875,9.781661033630371,0.06314706802368164,-0.04990414157509804
1761402228992472800,7.878472900390625,9.78405475616455,0.06673837453126907,-0.05469254404306412
1761402229002553900,7.888553955078125,9.783980369567871,0.06673837453126907,-0.057086747139692307
1761402229012635000,7.898634765625,9.788843154907227,0.06673837453126907,-0.04990414157509804
1761402229022715600,7.908715576171875,9.787646293640137,0.07870937883853912,-0.05588964745402336
1761402229032797200,7.918797119140625,9.788768768310547,0.07152677327394485,-0.059480950236320496
1761402229042874000,7.9288740234375,9.78525161743164,0.06913257390260696,-0.05229834467172623
1761402229052959200,7.938959228515625,9.790040016174316,0.07511807978153229,-0.0463128387928009
1761402229063018500,7.9490185546875,9.786449432373047,0.07032967358827591,-0.04870704188942909
1761402229073121000,7.95912109375,9.794828414916992,0.07870937883853912,-0.0463128387928009
1761402229083175200,7.969175048828125,9.78525161743164,0.07032967358827591,-0.0463128387928009
1761402229093283300,7.979283447265625,9.791237831115723,0.07032967358827591,-0.04990414157509804
1761402229103364600,7.989364501953125,9.797147750854492,0.06561609357595444,-0.04997896030545235
1761402229113441800,7.99944189453125,9.798345565795898,0.07631517946720123,-0.057086747139692307
1761402229123526700,8.009526611328125,9.783980369567871,0.06793547421693802,-0.057086747139692307
1761402229133607400,8.019607421875,9.788020133972168,0.07407061755657196,-0.052447982132434845
1761402229143704600,8.02970458984375,9.792808532714844,0.06097732484340668,-0.057311203330755234
1761402229153770000,8.03977001953125,9.789216995239258,0.07407061755657196,-0.050053779035806656
1761402229163851300,8.049851318359375,9.788020133972168,0.06808511167764664,-0.052447982132434845
1761402229173928000,8.059927978515624,9.792808532714844,0.07047931104898453,-0.054917000234127045
1761402229184013000,8.070012939453125,9.782034873962402,0.06090250611305237,-0.0512508787214756
1761402229194094600,8.080094482421876,9.782034873962402,0.06808511167764664,-0.04885667935013771
1761402229204151000,8.090151123046875,9.794005393981934,0.06688801199197769,-0.050128597766160965
1761402229214256600,8.100256591796875,9.785326957702637,0.0644189864397049,-0.054767362773418427
1761402229224337200,8.110337158203125,9.784204483032227,0.06793547421693802,-0.05117605999112129
1761402229234418200,8.120418212890625,9.794903755187988,0.0727986991405487,-0.054767362773418427
1761402229244495400,8.130495361328125,9.775750160217285,0.06554127484560013,-0.057086747139692307
1761402229254580500,8.14058056640625,9.792509078979492,0.06920739263296127,-0.05357026308774948
1761402229264661800,8.150661865234374,9.790189743041992,0.0727986991405487,-0.04519055783748627
1761402229274742800,8.16074267578125,9.790189743041992,0.0727986991405487,-0.04758475720882416
1761402229284823800,8.17082373046875,9.788992881774902,0.0751928985118866,-0.04997896030545235
1761402229294904800,8.18090478515625,9.791911125183105,0.07893383502960205,-0.05140051618218422
1761402229304986000,8.190986083984376,9.79183578491211,0.06344634294509888,-0.05140051618218422
1761402229315050500,8.201050537109374,9.794230461120605,0.06464344263076782,-0.05738602206110954
1761402229335229000,8.22122900390625,9.78951644897461,0.066962830722332,-0.04661211371421814
1761402229345311000,8.23131103515625,9.79183578491211,0.06815993040800095,-0.05259761959314346
1761402229355391000,8.241390869140625,9.777545928955078,0.06815993040800095,-0.05132569745182991
1761402229365472800,8.25147265625,9.795427322387695,0.07893383502960205,-0.05140051618218422
1761402229375553500,8.261553466796874,9.7744779586792,0.06546645611524582,-0.046238020062446594
1761402229385634600,8.271634521484375,9.799542427062988,0.07160159200429916,-0.05357026308774948
1761402229395715300,8.28171533203125,9.78757095336914,0.06434416770935059,-0.05588964745402336
1761402229405796600,8.291796630859375,9.78525161743164,0.07152677327394485,-0.05588964745402336
1761402229415852300,8.301852294921876,9.798345565795898,0.07392098009586334,-0.05349544435739517
1761402229425959000,8.311958984375,9.78405475616455,0.0727238729596138,-0.04870704188942909
1761402229436040000,8.3220400390625,9.789965629577637,0.0727238729596138,-0.06307224929332733
1761402229446096100,8.33209619140625,9.780463218688965,0.06793547421693802,-0.04990414157509804
1761402229456202000,8.342201904296875,9.793706893920898,0.07040449231863022,-0.05117605999112129
1761402229466282800,8.35228271484375,9.788918495178223,0.07399579882621765,-0.06546645611524582
1761402229476364000,8.362364013671876,9.788918495178223,0.06681319326162338,-0.05117605999112129
1761402229486445000,8.372445068359376,9.798495292663574,0.06801029294729233,-0.05835866555571556
1761402229496526300,8.3825263671875,9.790115356445312,0.07878419756889343,-0.05835866555571556
1761402229506607400,8.392607421875,9.783007621765137,0.07631517946720123,-0.04990414157509804
1761402229516688400,8.4026884765625,9.786523818969727,0.06920739263296127,-0.054767362773418427
1761402229526769200,8.41276904296875,9.796100616455078,0.0727986991405487,-0.05835866555571556
1761402229536850700,8.4228505859375,9.785401344299316,0.0727238729596138,-0.04638765752315521
1761402229546932500,8.432932373046874,9.786523818969727,0.07990647852420807,-0.059480950236320496
1761402229557013200,8.44301318359375,9.797297477722168,0.06681319326162338,-0.04997896030545235
1761402229567094000,8.453093994140625,9.788918495178223,0.0751928985118866,-0.054767362773418427
1761402229577194800,8.46319482421875,9.78293228149414,0.06561609357595444,-0.059480950236320496
1761402229587255800,8.473255859375,9.783007621765137,0.06554127484560013,-0.04997896030545235
1761402229597316900,8.48331689453125,9.793706893920898,0.07040449231863022,-0.05117605999112129
1761402229607417900,8.49341796875,9.787720680236816,0.06920739263296127,-0.05596446618437767
1761402229617499000,8.503498779296875,9.786673545837402,0.06561609357595444,-0.0512508787214756
1761402229627580400,8.513580322265625,9.77597427368164,0.07040449231863022,-0.0487818606197834
1761402229637661400,8.523661376953125,9.796250343322754,0.07407061755657196,-0.052447982132434845
1761402229647743200,8.5337431640625,9.783157348632812,0.07040449231863022,-0.04638765752315521
1761402229657824000,8.543823974609374,9.784278869628906,0.06920739263296127,-0.04997896030545235
1761402229667905000,8.553905029296875,9.79864501953125,0.07047931104898453,-0.054842181503772736
1761402229677990000,8.563989990234376,9.791461944580078,0.06928221136331558,-0.052447982132434845
1761402229688063000,8.57406298828125,9.795053482055664,0.06688801199197769,-0.04406827688217163
1761402229698145300,8.584145263671875,9.786523818969727,0.07040449231863022,-0.06067804992198944
1761402229708230100,8.594230224609374,9.784130096435547,0.06913257390260696,-0.052373163402080536
1761402229718288000,8.604287841796875,9.784130096435547,0.06801029294729233,-0.059480950236320496
1761402229728391000,8.614390869140625,9.794903755187988,0.06920739263296127,-0.054767362773418427
1761402229738472700,8.62447265625,9.792584419250488,0.07638999819755554,-0.04279635474085808
1761402229748550000,8.6345498046875,9.794903755187988,0.07758709788322449,-0.04997896030545235
1761402229758599000,8.644598876953125,9.800889015197754,0.07040449231863022,-0.052447982132434845
1761402229768724000,8.654723876953126,9.786523818969727,0.0727986991405487,-0.057161565870046616
1761402229778795500,8.66479541015625,9.790414810180664,0.07407061755657196,-0.052447982132434845
1761402229788877000,8.674876953125,9.786823272705078,0.06569091230630875,-0.04885667935013771
1761402229798958800,8.684958740234375,9.79759693145752,0.07646481692790985,-0.0537199005484581
1761402229809035500,8.695035400390625,9.786823272705078,0.06688801199197769,-0.054842181503772736
1761402229819121400,8.705121337890626,9.799991607666016,0.066962830722332,-0.04893149808049202
1761402229829201700,8.71520166015625,9.790414810180664,0.06569091230630875,-0.05132569745182991
1761402229839282400,8.725282470703124,9.790414810180664,0.06569091230630875,-0.05611410364508629
1761402229849364200,8.7353642578125,9.788020133972168,0.0752677172422409,-0.050053779035806656
1761402229869504800,8.7555048828125,9.78405475616455,0.06434416770935059,-0.05110124126076698
1761402229879603200,8.765603271484375,9.792359352111816,0.06314706802368164,-0.05349544435739517
1761402229889688000,8.77568798828125,9.787646293640137,0.07032967358827591,-0.04870704188942909
1761402229899769300,8.785769287109375,9.788768768310547,0.07032967358827591,-0.05588964745402336
1761402229909850400,8.795850341796875,9.793557167053223,0.06913257390260696,-0.05349544435739517
1761402229919931400,8.805931396484375,9.78525161743164,0.06554127484560013,-0.0463128387928009
1761402229930012700,8.8160126953125,9.78405475616455,0.0727238729596138,-0.05110124126076698
1761402229940089600,8.826089599609375,9.785326957702637,0.07511807978153229,-0.05357026308774948
1761402229950149000,8.836149169921875,9.794903755187988,0.0751928985118866,-0.052373163402080536
1761402229960255500,8.84625537109375,9.792509078979492,0.06681319326162338,-0.054767362773418427
1761402229970336800,8.856336669921875,9.792509078979492,0.06920739263296127,-0.05117605999112129
1761402229980418000,8.86641796875,9.787796020507812,0.07631517946720123,-0.05117605999112129
1761402229990499000,8.8764990234375,9.785326957702637,0.0727238729596138,-0.052373163402080536
1761402230000575500,8.886575439453125,9.783007621765137,0.06673837453126907,-0.04758475720882416
1761402230010661000,8.8966611328125,9.786599159240723,0.0727238729596138,-0.0487818606197834
1761402230020742400,8.906742431640625,9.790115356445312,0.07160159200429916,-0.05357026308774948
1761402230030840300,8.91684033203125,9.797297477722168,0.07040449231863022,-0.057161565870046616
1761402230040904700,8.92690478515625,9.788992881774902,0.06681319326162338,-0.04519055783748627
1761402230050959600,8.936959716796874,9.797297477722168,0.06920739263296127,-0.061949968338012695
1761402230061041000,8.947041015625,9.788918495178223,0.06082768738269806,-0.0487818606197834
1761402230071144200,8.957144287109376,9.773355484008789,0.06913257390260696,-0.061875149607658386
1761402230081228800,8.967228759765625,9.791312217712402,0.06681319326162338,-0.04997896030545235
1761402230091309800,8.977309814453125,9.790189743041992,0.07160159200429916,-0.0487818606197834
1761402230101391000,8.98739111328125,9.79984188079834,0.0644938051700592,-0.057236384600400925
1761402230111472000,8.99747216796875,9.785551071166992,0.0727986991405487,-0.04646247625350952
1761402230121553200,9.00755322265625,9.790265083312988,0.07878419756889343,-0.05603928491473198
1761402230131630000,9.017630126953126,9.784278869628906,0.07160159200429916,-0.054767362773418427
1761402230141690000,9.027690185546875,9.79864501953125,0.07047931104898453,-0.0512508787214756
1761402230151771400,9.037771484375,9.792658805847168,0.0644938051700592,-0.054842181503772736
1761402230161877500,9.04787744140625,9.792658805847168,0.0727986991405487,-0.052447982132434845
1761402230171957800,9.057957763671874,9.792658805847168,0.07287351787090302,-0.05603928491473198
1761402230182039600,9.06803955078125,9.791088104248047,0.06793547421693802,-0.05461772531270981
1761402230192120000,9.0781201171875,9.78989028930664,0.0702548548579216,-0.05461772531270981
1761402230202197000,9.088197021484374,9.786299705505371,0.06786065548658371,-0.04863222315907478
1761402230212258000,9.098258056640624,9.792210578918457,0.06075286865234375,-0.05581482872366905
1761402230222363400,9.10836328125,9.798195838928223,0.0727238729596138,-0.05469254404306412
1761402230232419300,9.11841943359375,9.792284965515137,0.07032967358827591,-0.05342062562704086
1761402230242525000,9.12852490234375,9.791088104248047,0.07264905422925949,-0.04743511974811554
1761402230252581600,9.13858154296875,9.792284965515137,0.06793547421693802,-0.05581482872366905
1761402230262684000,9.148683837890625,9.79295825958252,0.07055412977933884,-0.05140051618218422
1761402230272768500,9.1587685546875,9.800141334533691,0.07175122946500778,-0.050203416496515274
1761402230282850300,9.168850341796874,9.79415512084961,0.06935703009366989,-0.05259761959314346
1761402230292921300,9.17892138671875,9.780987739562988,0.06688801199197769,-0.052522800862789154
1761402230303011800,9.18901171875,9.786972999572754,0.07167641073465347,-0.050128597766160965
1761402230313092900,9.1990927734375,9.785776138305664,0.06815993040800095,-0.0537199005484581
1761402230323170000,9.209170166015625,9.79295825958252,0.06815993040800095,-0.043020810931921005
1761402230333255000,9.2192548828125,9.784578323364258,0.06688801199197769,-0.050128597766160965
1761402230343336000,9.2293359375,9.794903755187988,0.0751928985118866,-0.0487818606197834
1761402230353417200,9.239417236328125,9.788992881774902,0.06920739263296127,-0.0487818606197834
1761402230363498000,9.249498046875,9.787720680236816,0.06681319326162338,-0.05357026308774948
1761402230373579500,9.25957958984375,9.798495292663574,0.06920739263296127,-0.0487818606197834
1761402230383660000,9.269659912109375,9.786523818969727,0.07040449231863022,-0.05596446618437767
1761402230393738000,9.279738037109375,9.788918495178223,0.06801029294729233,-0.05357026308774948
1761402230403822800,9.28982275390625,9.784204483032227,0.06434416770935059,-0.04399345442652702
1761402230413903600,9.299903564453125,9.787796020507812,0.06801029294729233,-0.04519055783748627
1761402230423985000,9.30998486328125,9.793481826782227,0.06554127484560013,-0.043918635696172714
1761402230444121900,9.330121826171874,9.795876502990723,0.06913257390260696,-0.05469254404306412
1761402230454225700,9.3402255859375,9.78989028930664,0.06554127484560013,-0.05342062562704086
1761402230464309000,9.35030908203125,9.782708168029785,0.07384616136550903,-0.05581482872366905
1761402230474390300,9.360390380859375,9.782708168029785,0.06666355580091476,-0.05820902809500694
1761402230484471300,9.37047119140625,9.795801162719727,0.06554127484560013,-0.057086747139692307
1761402230494552300,9.38055224609375,9.797073364257812,0.07631517946720123,-0.05349544435739517
1761402230504633000,9.390633056640626,9.792509078979492,0.06920739263296127,-0.05596446618437767
1761402230514714400,9.40071435546875,9.783007621765137,0.07032967358827591,-0.04638765752315521
1761402230524791300,9.410791259765626,9.790189743041992,0.07040449231863022,-0.04399345442652702
1761402230534876400,9.42087646484375,9.794903755187988,0.07040449231863022,-0.059555768966674805
1761402230544958200,9.430958251953125,9.790115356445312,0.06920739263296127,-0.05835866555571556
1761402230555039500,9.44103955078125,9.791312217712402,0.06561609357595444,-0.05357026308774948
1761402230565119700,9.45111962890625,9.786523818969727,0.0727238729596138,-0.052373163402080536
1761402230575200500,9.461200439453124,9.793706893920898,0.07040449231863022,-0.0487818606197834
1761402230585256400,9.47125634765625,9.791611671447754,0.07885901629924774,-0.05364508181810379
1761402230595363300,9.48136328125,9.790414810180664,0.06329670548439026,-0.050128597766160965
1761402230605442800,9.49144287109375,9.786823272705078,0.06928221136331558,-0.057236384600400925
1761402230615524900,9.50152490234375,9.779640197753906,0.07638999819755554,-0.05364508181810379
1761402230625606100,9.511606201171874,9.779640197753906,0.07160159200429916,-0.05603928491473198
1761402230635687400,9.5216875,9.780838012695312,0.06808511167764664,-0.04885667935013771
1761402230645743600,9.53174365234375,9.789216995239258,0.06569091230630875,-0.05603928491473198
1761402230655849500,9.541849365234375,9.790414810180664,0.06569091230630875,-0.047734394669532776
1761402230665930500,9.551930419921876,9.78869342803955,0.07384616136550903,-0.05342062562704086
1761402230676012000,9.562011962890624,9.78869342803955,0.07145195454359055,-0.05461772531270981
1761402230686092800,9.5720927734375,9.77791976928711,0.07145195454359055,-0.0545429065823555
1761402230696173600,9.582173583984375,9.787496566772461,0.06786065548658371,-0.05461772531270981
1761402230706254600,9.592254638671875,9.785101890563965,0.07264905422925949,-0.041449617594480515
1761402230716335900,9.6023359375,9.786299705505371,0.07264905422925949,-0.05342062562704086
1761402230726417200,9.612417236328126,9.787496566772461,0.0702548548579216,-0.057011928409338
1761402230736498000,9.622497802734374,9.786299705505371,0.07504326105117798,-0.059406131505966187
1761402230746579700,9.632579833984375,9.791611671447754,0.06928221136331558,-0.052522800862789154
1761402230756660000,9.642659912109375,9.792808532714844,0.06329670548439026,-0.050128597766160965
1761402230766741200,9.6527412109375,9.789216995239258,0.07407061755657196,-0.052447982132434845
1761402230776821800,9.66282177734375,9.779640197753906,0.0727986991405487,-0.057236384600400925
1761402230786903300,9.6729033203125,9.79640007019043,0.06688801199197769,-0.05132569745182991
1761402230796945700,9.682945556640625,9.792808532714844,0.07287351787090302,-0.0537199005484581
1761402230807065600,9.693065673828125,9.791611671447754,0.0776619166135788,-0.047734394669532776
1761402230817146400,9.703146484375,9.786823272705078,0.06928221136331558,-0.05603928491473198
1761402230827213800,9.7132138671875,9.799692153930664,0.0727986991405487,-0.045265376567840576
1761402230837284900,9.723284912109374,9.790115356445312,0.07160159200429916,-0.05357026308774948
1761402230857470700,9.743470703125,9.775824546813965,0.07631517946720123,-0.041524436324834824
1761402230867552000,9.753552001953125,9.793706893920898,0.06681319326162338,-0.0487818606197834
1761402230877632800,9.7636328125,9.790115356445312,0.06681319326162338,-0.052373163402080536
1761402230887714000,9.773714111328125,9.783007621765137,0.059630587697029114,-0.04997896030545235
1761402230897795000,9.783795166015626,9.780538558959961,0.07032967358827591,-0.057086747139692307
1761402230907876400,9.79387646484375,9.792808532714844,0.07646481692790985,-0.059630587697029114
1761402230917957600,9.80395751953125,9.785626411437988,0.06928221136331558,-0.05603928491473198
1761402230928036600,9.81403662109375,9.791611671447754,0.06090250611305237,-0.050128597766160965
1761402230938090800,9.8240908203125,9.792808532714844,0.07167641073465347,-0.054917000234127045
1761402230948199000,9.834198974609375,9.783231735229492,0.07287351787090302,-0.0512508787214756
1761402230958277600,9.844277587890625,9.786823272705078,0.0644938051700592,-0.052447982132434845
1761402230968332000,9.85433203125,9.788020133972168,0.07287351787090302,-0.050053779035806656
1761402230978443800,9.86444384765625,9.784428596496582,0.06688801199197769,-0.0512508787214756
1761402230988513800,9.874513671875,9.78637409210205,0.07032967358827591,-0.06067804992198944
1761402230998605800,9.884605712890625,9.78405475616455,0.06793547421693802,-0.04990414157509804
1761402231008686800,9.894686767578126,9.793557167053223,0.06082768738269806,-0.05349544435739517
1761402231018768000,9.904767822265624,9.789965629577637,0.061949968338012695,-0.05828384682536125
1761402231028844800,9.9148447265625,9.791162490844727,0.07032967358827591,-0.05588964745402336
1761402231038930200,9.92493017578125,9.794828414916992,0.0727238729596138,-0.05110124126076698
1761402231049011500,9.935011474609375,9.78757095336914,0.06673837453126907,-0.05469254404306412
1761402231059069200,9.945069091796874,9.782857894897461,0.06314706802368164,-0.05110124126076698
1761402231069173500,9.955173583984376,9.786823272705078,0.07167641073465347,-0.054842181503772736
1761402231079253800,9.965253662109374,9.783231735229492,0.06688801199197769,-0.04885667935013771
1761402231089331500,9.97533154296875,9.783231735229492,0.06928221136331558,-0.0512508787214756
1761402231099425000,9.985425048828125,9.794005393981934,0.07407061755657196,-0.050128597766160965
1761402231109497600,9.99549755859375,9.791611671447754,0.06808511167764664,-0.050128597766160965
1761402231119579000,10.005578857421876,9.794005393981934,0.07047931104898453,-0.052522800862789154
1761402231129659600,10.01565966796875,9.791611671447754,0.07047931104898453,-0.05132569745182991
1761402231139740700,10.02574072265625,9.784428596496582,0.0776619166135788,-0.0512508787214756
1761402231149821700,10.03582177734375,9.791387557983398,0.07638999819755554,-0.0487818606197834
1761402231159898600,10.045898681640624,9.783007621765137,0.06913257390260696,-0.04638765752315521
1761402231169983700,10.055983642578125,9.790189743041992,0.0727986991405487,-0.04638765752315521
1761402231180065000,10.06606494140625,9.800889015197754,0.06920739263296127,-0.04885667935013771
1761402231190146300,10.076146240234374,9.781810760498047,0.06673837453126907,-0.05229834467172623
1761402231200227600,10.0862275390625,9.778219223022461,0.07511807978153229,-0.05349544435739517
1761402231210308600,10.09630859375,9.787720680236816,0.0727986991405487,-0.054767362773418427
1761402231220385300,10.10638525390625,9.793706893920898,0.07040449231863022,-0.052373163402080536
1761402231230470400,10.116470458984375,9.784428596496582,0.07287351787090302,-0.054842181503772736
1761402231240526600,10.126526611328124,9.790414810180664,0.07047931104898453,-0.057236384600400925
1761402231250607900,10.13660791015625,9.79640007019043,0.06808511167764664,-0.05132569745182991
1761402231260714200,10.14671435546875,9.783231735229492,0.07287351787090302,-0.054842181503772736
1761402231270794800,10.156794677734375,9.792808532714844,0.06928221136331558,-0.052522800862789154
1761402231280872000,10.166871826171874,9.792808532714844,0.0776619166135788,-0.05132569745182991
1761402231290956800,10.176956787109376,9.799991607666016,0.07175122946500778,-0.052522800862789154
1761402231301038300,10.187038330078124,9.789216995239258,0.07047931104898453,-0.04414309561252594
1761402231311119000,10.197119140625,9.782857894897461,0.0727238729596138,-0.05349544435739517
1761402231321199900,10.207199951171875,9.801936149597168,0.07160159200429916,-0.054767362773418427
1761402231331281400,10.217281494140625,9.780463218688965,0.07264905422925949,-0.04870704188942909
1761402231341362000,10.22736181640625,9.778069496154785,0.06905775517225266,-0.04272153601050377
1761402231351439400,10.237439453125,9.782857894897461,0.07152677327394485,-0.05349544435739517
1761402231361524700,10.247524658203124,9.790040016174316,0.0727238729596138,-0.04750993847846985
1761402231371588000,10.257588134765625,9.78757095336914,0.06673837453126907,-0.06067804992198944
1761402231381661200,10.2676611328125,9.78637409210205,0.06913257390260696,-0.05828384682536125
1761402231391768600,10.2777685546875,9.786523818969727,0.0727238729596138,-0.05117605999112129
1761402231401841700,10.287841552734376,9.783007621765137,0.06793547421693802,-0.0487818606197834
1761402231411925500,10.297925537109375,9.784130096435547,0.06801029294729233,-0.057086747139692307
1761402231421975300,10.307975341796874,9.786523818969727,0.06920739263296127,-0.05117605999112129
1761402231432092200,10.318092041015625,9.779341697692871,0.06673837453126907,-0.05588964745402336
1761402231442173000,10.3281728515625,9.790115356445312,0.06561609357595444,-0.052373163402080536
1761402231452254000,10.33825390625,9.787796020507812,0.0727986991405487,-0.04997896030545235
1761402231462335200,10.348335205078126,9.786523818969727,0.0727986991405487,-0.054767362773418427
1761402231472416000,10.358416015625,9.780912399291992,0.08357260376214981,-0.045265376567840576
1761402231482493200,10.3684931640625,9.801188468933105,0.07407061755657196,-0.04414309561252594
1761402231492553200,10.37855322265625,9.79640007019043,0.05738602206110954,-0.054917000234127045
1761402231502659600,10.38865966796875,9.789216995239258,0.07646481692790985,-0.05603928491473198
1761402231512717600,10.398717529296874,9.776049613952637,0.06681319326162338,-0.057236384600400925
1761402231522821600,10.408821533203126,9.792808532714844,0.0776619166135788,-0.054917000234127045
1761402231532877000,10.418876953125,9.794005393981934,0.07407061755657196,-0.050128597766160965
1761402231542979800,10.428979736328126,9.783231735229492,0.07047931104898453,-0.04646247625350952
1761402231553064700,10.439064697265625,9.790938377380371,0.06905775517225266,-0.0545429065823555
1761402231563145700,10.449145751953125,9.786149978637695,0.0702548548579216,-0.050951603800058365
1761402231573227000,10.45922705078125,9.787346839904785,0.07736264169216156,-0.050951603800058365
1761402231583307800,10.469307861328126,9.790938377380371,0.07624036073684692,-0.046238020062446594
1761402231593389000,10.47938916015625,9.79333209991455,0.07624036073684692,-0.05693710967898369
1761402231603445000,10.489445068359375,9.801712036132812,0.07264905422925949,-0.05342062562704086
1761402231613551000,10.499551025390625,9.789741516113281,0.0702548548579216,-0.04975450411438942
1761402231623632100,10.509632080078125,9.790938377380371,0.07384616136550903,-0.04975450411438942
1761402231633713200,10.519713134765626,9.783231735229492,0.06808511167764664,-0.0512508787214756
1761402231643795000,10.529794921875,9.780838012695312,0.06808511167764664,-0.052447982132434845
1761402231653875500,10.53987548828125,9.785626411437988,0.0752677172422409,-0.05603928491473198
1761402231663956500,10.54995654296875,9.77485179901123,0.07160159200429916,-0.052447982132434845
1761402231674033400,10.560033447265624,9.790414810180664,0.07287351787090302,-0.052522800862789154
1761402231684118500,10.570118408203125,9.794005393981934,0.06928221136331558,-0.045340195298194885
1761402231694199600,10.580199462890626,9.792808532714844,0.07287351787090302,-0.052522800862789154
1761402231704280800,10.59028076171875,9.782034873962402,0.06569091230630875,-0.04765957593917847
1761402231714361900,10.60036181640625,9.784278869628906,0.07160159200429916,-0.04997896030545235
1761402231724418000,10.61041796875,9.783082008361816,0.06322188675403595,-0.0487818606197834
1761402231734524700,10.620524658203125,9.790265083312988,0.06681319326162338,-0.04765957593917847
1761402231744605700,10.630605712890626,9.792658805847168,0.07399579882621765,-0.04765957593917847
1761402231754686000,10.64068603515625,9.77949047088623,0.06920739263296127,-0.05117605999112129
1761402231764767500,10.650767578125,9.796250343322754,0.07167641073465347,-0.052447982132434845
1761402231774848000,10.660847900390625,9.789067268371582,0.06808511167764664,-0.061949968338012695
1761402231784929300,10.67092919921875,9.793856620788574,0.06808511167764664,-0.052447982132434845
1761402231795010600,10.681010498046875,9.788918495178223,0.07399579882621765,-0.05835866555571556
1761402231805091600,10.691091552734376,9.787796020507812,0.07631517946720123,-0.0487818606197834
1761402231815172400,10.70117236328125,9.788918495178223,0.06920739263296127,-0.05117605999112129
1761402231825253600,10.711253662109375,9.792584419250488,0.06561609357595444,-0.04519055783748627
1761402231835334700,10.721334716796875,9.793706893920898,0.06681319326162338,-0.04997896030545235
1761402231845416200,10.731416259765625,9.791312217712402,0.06801029294729233,-0.052373163402080536
1761402231855497000,10.7414970703125,9.77941608428955,0.07152677327394485,-0.05229834467172623
1761402231865578200,10.751578125,9.787720680236816,0.07631517946720123,-0.054767362773418427
1761402231875659000,10.761658935546874,9.785626411437988,0.07407061755657196,-0.05364508181810379
1761402231885739800,10.77173974609375,9.794005393981934,0.06688801199197769,-0.050128597766160965
1761402231895821300,10.7818212890625,9.789216995239258,0.06808511167764664,-0.054842181503772736
1761402231905902300,10.79190234375,9.79640007019043,0.07407061755657196,-0.05132569745182991
1761402231915983600,10.801983642578126,9.794005393981934,0.0752677172422409,-0.05611410364508629
1761402231926064600,10.812064697265624,9.792808532714844,0.0752677172422409,-0.05132569745182991
1761402231936145400,10.8221455078125,9.782034873962402,0.06569091230630875,-0.0512508787214756
1761402231946227200,10.832227294921875,9.789216995239258,0.06808511167764664,-0.05132569745182991
1761402231956307500,10.842307373046875,9.784653663635254,0.06815993040800095,-0.0561889223754406
1761402231966388500,10.852388427734375,9.783531188964844,0.07414543628692627,-0.050203416496515274
1761402231976445400,10.862445556640624,9.781136512756348,0.07294833660125732,-0.05379471927881241
1761402231986550500,10.872550537109374,9.794230461120605,0.07302315533161163,-0.054991818964481354
1761402231996632000,10.882632080078125,9.78824520111084,0.06815993040800095,-0.05858312174677849
1761402232006671600,10.892671630859375,9.78824520111084,0.06815993040800095,-0.05978022515773773
1761402232016793900,10.9027939453125,9.7907133102417,0.07175122946500778,-0.05140051618218422
1761402232026875000,10.912875,9.787047386169434,0.06456862390041351,-0.0561889223754406
1761402232036956200,10.9229560546875,9.79288387298584,0.06815993040800095,-0.057311203330755234
1761402232047011300,10.93301123046875,9.79408073425293,0.07175122946500778,-0.057311203330755234
1761402232057118700,10.94311865234375,9.79056453704834,0.07414543628692627,-0.04893149808049202
1761402232067199700,10.95319970703125,9.788169860839844,0.06935703009366989,-0.04893149808049202
1761402232077261000,10.963260986328125,9.79176139831543,0.07294833660125732,-0.05132569745182991
1761402232087361300,10.973361328125,9.79288387298584,0.06935703009366989,-0.054917000234127045
1761402232097442600,10.983442626953124,9.795352935791016,0.066962830722332,-0.05140051618218422
1761402232107523300,10.9935234375,9.795352935791016,0.07175122946500778,-0.05259761959314346
1761402232117604900,11.00360498046875,9.786673545837402,0.06920739263296127,-0.052447982132434845
1761402232127685600,11.013685546875,9.785476684570312,0.06681319326162338,-0.06314706802368164
1761402232137767000,11.023766845703125,9.783082008361816,0.06561609357595444,-0.059555768966674805
1761402232147848000,11.033847900390626,9.789067268371582,0.0751928985118866,-0.052447982132434845
1761402232157929000,11.043928955078124,9.792658805847168,0.07167641073465347,-0.054842181503772736
1761402232168008700,11.0540087890625,9.787870407104492,0.062024787068367004,-0.04765957593917847
1761402232178087200,11.064087158203124,9.783082008361816,0.07040449231863022,-0.052373163402080536
1761402232188160800,11.074160888671875,9.77709674835205,0.0727986991405487,-0.052373163402080536
1761402232198253300,11.08425341796875,9.783905029296875,0.07624036073684692,-0.041449617594480515
1761402232208334600,11.09433447265625,9.787496566772461,0.06786065548658371,-0.05222352594137192
1761402232218411800,11.104411865234376,9.783905029296875,0.07624036073684692,-0.059406131505966187
1761402232228497000,11.114496826171875,9.786299705505371,0.06905775517225266,-0.05222352594137192
1761402232238573600,11.124573486328124,9.785101890563965,0.06666355580091476,-0.05461772531270981
1761402232248659000,11.134658935546875,9.787496566772461,0.06426934897899628,-0.04743511974811554
1761402232258740000,11.144739990234376,9.783905029296875,0.06666355580091476,-0.05581482872366905
1761402232268820700,11.15482080078125,9.781511306762695,0.07145195454359055,-0.06060323119163513
1761402232278902000,11.164902099609375,9.785626411437988,0.06928221136331558,-0.04885667935013771
1761402232288982800,11.174982666015625,9.791611671447754,0.07167641073465347,-0.0537199005484581
1761402232299064300,11.185064208984375,9.792808532714844,0.06569091230630875,-0.05132569745182991
1761402232309141000,11.19514111328125,9.792808532714844,0.07287351787090302,-0.057311203330755234
1761402232319226400,11.205226318359376,9.792808532714844,0.06808511167764664,-0.052522800862789154
1761402232329307400,11.215307373046874,9.791611671447754,0.07047931104898453,-0.054917000234127045
1761402232339388400,11.225388427734375,9.792808532714844,0.06928221136331558,-0.05611410364508629
1761402232349469700,11.2354697265625,9.791611671447754,0.06808511167764664,-0.0537199005484581
1761402232359550200,11.24555029296875,9.784204483032227,0.06561609357595444,-0.0487818606197834
1761402232369627400,11.25562744140625,9.798495292663574,0.06920739263296127,-0.05596446618437767
1761402232379712300,11.265712158203126,9.792509078979492,0.07160159200429916,-0.05117605999112129
1761402232389793500,11.27579345703125,9.785326957702637,0.0727238729596138,-0.05588964745402336
1761402232399874600,11.28587451171875,9.788918495178223,0.07040449231863022,-0.05357026308774948
1761402232409955800,11.295955810546875,9.793781280517578,0.07399579882621765,-0.04638765752315521
1761402232420036600,11.30603662109375,9.791312217712402,0.06681319326162338,-0.05117605999112129
1761402232430117600,11.31611767578125,9.785326957702637,0.07040449231863022,-0.05828384682536125
1761402232440194000,11.326194091796875,9.782034873962402,0.07758709788322449,-0.0512508787214756
1761402232450280200,11.3362802734375,9.79640007019043,0.0752677172422409,-0.057311203330755234
1761402232460361200,11.346361328125,9.801188468933105,0.066962830722332,-0.052522800862789154
1761402232470441700,11.356441650390625,9.778443336486816,0.06688801199197769,-0.05603928491473198
1761402232480523500,11.3665234375,9.791611671447754,0.07047931104898453,-0.050128597766160965
1761402232490604300,11.376604248046876,9.794005393981934,0.07047931104898453,-0.04893149808049202
1761402232500682200,11.38668212890625,9.783231735229492,0.07047931104898453,-0.054842181503772736
1761402232510732800,11.39673291015625,9.788020133972168,0.07047931104898453,-0.05843348428606987
1761402232520847600,11.40684765625,9.789067268371582,0.07638999819755554,-0.06075286865234375
1761402232530928400,11.416928466796875,9.795053482055664,0.07646481692790985,-0.059630587697029114
1761402232541009700,11.427009765625,9.790265083312988,0.06681319326162338,-0.0512508787214756
1761402232551070200,11.4370703125,9.781885147094727,0.07160159200429916,-0.05596446618437767
1761402232561168000,11.44716796875,9.779565811157227,0.07160159200429916,-0.04638765752315521
1761402232571252700,11.457252685546875,9.795053482055664,0.07047931104898453,-0.04885667935013771
1761402232581333800,11.467333740234375,9.786673545837402,0.07160159200429916,-0.05596446618437767
1761402232591415000,11.4774150390625,9.797447204589844,0.06569091230630875,-0.054842181503772736
1761402232601496000,11.48749609375,9.781810760498047,0.07511807978153229,-0.04519055783748627
1761402232611547100,11.497547119140625,9.785326957702637,0.06920739263296127,-0.054767362773418427
1761402232621633300,11.50763330078125,9.792509078979492,0.07160159200429916,-0.057161565870046616
1761402232631735800,11.51773583984375,9.785326957702637,0.07040449231863022,-0.06067804992198944
1761402232641819400,11.5278193359375,9.786523818969727,0.06801029294729233,-0.057161565870046616
1761402232651880200,11.537880126953125,9.794903755187988,0.06561609357595444,-0.05357026308774948
1761402232661982500,11.547982421875,9.790115356445312,0.06082768738269806,-0.05357026308774948
1761402232672063500,11.5580634765625,9.787796020507812,0.07040449231863022,-0.04997896030545235
1761402232682144800,11.568144775390625,9.79759693145752,0.07885901629924774,-0.0537199005484581
1761402232692221400,11.578221435546874,9.786823272705078,0.07407061755657196,-0.057236384600400925
1761402232702306600,11.588306640625,9.794005393981934,0.06688801199197769,-0.04653729498386383
1761402232712381000,11.598380859375,9.79759693145752,0.066962830722332,-0.05611410364508629
1761402232722468900,11.60846875,9.785626411437988,0.07287351787090302,-0.05603928491473198
1761402232732550000,11.6185498046875,9.788020133972168,0.07407061755657196,-0.059630587697029114
1761402232742631200,11.628631103515625,9.794005393981934,0.07885901629924774,-0.05611410364508629
1761402232752712200,11.638712158203125,9.785626411437988,0.07167641073465347,-0.050053779035806656
1761402232762769200,11.64876904296875,9.793706893920898,0.0751928985118866,-0.054767362773418427
1761402232772874200,11.658874267578126,9.800889015197754,0.06681319326162338,-0.05364508181810379
1761402232782955300,11.668955322265624,9.787796020507812,0.062024787068367004,-0.04040215536952019
1761402232793018400,11.679018310546875,9.792509078979492,0.07040449231863022,-0.05117605999112129
1761402232803117600,11.68911767578125,9.786523818969727,0.06681319326162338,-0.054767362773418427
1761402232813198600,11.699198486328125,9.787796020507812,0.07160159200429916,-0.04997896030545235
1761402232823275800,11.70927587890625,9.791312217712402,0.06801029294729233,-0.05596446618437767
1761402232833360600,11.719360595703124,9.792509078979492,0.06920739263296127,-0.054767362773418427
1761402232843441700,11.729441650390624,9.777022361755371,0.07751227915287018,-0.04990414157509804
1761402232853522700,11.739522705078125,9.78061294555664,0.06913257390260696,-0.04990414157509804
1761402232863578600,11.74957861328125,9.784130096435547,0.07152677327394485,-0.05469254404306412
1761402232873685000,11.75968505859375,9.792509078979492,0.06920739263296127,-0.05117605999112129
1761402232883762400,11.769762451171875,9.800889015197754,0.06681319326162338,-0.054842181503772736
1761402232893847300,11.779847412109374,9.798495292663574,0.07638999819755554,-0.05596446618437767
1761402232903928300,11.78992822265625,9.793706893920898,0.06681319326162338,-0.04758475720882416
1761402232913993700,11.79999365234375,9.793706893920898,0.06801029294729233,-0.052373163402080536
1761402232924091000,11.8100908203125,9.78525161743164,0.06673837453126907,-0.04870704188942909
1761402232934171100,11.820171142578126,9.791237831115723,0.07152677327394485,-0.04990414157509804
1761402232944253000,11.8302529296875,9.790040016174316,0.06673837453126907,-0.04750993847846985
1761402232954329900,11.840329833984375,9.793631553649902,0.06913257390260696,-0.0463128387928009
1761402232964414700,11.850414794921875,9.78525161743164,0.07751227915287018,-0.05229834467172623
1761402232974495700,11.860495849609375,9.781661033630371,0.06793547421693802,-0.0463128387928009
1761402232984576800,11.87057666015625,9.78525161743164,0.07152677327394485,-0.05349544435739517
1761402232994658000,11.880657958984376,9.793557167053223,0.07631517946720123,-0.05588964745402336
1761402233004738800,11.89073876953125,9.786823272705078,0.0776619166135788,-0.05843348428606987
1761402233014820400,11.9008203125,9.784428596496582,0.07047931104898453,-0.05364508181810379
1761402233024901000,11.910901123046875,9.784428596496582,0.08005611598491669,-0.057236384600400925
1761402233034982100,11.920982177734375,9.79991626739502,0.06815993040800095,-0.05611410364508629
1761402233045063400,11.9310634765625,9.785626411437988,0.06808511167764664,-0.05364508181810379
1761402233055144200,11.941144287109376,9.786823272705078,0.06928221136331558,-0.04765957593917847
1761402233065225500,11.9512255859375,9.79759693145752,0.07646481692790985,-0.052522800862789154
1761402233075306200,11.96130615234375,9.782034873962402,0.06928221136331558,-0.059630587697029114
1761402233085388000,11.971387939453125,9.791312217712402,0.062024787068367004,-0.054767362773418427
1761402233095468300,11.98146826171875,9.780538558959961,0.07152677327394485,-0.06067804992198944
1761402233105524500,11.9915244140625,9.784130096435547,0.06681319326162338,-0.05357026308774948
1761402233115630600,12.001630615234374,9.785401344299316,0.0644189864397049,-0.04638765752315521
1761402233125712000,12.0117119140625,9.791312217712402,0.07399579882621765,-0.05357026308774948
1761402233135793000,12.02179296875,9.788918495178223,0.0727986991405487,-0.04997896030545235
1761402233145849300,12.031849365234375,9.786523818969727,0.06561609357595444,-0.057161565870046616
1761402233155955000,12.041954833984375,9.788918495178223,0.06561609357595444,-0.057161565870046616
1761402233166036200,12.0520361328125,9.781136512756348,0.06815993040800095,-0.05140051618218422
1761402233176117000,12.062116943359374,9.78824520111084,0.06217442452907562,-0.05259761959314346
1761402233186198300,12.0721982421875,9.779865264892578,0.07055412977933884,-0.057311203330755234
1761402233196254200,12.082254150390625,9.78831958770752,0.06935703009366989,-0.05140051618218422
1761402233206360300,12.0923603515625,9.797821998596191,0.06703764945268631,-0.05267243832349777
1761402233216441300,12.10244140625,9.779939651489258,0.07534253597259521,-0.05611410364508629
1761402233226484500,12.112484375,9.784728050231934,0.06815993040800095,-0.04900631681084633
1761402233236603600,12.122603759765624,9.785924911499023,0.07055412977933884,-0.04900631681084633
1761402233246659300,12.132659423828125,9.784428596496582,0.0752677172422409,-0.054842181503772736
1761402233256766200,12.14276611328125,9.79879379272461,0.06935703009366989,-0.052522800862789154
1761402233266846700,12.1528466796875,9.790414810180664,0.06569091230630875,-0.04414309561252594
1761402233276928000,12.162927978515626,9.785626411437988,0.07287351787090302,-0.06082768738269806
1761402233287009000,12.173009033203124,9.791611671447754,0.06928221136331558,-0.052522800862789154
1761402233297066000,12.18306591796875,9.79520320892334,0.06808511167764664,-0.050128597766160965
1761402233307171000,12.193171142578125,9.788020133972168,0.07167641073465347,-0.04885667935013771
1761402233317252400,12.20325244140625,9.789216995239258,0.06329670548439026,-0.054842181503772736
1761402233327333000,12.2133330078125,9.784278869628906,0.06801029294729233,-0.05117605999112129
1761402233337414100,12.2234140625,9.786673545837402,0.06801029294729233,-0.05364508181810379
1761402233347496000,12.233495849609374,9.793856620788574,0.06329670548439026,-0.054842181503772736
1761402233357576700,12.24357666015625,9.780688285827637,0.06561609357595444,-0.05835866555571556
1761402233367636500,12.253636474609374,9.786673545837402,0.07399579882621765,-0.057161565870046616
1761402233377738500,12.263738525390625,9.790265083312988,0.07399579882621765,-0.050053779035806656
1761402233387819500,12.273819580078126,9.790265083312988,0.06569091230630875,-0.050053779035806656
1761402233397901600,12.283901611328124,9.796250343322754,0.0644938051700592,-0.04406827688217163
1761402233407985200,12.293985107421875,9.788020133972168,0.07047931104898453,-0.054842181503772736
1761402233418058800,12.304058837890626,9.792808532714844,0.0752677172422409,-0.042945992201566696
1761402233428140000,12.31414013671875,9.788020133972168,0.07646481692790985,-0.057236384600400925
1761402233438229500,12.3242294921875,9.791611671447754,0.07287351787090302,-0.05603928491473198
1761402233448306700,12.334306640625,9.788020133972168,0.07047931104898453,-0.054842181503772736
1761402233458383600,12.344383544921875,9.802310943603516,0.07414543628692627,-0.057311203330755234
1761402233468468500,12.354468505859375,9.791611671447754,0.08005611598491669,-0.04893149808049202
1761402233478549500,12.364549560546875,9.786823272705078,0.0644938051700592,-0.052447982132434845
1761402233488630800,12.374630859375,9.78989028930664,0.07504326105117798,-0.051026422530412674
1761402233498671000,12.384671142578124,9.793481826782227,0.07511807978153229,-0.05222352594137192
1761402233508792000,12.3947919921875,9.787496566772461,0.06786065548658371,-0.05342062562704086
1761402233518869500,12.404869384765625,9.795876502990723,0.06554127484560013,-0.05229834467172623
1761402233528954600,12.41495458984375,9.782708168029785,0.06905775517225266,-0.04863222315907478
1761402233539035600,12.42503564453125,9.785101890563965,0.06307224929332733,-0.05222352594137192
1761402233549116700,12.43511669921875,9.793481826782227,0.07504326105117798,-0.04863222315907478
1761402233559197700,12.44519775390625,9.78989028930664,0.06913257390260696,-0.05461772531270981
1761402233569278700,12.45527880859375,9.783007621765137,0.07032967358827591,-0.04997896030545235
1761402233579360000,12.465360107421875,9.786599159240723,0.06913257390260696,-0.04159925505518913
1761402233589437200,12.475437255859376,9.793706893920898,0.07040449231863022,-0.054767362773418427
1761402233599522000,12.48552197265625,9.786523818969727,0.07040449231863022,-0.05117605999112129
1761402233609603600,12.495603515625,9.791387557983398,0.0751928985118866,-0.0487818606197834
1761402233619684400,12.505684326171876,9.794903755187988,0.0751928985118866,-0.052373163402080536
1761402233629745200,12.5157451171875,9.780538558959961,0.06913257390260696,-0.057086747139692307
1761402233639846400,12.525846435546875,9.791312217712402,0.07399579882621765,-0.054767362773418427
1761402233649923600,12.535923583984374,9.788843154907227,0.06793547421693802,-0.05110124126076698
1761402233659986200,12.545986083984374,9.787646293640137,0.07152677327394485,-0.05229834467172623
1761402233670089700,12.55608984375,9.788843154907227,0.0727238729596138,-0.05229834467172623
1761402233680170500,12.56617041015625,9.790040016174316,0.0727238729596138,-0.04511573910713196
1761402233690251500,12.57625146484375,9.790040016174316,0.06075286865234375,-0.04870704188942909
1761402233700332800,12.586332763671875,9.78637409210205,0.06793547421693802,-0.05588964745402336
1761402233710413800,12.596413818359375,9.786449432373047,0.07631517946720123,-0.05229834467172623
1761402233720491000,12.606490966796875,9.788843154907227,0.06913257390260696,-0.0463128387928009
1761402233730576100,12.616576171875,9.792434692382812,0.07631517946720123,-0.05110124126076698
1761402233740657200,12.6266572265625,9.78525161743164,0.07032967358827591,-0.04870704188942909
1761402233750738000,12.636738037109374,9.78525161743164,0.0727238729596138,-0.0463128387928009
1761402233760819200,12.646819091796875,9.78637409210205,0.06075286865234375,-0.061875149607658386
1761402233770900500,12.656900390625,9.794828414916992,0.07511807978153229,-0.05110124126076698
1761402233780977700,12.666977783203125,9.790040016174316,0.06673837453126907,-0.04870704188942909
1761402233791062300,12.677062255859376,9.788843154907227,0.08110358566045761,-0.05110124126076698
1761402233801105000,12.68710498046875,9.781661033630371,0.06913257390260696,-0.057011928409338
1761402233811225000,12.69722509765625,9.792509078979492,0.07160159200429916,-0.04997896030545235
1761402233821305600,12.7073056640625,9.788918495178223,0.05843348428606987,-0.05596446618437767
1761402233831387100,12.71738720703125,9.791312217712402,0.0727986991405487,-0.052373163402080536
1761402233841464000,12.727464111328125,9.785326957702637,0.0644189864397049,-0.05835866555571556
1761402233851549000,12.737548828125,9.785401344299316,0.07152677327394485,-0.04758475720882416
1761402233861630200,12.747630126953124,9.784204483032227,0.07392098009586334,-0.0487818606197834
1761402233871711500,12.75771142578125,9.796100616455078,0.059630587697029114,-0.05835866555571556
1761402233881770200,12.767770263671874,9.797297477722168,0.0751928985118866,-0.05357026308774948
1761402233891873800,12.777873779296876,9.784428596496582,0.07407061755657196,-0.0512508787214756
1761402233901954300,12.787954345703126,9.79640007019043,0.07167641073465347,-0.054917000234127045
1761402233912031200,12.79803125,9.792808532714844,0.06688801199197769,-0.04893149808049202
