time,seconds_elapsed,z,y,x
1761401449165207600,0.13820751953125,0.014827132225036621,-0.033171653747558594,0.030465126037597656
1761401449185392000,0.15839208984375,0.0033453702926635742,0.08488178253173828,0.07761454582214355
1761401449205560000,0.17856005859375,-0.010976076126098633,0.061560630798339844,0.07540416717529297
1761401449225678300,0.19867822265625,-0.022557616233825684,0.07263851165771484,0.024324893951416016
1761401449245877800,0.218877685546875,-0.02612471580505371,0.10956668853759766,0.02017521858215332
1761401449266039600,0.23903955078125,0.05696272850036621,0.0788726806640625,0.08817219734191895
1761401449286180000,0.25918017578125,0.1175118088722229,0.032166481018066406,0.07455635070800781
1761401449306363400,0.27936328125,0.10145729780197144,0.06872081756591797,-0.0649113655090332
1761401449326541300,0.299541259765625,0.09863746166229248,0.0801839828491211,-0.16768550872802734
1761401449346664400,0.31966455078125,0.11553257703781128,0.07688522338867188,-0.14541840553283691
1761401449366830800,0.339830810546875,0.10248708724975586,0.01840686798095703,-0.028223037719726562
1761401449386989800,0.35998974609375,0.036514878273010254,0.03194618225097656,0.04259228706359863
1761401449407173000,0.380173095703125,0.03390216827392578,0.01604938507080078,-0.01717829704284668
1761401449427312400,0.4003125,0.07140153646469116,-0.03098011016845703,-0.09366726875305176
1761401449447497000,0.4204970703125,0.04463297128677368,-0.03322315216064453,-0.10309982299804688
1761401449467640000,0.44064013671875,-0.03874081373214722,0.05067634582519531,-0.1050112247467041
1761401449487820000,0.460820068359375,-0.12343135476112366,0.1900014877319336,-0.15662550926208496
1761401449507987000,0.480987060546875,-0.10678181052207947,0.21649646759033203,-0.2595512866973877
1761401449528144600,0.50114453125,-0.005561709403991699,0.1821422576904297,-0.3298180103302002
1761401449548283400,0.521283447265625,0.011856138706207275,0.15509986877441406,-0.3359239101409912
1761401449568468000,0.541468017578125,-0.03730213642120361,0.17694568634033203,-0.3648512363433838
1761401449588630000,0.561630126953125,-0.005678534507751465,0.1845264434814453,-0.31470823287963867
1761401449608807700,0.5818076171875,0.06491994857788086,0.08005523681640625,-0.08850526809692383
1761401449628954000,0.6019541015625,0.09799826145172119,-0.04040718078613281,0.06665325164794922
1761401449649116000,0.622115966796875,0.10119611024856567,-0.051039695739746094,0.09379696846008301
1761401449669277400,0.64227734375,0.039952635765075684,-0.0019388198852539062,0.07847976684570312
1761401449689439200,0.662439208984375,-0.052206575870513916,0.0052814483642578125,0.16640233993530273
1761401449709601300,0.682601318359375,-0.147661954164505,-0.03271484375,0.24575304985046387
1761401449729763800,0.702763916015625,-0.20162570476531982,-0.027576446533203125,0.18237757682800293
1761401449749924900,0.7229248046875,-0.18341326713562012,0.052102088928222656,0.08119320869445801
1761401449770087000,0.7430869140625,-0.2186005711555481,0.05967521667480469,0.012682676315307617
1761401449790249700,0.763249755859375,-0.2481839954853058,0.06867122650146484,0.03545856475830078
1761401449810383600,0.783383544921875,-0.31240782141685486,0.05639839172363281,0.031230449676513672
1761401449840630500,0.813630615234375,-0.277937114238739,0.12598609924316406,-0.29874634742736816
1761401449860814800,0.83381494140625,-0.2382200062274933,0.09412765502929688,-0.35011839866638184
1761401449880977000,0.853976806640625,-0.15139347314834595,0.14418697357177734,-0.25600218772888184
1761401449901108000,0.87410791015625,-0.1743653118610382,0.02782154083251953,-0.07937026023864746
1761401449921290800,0.894290771484375,-0.24363663792610168,0.04170513153076172,0.12394261360168457
1761401449941460700,0.914460693359375,-0.19213494658470154,0.12758445739746094,0.3750436305999756
1761401449961605400,0.93460546875,-0.09618690609931946,-0.10172748565673828,0.44834232330322266
1761401449981786400,0.954786376953125,-0.07604506611824036,-0.20440196990966797,0.4583265781402588
1761401450001948400,0.974948486328125,-0.10453853011131287,-0.13527679443359375,0.45348405838012695
1761401450022101200,0.995101318359375,0.03446400165557861,-0.18011188507080078,0.3996315002441406
1761401450042253300,1.01525341796875,0.22181540727615356,-0.20096302032470703,0.3897535800933838
1761401450062433500,1.03543359375,0.23022234439849854,-0.09948921203613281,0.37563467025756836
1761401450082595000,1.055594970703125,0.09878981113433838,0.08019256591796875,0.2793867588043213
1761401450102757600,1.075757568359375,-0.018552124500274658,0.009495735168457031,0.08959150314331055
1761401450122896600,1.095896728515625,-0.014558553695678711,0.03603553771972656,-0.030057907104492188
1761401450143084000,1.116083984375,0.07578718662261963,0.1114492416381836,-0.06496953964233398
1761401450163242800,1.13624267578125,0.17496371269226074,0.12349414825439453,-0.12594127655029297
1761401450183393800,1.156393798828125,0.24095463752746582,0.17726993560791016,-0.2443537712097168
1761401450203567000,1.176567138671875,0.14426153898239136,0.15331172943115234,-0.22291207313537598
1761401450223728400,1.196728271484375,0.044876694679260254,0.11526775360107422,-0.11672568321228027
1761401450243879400,1.21687939453125,0.03706401586532593,0.17063522338867188,-0.1976466178894043
1761401450264052700,1.237052734375,0.010241270065307617,0.22161102294921875,-0.36507129669189453
1761401450284204500,1.25720458984375,0.09301507472991943,0.17498779296875,-0.4344022274017334
1761401450304376600,1.27737646484375,0.19768089056015015,0.15812015533447266,-0.39920592308044434
1761401450324528000,1.297528076171875,0.20455282926559448,0.20842838287353516,-0.23331332206726074
1761401450344689700,1.317689697265625,0.20426726341247559,0.15738582611083984,-0.0620570182800293
1761401450364839000,1.3378388671875,0.15520131587982178,0.04891777038574219,0.1401975154876709
1761401450385024000,1.35802392578125,0.09603816270828247,0.008519172668457031,0.27600741386413574
1761401450405185800,1.378185791015625,0.08654695749282837,-0.04474449157714844,0.28415441513061523
1761401450425328600,1.39832861328125,0.11308717727661133,-0.10527420043945312,0.20576167106628418
1761401450445499000,1.418498779296875,0.13459324836730957,-0.08723735809326172,0.18027067184448242
1761401450465662000,1.438661865234375,0.08013749122619629,0.010629653930664062,0.1274726390838623
1761401450485822700,1.45882275390625,-0.0038567781448364258,0.04661083221435547,0.029261350631713867
1761401450505984000,1.47898388671875,-0.029593586921691895,0.03866291046142578,-0.0637505054473877
1761401450526157300,1.4991572265625,0.008274257183074951,0.04617118835449219,-0.08152413368225098
1761401450546310400,1.519310302734375,0.08366662263870239,0.05927562713623047,-0.042490482330322266
1761401450566481000,1.53948095703125,0.10359156131744385,0.06849288940429688,-0.024709224700927734
1761401450586633700,1.5596337890625,0.09910076856613159,0.04952812194824219,0.006409645080566406
1761401450606807300,1.579807373046875,0.09139186143875122,0.004299163818359375,-0.018390893936157227
1761401450626963700,1.599963623046875,0.045622289180755615,0.06480693817138672,-0.004734516143798828
1761401450647105000,1.62010498046875,0.055553138256073,0.10942268371582031,-0.06688761711120605
1761401450667290400,1.640290283203125,0.041419148445129395,0.07448005676269531,-0.04017496109008789
1761401450687458000,1.6604580078125,0.030238330364227295,0.058455467224121094,0.05582404136657715
1761401450707602700,1.680602783203125,-0.006198704242706299,-0.004265785217285156,0.15203475952148438
1761401450727762000,1.700761962890625,-0.04699277877807617,-0.07477855682373047,0.23291373252868652
1761401450747936300,1.720936279296875,-0.03190958499908447,-0.08431720733642578,0.2869260311126709
1761401450768100000,1.74110009765625,-0.052240192890167236,-0.027944564819335938,0.27613329887390137
1761401450788262000,1.761261962890625,-0.08841395378112793,-0.01366424560546875,0.23028111457824707
1761401450808412200,1.781412109375,-0.10881513357162476,-0.0012874603271484375,0.1841602325439453
1761401450828578300,1.801578369140625,-0.07677966356277466,0.021867752075195312,0.09177589416503906
1761401450848726300,1.821726318359375,-0.02931082248687744,0.07891082763671875,0.06144142150878906
1761401450868906200,1.84190625,0.03175163269042969,0.045632362365722656,0.09488892555236816
1761401450889060000,1.86206005859375,0.05456817150115967,0.027074813842773438,0.09653615951538086
1761401450909233400,1.8822333984375,0.013958513736724854,-0.006255149841308594,0.05919933319091797
1761401450929393400,1.902393310546875,-0.0177726149559021,0.00844573974609375,0.04383134841918945
1761401450949556500,1.922556396484375,-0.030692994594573975,0.0629720687866211,0.06262922286987305
1761401450969706000,1.9427060546875,-0.028639256954193115,0.10941696166992188,-0.0191650390625
1761401450989869600,1.96286962890625,0.0016229748725891113,0.07649421691894531,-0.07817220687866211
1761401451010042400,1.98304248046875,0.002647697925567627,0.025526046752929688,-0.08465266227722168
1761401451030204200,2.0032041015625,-0.0005857348442077637,0.05364990234375,-0.054821014404296875
1761401451050354400,2.0233544921875,0.056878626346588135,0.019858360290527344,-0.04031515121459961
1761401451070530300,2.0435302734375,0.04308408498764038,0.03872108459472656,-0.03400087356567383
1761401451090670300,2.06367041015625,-0.015605747699737549,0.07480335235595703,-0.06486892700195312
1761401451110841300,2.08384130859375,-0.050163209438323975,0.08296966552734375,-0.022583961486816406
1761401451131012000,2.10401220703125,-0.019005775451660156,0.045429229736328125,-0.02861166000366211
1761401451151164200,2.1241640625,0.019707918167114258,0.016907691955566406,-0.04053092002868652
1761401451171326500,2.144326416015625,0.022613227367401123,0.03329658508300781,-0.013290643692016602
1761401451191496400,2.164496337890625,-0.0031333565711975098,0.043061256408691406,0.04045844078063965
1761401451211648000,2.18464794921875,0.011961162090301514,0.0011615753173828125,0.038904666900634766
1761401451231823000,2.204822998046875,-0.00028145313262939453,-0.041233062744140625,0.08501338958740234
1761401451251984600,2.224984619140625,-0.0686025619506836,-0.010773658752441406,0.11503458023071289
1761401451272150000,2.24514990234375,-0.1215205192565918,0.01658153533935547,0.09136247634887695
1761401451292306400,2.265306396484375,-0.08385854959487915,0.050004005432128906,0.057582855224609375
1761401451312471300,2.28547119140625,-0.022848665714263916,0.03875732421875,0.022642850875854492
1761401451332632600,2.305632568359375,-0.03877657651901245,0.04830455780029297,0.054674625396728516
1761401451352794600,2.325794677734375,-0.10560083389282227,0.08126449584960938,0.04566359519958496
1761401451372956700,2.345956787109375,-0.14486795663833618,0.08219528198242188,0.003917217254638672
1761401451393117700,2.36611767578125,-0.13589423894882202,0.07195568084716797,0.05954551696777344
1761401451413269800,2.386269775390625,-0.10461753606796265,0.0272369384765625,0.08782744407653809
1761401451433441500,2.406441650390625,-0.07605332136154175,0.02280902862548828,0.10783195495605469
1761401451453613800,2.42661376953125,-0.08079588413238525,0.037911415100097656,0.0608065128326416
1761401451473758700,2.4467587890625,-0.08806568384170532,0.05565357208251953,0.048525333404541016
1761401451493917400,2.46691748046875,-0.12409722805023193,0.030733108520507812,0.06254196166992188
1761401451514077400,2.487077392578125,-0.1517277956008911,0.027454376220703125,0.04266643524169922
1761401451534251300,2.507251220703125,-0.12608665227890015,0.008913993835449219,-0.005285501480102539
1761401451554411800,2.527411865234375,-0.09172356128692627,0.03274059295654297,-0.010710000991821289
1761401451574574600,2.54757470703125,-0.05735170841217041,-0.0051174163818359375,0.03197169303894043
1761401451594725400,2.567725341796875,-0.03237044811248779,0.011746406555175781,0.11558318138122559
1761401451614887000,2.587886962890625,-0.009710371494293213,0.0640268325805664,0.08442330360412598
1761401451635041300,2.608041259765625,-0.0009576082229614258,0.0068206787109375,-0.03017282485961914
1761401451655222800,2.628222900390625,-0.04405796527862549,0.011552810668945312,-0.03424692153930664
1761401451675373000,2.648373046875,-0.09792017936706543,0.015200614929199219,0.027074098587036133
1761401451695526400,2.6685263671875,-0.07169121503829956,0.031950950622558594,0.04191136360168457
1761401451715699200,2.68869921875,-0.06561148166656494,0.08887767791748047,0.047159433364868164
1761401451735870200,2.7088701171875,-0.07469278573989868,0.06950664520263672,0.008716583251953125
1761401451756020700,2.729020751953125,-0.05700218677520752,0.033509254455566406,0.04655170440673828
1761401451776182800,2.749182861328125,-0.020519018173217773,0.053626060485839844,0.05012011528015137
1761401451796355800,2.76935595703125,-0.003240525722503662,0.06327629089355469,0.0212247371673584
1761401451816518000,2.789517822265625,0.012042641639709473,0.0750732421875,-0.05125927925109863
1761401451836668200,2.809668212890625,0.020109355449676514,0.045744895935058594,-0.03055262565612793
1761401451856842200,2.82984228515625,0.018285751342773438,0.03911590576171875,0.018584012985229492
1761401451877003800,2.850003662109375,-0.015239715576171875,0.023366928100585938,0.040268659591674805
1761401451897164000,2.8701640625,0.0011401176452636719,-0.0020017623901367188,0.05486416816711426
1761401451917315600,2.890315673828125,0.024779915809631348,0.024921417236328125,0.05143141746520996
1761401451937489000,2.910489013671875,0.017819464206695557,0.060196876525878906,0.010542869567871094
1761401451957639200,2.93063916015625,0.04179728031158447,0.0678396224975586,-0.05058550834655762
1761401451977813000,2.95081298828125,0.013354361057281494,0.057312965393066406,-0.06490731239318848
1761401451997972200,2.97097216796875,-0.023975133895874023,0.06872940063476562,-0.09564900398254395
1761401452018128400,2.99112841796875,-0.0020254850387573242,0.09561538696289062,-0.09011983871459961
1761401452038286800,3.011286865234375,0.07848614454269409,0.052392005920410156,-0.02541494369506836
1761401452058460400,3.03146044921875,0.11454015970230103,0.04297161102294922,-0.06976127624511719
1761401452078620200,3.0516201171875,0.027838587760925293,0.10863685607910156,-0.017601728439331055
1761401452098784300,3.0717841796875,-0.020030200481414795,0.04447650909423828,0.054497480392456055
1761401452118934500,3.0919345703125,-0.004226744174957275,-0.00038242340087890625,0.04398775100708008
1761401452139096300,3.112096435546875,0.047400712966918945,0.04999542236328125,0.013649463653564453
1761401452159270100,3.132270263671875,0.00589299201965332,0.09272193908691406,-0.020528793334960938
1761401452179431200,3.15243115234375,-0.03557741641998291,0.03513050079345703,0.008107900619506836
1761401452199582700,3.172582763671875,-0.06622093915939331,-0.015465736389160156,0.0459902286529541
1761401452219745800,3.192745849609375,-0.013548612594604492,0.05307197570800781,0.06396746635437012
1761401452239917300,3.212917236328125,0.07004028558731079,0.03205394744873047,0.05686068534851074
1761401452260079400,3.233079345703125,0.10153383016586304,-0.0031633377075195312,0.022891759872436523
1761401452280241200,3.2532412109375,0.0615924596786499,0.05838298797607422,-0.027048826217651367
1761401452300415700,3.273415771484375,0.06152462959289551,0.05646800994873047,-0.04584074020385742
1761401452320571100,3.293571044921875,0.09238201379776001,0.030645370483398438,-0.06374192237854004
1761401452340726300,3.313726318359375,0.09398365020751953,0.054610252380371094,-0.07590627670288086
1761401452360893400,3.3338935546875,0.04187041521072388,0.09827518463134766,-0.03716015815734863
1761401452381027800,3.35402783203125,-0.007774174213409424,0.059844017028808594,0.014163017272949219
1761401452401186800,3.374186767578125,0.011710762977600098,0.012882232666015625,0.024391889572143555
1761401452421351700,3.3943515625,0.019636809825897217,0.021915435791015625,0.024628877639770508
1761401452441512000,3.414511962890625,0.005324125289916992,0.0662851333618164,0.03273820877075195
1761401452461683000,3.434682861328125,-0.0007848143577575684,0.05290699005126953,0.02930140495300293
1761401452481852000,3.454851806640625,0.019028663635253906,0.045993804931640625,0.03176736831665039
1761401452502021600,3.475021728515625,0.04899626970291138,0.022998809814453125,0.0336456298828125
1761401452522172400,3.49517236328125,0.018677949905395508,0.0037364959716796875,-0.01781916618347168
1761401452542335500,3.51533544921875,0.03124547004699707,0.09246349334716797,0.011270999908447266
1761401452562507500,3.535507568359375,0.0335049033164978,0.0868234634399414,0.04255080223083496
1761401452582657500,3.555657470703125,0.05066949129104614,0.035529136657714844,-0.02701282501220703
1761401452602831000,3.5758310546875,0.05547022819519043,0.037445068359375,-0.03475666046142578
1761401452622982000,3.59598193359375,0.049853503704071045,0.0657958984375,-0.023566246032714844
1761401452643155000,3.616155029296875,0.06553155183792114,0.04611396789550781,-0.00024318695068359375
1761401452663317000,3.63631689453125,0.04204839468002319,0.030893325805664062,0.018125534057617188
1761401452683478500,3.656478515625,0.013593852519989014,0.04255390167236328,0.06066274642944336
1761401452703629300,3.67662939453125,-0.007547855377197266,0.038168907165527344,0.07402682304382324
1761401452723802000,3.696802001953125,-0.0007554888725280762,0.04333782196044922,0.03404545783996582
1761401452743953000,3.716952880859375,-0.016720294952392578,0.05257225036621094,0.023858308792114258
1761401452764126700,3.737126708984375,0.005119979381561279,0.06698226928710938,0.03174281120300293
1761401452784288300,3.757288330078125,0.008423924446105957,0.052753448486328125,0.002960205078125
1761401452804442400,3.7774423828125,0.015858113765716553,0.031126022338867188,0.001241445541381836
1761401452824600300,3.797600341796875,0.027009665966033936,0.036292076110839844,0.03971219062805176
1761401452844773600,3.817773681640625,0.006318807601928711,0.05720996856689453,0.023970603942871094
1761401452864947700,3.83794775390625,-0.008008897304534912,0.034270286560058594,-0.02584075927734375
1761401452885079300,3.858079345703125,-0.008606493473052979,0.014142990112304688,0.0015003681182861328
1761401452905259300,3.87825927734375,-0.007106602191925049,0.006213188171386719,0.052138328552246094
1761401452925421300,3.89842138671875,-0.01760077476501465,0.05202484130859375,0.03780055046081543
1761401452945583400,3.918583251953125,-0.019704461097717285,0.07860183715820312,0.028297901153564453
1761401452965747200,3.938747314453125,0.0046506524085998535,0.017816543579101562,0.06634378433227539
1761401452985906700,3.95890673828125,-0.05537903308868408,0.03446006774902344,0.042244911193847656
1761401453006068700,3.97906884765625,-0.03923875093460083,0.06490802764892578,0.016922712326049805
1761401453026230800,3.999230712890625,0.00995570421218872,0.024397850036621094,0.05996394157409668
1761401453046392800,4.019392822265625,0.04188758134841919,0.03479766845703125,0.007158756256103516
1761401453066543600,4.039543701171875,-0.035994768142700195,0.041678428649902344,-0.0027818679809570312
1761401453086716200,4.059716064453125,-0.04969346523284912,0.027851104736328125,0.04872941970825195
1761401453106878200,4.079878173828125,-0.04424583911895752,0.001270294189453125,0.08882546424865723
1761401453127040300,4.100040283203125,-0.03497070074081421,0.038909912109375,0.04636716842651367
1761401453147202300,4.120202392578125,-0.08002275228500366,0.05619335174560547,0.04218769073486328
1761401453167363800,4.14036376953125,-0.06078368425369263,-0.0013189315795898438,0.05989575386047363
1761401453187526000,4.16052587890625,-0.03391420841217041,0.03141593933105469,0.04081368446350098
1761401453207693300,4.180693359375,-0.0055544376373291016,0.07831287384033203,-0.006241559982299805
1761401453227850000,4.20085009765625,0.03273254632949829,0.07505035400390625,-0.04017233848571777
1761401453248011300,4.22101123046875,0.03570282459259033,0.025023460388183594,-0.0028924942016601562
1761401453268173300,4.24117333984375,-0.010072588920593262,0.00045299530029296875,0.02081131935119629
1761401453288323600,4.261323486328125,-0.02791959047317505,0.05660438537597656,0.016192913055419922
1761401453308497400,4.281497314453125,-0.012633562088012695,0.0588531494140625,-0.014996528625488281
1761401453328662000,4.301662109375,-0.009530723094940186,0.039971351623535156,0.004110097885131836
1761401453348821000,4.321821044921875,-0.04636484384536743,0.024435043334960938,0.04982113838195801
1761401453368982300,4.341982177734375,-0.06799232959747314,0.026058197021484375,0.04911470413208008
1761401453389145000,4.36214501953125,-0.035631000995635986,0.03801155090332031,0.011810064315795898
1761401453409297700,4.382297607421875,0.03196519613265991,0.05092430114746094,0.018763065338134766
1761401453429468200,4.40246826171875,0.008437514305114746,0.047057151794433594,0.0643467903137207
1761401453449630200,4.422630126953125,-0.05660730600357056,0.008955955505371094,0.05621194839477539
1761401453469793000,4.44279296875,-0.03736597299575806,0.033492088317871094,0.010123014450073242
1761401453489932800,4.462932861328125,-0.015739738941192627,0.07158756256103516,0.015277862548828125
1761401453510115600,4.483115478515625,0.056197524070739746,0.06913948059082031,-0.02142167091369629
1761401453530277400,4.50327734375,0.015404999256134033,0.07147407531738281,-0.037894487380981445
1761401453550439400,4.523439453125,-0.003903627395629883,0.03129768371582031,-0.02133774757385254
1761401453570601700,4.543601806640625,-0.018332302570343018,0.010685920715332031,0.004199028015136719
1761401453590763500,4.563763427734375,-0.002869129180908203,0.0028972625732421875,0.020014524459838867
1761401453610925000,4.583925048828125,-0.010026276111602783,0.05238151550292969,0.008771419525146484
1761401453631087000,4.604087158203125,-0.000012516975402832031,0.047736167907714844,0.02859807014465332
1761401453651249000,4.624248779296875,0.012804508209228516,0.03463172912597656,0.025900840759277344
1761401453671401000,4.64440087890625,0.021580755710601807,0.05113697052001953,0.009757757186889648
1761401453691551200,4.66455126953125,-0.00028324127197265625,0.05397796630859375,0.016005754470825195
1761401453711734800,4.68473486328125,-0.003639698028564453,0.07030963897705078,-0.009979248046875
1761401453731896000,4.70489599609375,0.00009387731552124023,0.025293350219726562,-0.024651288986206055
1761401453752058600,4.72505859375,0.0007244348526000977,0.03621196746826172,-0.02171039581298828
1761401453772220200,4.74522021484375,-0.0108642578125,0.08407306671142578,0.010670661926269531
1761401453792367600,4.76536767578125,-0.03860670328140259,0.08672809600830078,-0.005021572113037109
1761401453812537000,4.785537109375,-0.016922712326049805,0.03494548797607422,-0.026332855224609375
1761401453832705800,4.805705810546875,0.0024367570877075195,0.014247894287109375,0.023962020874023438
1761401453852868600,4.82586865234375,-0.0261499285697937,0.046680450439453125,0.020704984664916992
1761401453873030000,4.84602978515625,-0.018105030059814453,0.055660247802734375,0.013728857040405273
1761401453893173500,4.866173583984375,-0.008228302001953125,0.058852195739746094,0.051056861877441406
1761401453913353700,4.886353759765625,-0.012305915355682373,0.033242225646972656,0.052994489669799805
1761401453933515300,4.906515380859375,-0.031275272369384766,0.0330047607421875,-0.00636744499206543
1761401453953667300,4.926667236328125,-0.020623862743377686,0.07564258575439453,0.0033533573150634766
1761401453973838600,4.946838623046875,0.015771150588989258,0.09429931640625,-0.02137613296508789
1761401453994001000,4.9670009765625,0.017776072025299072,0.06548690795898438,-0.007459163665771484
1761401454014163200,4.9871630859375,0.059688448905944824,0.046845436096191406,0.004293918609619141
1761401454034305500,5.007305419921875,0.04348182678222656,0.000278472900390625,-0.006978273391723633
1761401454054477600,5.0274775390625,-0.004249215126037598,0.06096458435058594,-0.027748584747314453
1761401454074648600,5.047648681640625,-0.014638543128967285,0.061183929443359375,-0.018863201141357422
1761401454094803500,5.067803466796875,0.0104217529296875,0.05512237548828125,0.0027153491973876953
1761401454114972200,5.08797216796875,0.018034636974334717,0.057806968688964844,0.015890121459960938
1761401454135134000,5.108134033203125,0.049866557121276855,0.07673358917236328,-0.013192176818847656
1761401454155284500,5.128284423828125,0.011501848697662354,0.06538200378417969,-0.022542476654052734
1761401454175448800,5.14844873046875,0.023021161556243896,0.031876564025878906,0.006561279296875
1761401454195619300,5.168619384765625,0.01725250482559204,0.03763866424560547,0.019796371459960938
1761401454215770600,5.1887705078125,0.02093982696533203,0.05726814270019531,0.031653404235839844
1761401454235943400,5.208943359375,0.008691847324371338,0.04641437530517578,0.0027027130126953125
1761401454256105200,5.229105224609375,0.009328782558441162,0.04662799835205078,0.006211996078491211
1761401454276266800,5.249266845703125,0.03765738010406494,0.027350425720214844,0.041142940521240234
1761401454296429000,5.269428955078125,0.003282010555267334,0.032955169677734375,0.013005495071411133
1761401454316591600,5.289591552734375,-0.009822845458984375,0.052969932556152344,0.020217418670654297
1761401454336753000,5.3097529296875,0.026188433170318604,0.014876365661621094,0.05863690376281738
1761401454356908000,5.329907958984375,0.029897093772888184,-0.00873565673828125,0.03329300880432129
1761401454377077000,5.350076904296875,-0.02467048168182373,0.04882526397705078,0.011359453201293945
1761401454397237500,5.370237548828125,-0.00730586051940918,0.0693521499633789,0.00535273551940918
1761401454417413000,5.3904130859375,0.008578896522521973,0.040389060974121094,0.06693863868713379
1761401454437562400,5.410562255859375,0.0209924578666687,0.02947235107421875,0.044049739837646484
1761401454457724000,5.430723876953125,-0.013971030712127686,0.07065010070800781,-0.006312370300292969
1761401454477894700,5.450894775390625,-0.0024244189262390137,0.061217308044433594,0.005607128143310547
1761401454498047500,5.471047607421875,0.004221558570861816,0.025193214416503906,0.05175662040710449
1761401454518209500,5.49120947265625,-0.02601170539855957,-0.006466865539550781,0.05574941635131836
1761401454538371300,5.511371337890625,-0.03804624080657959,0.03442668914794922,0.037880659103393555
1761401454558498000,5.531498046875,-0.042473435401916504,0.06671905517578125,0.027146339416503906
1761401454578695200,5.551695068359375,-0.02491658926010132,0.03526020050048828,0.02883601188659668
1761401454598845000,5.571844970703125,-0.017255723476409912,0.05841255187988281,0.034543752670288086
1761401454619019500,5.59201953125,-0.005813539028167725,0.0787649154663086,0.027776002883911133
1761401454639180500,5.6121806640625,0.00537186861038208,0.04974079132080078,0.02563023567199707
1761401454659343000,5.632343017578125,0.013581573963165283,0.032090187072753906,0.012050628662109375
1761401454679495400,5.652495361328125,0.0127602219581604,0.009169578552246094,-0.0016498565673828125
1761401454699666400,5.67266650390625,0.007938802242279053,0.03208732604980469,-0.014983415603637695
1761401454719819000,5.692819091796875,0.011542797088623047,0.04151725769042969,-0.014517068862915039
1761401454739979000,5.71297900390625,0.010300755500793457,0.07018184661865234,-0.009016036987304688
1761401454760152300,5.73315234375,0.014527201652526855,0.043254852294921875,-0.0005905628204345703
1761401454780314400,5.753314453125,-0.0065746307373046875,0.06684017181396484,-0.010359764099121094
1761401454800476400,5.773476318359375,-0.004676103591918945,0.06842422485351562,-0.037056922912597656
1761401454820638000,5.793637939453125,0.005059719085693359,0.023508071899414062,-0.006379842758178711
1761401454840799500,5.813799560546875,-0.004343092441558838,0.04765510559082031,0.001468658447265625
1761401454860950300,5.8339501953125,0.027832388877868652,0.050629615783691406,0.007721424102783203
1761401454881123000,5.854123046875,-0.015245318412780762,0.04904365539550781,0.035737037658691406
1761401454901273600,5.874273681640625,-0.015561342239379883,0.046944618225097656,0.012821674346923828
1761401454921448000,5.894447998046875,-0.007203042507171631,0.028621673583984375,-0.004632711410522461
1761401454941609000,5.91460888671875,0.0065871477127075195,0.027399063110351562,0.0071544647216796875
1761401454961780500,5.934780517578125,0.02789759635925293,0.023382186889648438,0.039929866790771484
1761401454981932800,5.954932861328125,0.010348498821258545,0.03391742706298828,0.04918098449707031
1761401455002095000,5.97509521484375,-0.021476387977600098,0.06232166290283203,0.019997835159301758
1761401455022245600,5.99524560546875,-0.02226012945175171,0.04324913024902344,0.0298459529876709
1761401455042418200,6.015418212890625,-0.0172157883644104,0.04189014434814453,0.049453020095825195
1761401455062581200,6.035581298828125,0.00898134708404541,0.040256500244140625,0.0352482795715332
1761401455082730500,6.05573046875,0.008181750774383545,0.041527748107910156,0.053873538970947266
1761401455102904000,6.075904052734375,0.0008100271224975586,0.025938034057617188,0.032181739807128906
1761401455123053300,6.09605322265625,0.015320837497711182,0.015351295471191406,0.024915695190429688
1761401455143228000,6.116227783203125,0.017821967601776123,0.04749870300292969,0.007781028747558594
1761401455163390700,6.136390625,-0.01540529727935791,0.06167793273925781,-0.009142398834228516
1761401455183536400,6.156536376953125,-0.006357252597808838,0.0485992431640625,0.039739370346069336
1761401455203691800,6.17669189453125,0.014604508876800537,0.013830184936523438,0.07580256462097168
1761401455223874800,6.196874755859375,-0.0027830004692077637,0.026963233947753906,0.042325735092163086
1761401455244037400,6.217037353515625,-0.019829988479614258,0.06080341339111328,0.010486125946044922
1761401455264193000,6.237193115234375,-0.015747904777526855,0.059309959411621094,0.0354461669921875
1761401455284361500,6.257361572265625,-0.0037633776664733887,0.004094123840332031,0.03733420372009277
1761401455304523500,6.2775234375,0.012697339057922363,0.009276390075683594,0.0027604103088378906
1761401455324685300,6.297685302734375,0.0252455472946167,0.08199214935302734,0.022588253021240234
1761401455344848000,6.317847900390625,0.026182830333709717,0.06109428405761719,0.012890815734863281
1761401455365001000,6.3380009765625,0.015607833862304688,0.03580188751220703,-0.04177498817443848
1761401455385171500,6.35817138671875,-0.013413488864898682,0.03542613983154297,-0.027457714080810547
1761401455405333200,6.378333251953125,-0.012901067733764648,0.05205821990966797,0.02916240692138672
1761401455425453000,6.398453125,0.007415473461151123,0.04630279541015625,0.024492979049682617
1761401455445637400,6.418637451171875,0.009123027324676514,0.06659698486328125,0.01924920082092285
1761401455465818600,6.438818603515625,-0.013912558555603027,0.024010658264160156,0.019704580307006836
1761401455485980200,6.458980224609375,-0.006661653518676758,0.023023605346679688,-0.014038801193237305
1761401455506142200,6.47914208984375,-0.02970576286315918,0.08503913879394531,-0.014550209045410156
1761401455526304000,6.499303955078125,-0.01718956232070923,0.05933570861816406,0.015477180480957031
1761401455546467000,6.519467041015625,-0.03255152702331543,0.05826377868652344,0.025302648544311523
1761401455566628000,6.539628173828125,-0.021716594696044922,0.030040740966796875,0.029247760772705078
1761401455586789400,6.559789306640625,-0.012380421161651611,0.05377197265625,0.0058383941650390625
1761401455606952400,6.579952392578125,-0.004979729652404785,0.037596702575683594,-0.011234521865844727
1761401455627090700,6.600090576171875,0.00018209218978881836,0.046973228454589844,0.009929418563842773
1761401455647252700,6.620252685546875,-0.024716436862945557,0.06907176971435547,0.011666536331176758
1761401455667414300,6.640414306640625,-0.00604480504989624,0.03404712677001953,0.021469593048095703
1761401455687576300,6.660576416015625,0.0038055777549743652,0.03128242492675781,0.020914077758789062
1761401455707737000,6.680737060546875,0.0048871636390686035,0.041420936584472656,0.010194540023803711
1761401455727923700,6.700923828125,-0.020679473876953125,0.021907806396484375,0.03135323524475098
1761401455748084700,6.721084716796875,-0.02300506830215454,0.028603553771972656,0.025825977325439453
1761401455768247000,6.7412470703125,0.00774914026260376,0.08710098266601562,-0.04684281349182129
1761401455788408000,6.761407958984375,0.0010365843772888184,0.08222389221191406,-0.013813495635986328
1761401455808570600,6.781570556640625,0.012708008289337158,0.033100128173828125,0.009754419326782227
1761401455828732700,6.801732666015625,0.01556241512298584,0.04379844665527344,-0.0055027008056640625
1761401455848894500,6.82189453125,0.022731006145477295,0.01801776885986328,0.00669097900390625
1761401455869056000,6.842055908203125,0.019189298152923584,0.01667308807373047,0.0387723445892334
1761401455889217800,6.8622177734375,-0.0045125484466552734,0.05231666564941406,0.05314493179321289
1761401455909380900,6.882380859375,-0.043019235134124756,0.04430103302001953,0.05803561210632324
1761401455929543000,6.90254296875,-0.02431356906890869,0.030365943908691406,0.05474495887756348
1761401455949683200,6.92268310546875,-0.009843826293945312,0.060494422912597656,0.040808916091918945
1761401455969865000,6.942864990234375,-0.0010984539985656738,0.053191184997558594,0.03799724578857422
1761401455990027800,6.96302783203125,-0.011276781558990479,0.030744552612304688,0.03364133834838867
1761401456010166000,6.983166015625,-0.03212076425552368,0.022176742553710938,0.020514488220214844
1761401456030351600,7.0033515625,-0.01930069923400879,0.037283897399902344,0.009441852569580078
1761401456050513400,7.023513427734375,0.01762288808822632,0.054099082946777344,0.0018892288208007812
1761401456070674400,7.04367431640625,0.025710999965667725,0.05471324920654297,-0.008890628814697266
1761401456090837800,7.063837646484375,0.013463914394378662,0.06043052673339844,-0.007931947708129883
1761401456110999300,7.083999267578125,0.015539228916168213,0.042992591857910156,-0.0002703666687011719
1761401456131160300,7.104160400390625,0.012841880321502686,0.04636669158935547,0.013538599014282227
1761401456151322600,7.124322509765625,0.010840892791748047,0.053727149963378906,-0.0011742115020751953
1761401456171483100,7.144483154296875,0.01598137617111206,0.048056602478027344,-0.01694178581237793
1761401456191627800,7.164627685546875,-0.009434282779693604,0.031147003173828125,0.01724100112915039
1761401456211794400,7.18479443359375,-0.02145254611968994,0.02864360809326172,0.008524179458618164
1761401456231969000,7.204968994140625,-0.037573933601379395,0.06874370574951172,0.014227867126464844
1761401456252132000,7.225132080078125,-0.0031864047050476074,0.07647132873535156,-0.0048639774322509766
1761401456272271000,7.24527099609375,0.02601802349090576,0.05666160583496094,-0.010825157165527344
1761401456292456400,7.26545654296875,0.025528907775878906,0.02353954315185547,0.021137714385986328
1761401456312617700,7.28561767578125,-0.0009306073188781738,0.02701091766357422,0.04232025146484375
1761401456332778800,7.30577880859375,-0.01930004358291626,0.027936935424804688,0.05266880989074707
1761401456352937700,7.325937744140625,-0.016685068607330322,0.03348255157470703,0.06299734115600586
1761401456373084200,7.346084228515625,-0.001871943473815918,0.029666900634765625,0.06211376190185547
1761401456393264400,7.366264404296875,-0.007156074047088623,0.044043540954589844,0.049430131912231445
1761401456413427000,7.386427001953125,-0.010475635528564453,0.0522918701171875,0.050908565521240234
1761401456433588200,7.406588134765625,-0.02231013774871826,0.038421630859375,0.06259894371032715
1761401456453751000,7.4267509765625,-0.02720797061920166,0.022243499755859375,0.045807600021362305
1761401456473912800,7.446912841796875,-0.004393875598907471,0.011132240295410156,0.02819347381591797
1761401456494051600,7.467051513671875,0.008129715919494629,0.012194633483886719,0.035210371017456055
1761401456514219500,7.487219482421875,-0.013078689575195312,0.033493995666503906,0.042365312576293945
1761401456534398700,7.507398681640625,-0.04344898462295532,0.03951454162597656,0.05502009391784668
1761401456554560300,7.527560302734375,-0.04153949022293091,0.039394378662109375,0.06278777122497559
1761401456574722600,7.54772265625,-0.021000921726226807,0.0012826919555664062,0.06336832046508789
1761401456594884000,7.567884033203125,-0.023111283779144287,0.004608154296875,0.07454371452331543
1761401456615045600,7.588045654296875,-0.016318202018737793,0.05971050262451172,0.0745091438293457
1761401456635207200,7.608207275390625,-0.025622129440307617,0.02624797821044922,0.04543185234069824
1761401456655370500,7.62837060546875,-0.0288657546043396,-0.010844230651855469,0.018912076950073242
1761401456675531300,7.64853125,-0.017182886600494385,0.04598522186279297,0.024896860122680664
1761401456695693000,7.668693115234375,-0.03209948539733887,0.0800790786743164,0.008063554763793945
1761401456715854800,7.688854736328125,-0.02433609962463379,0.05878448486328125,-0.005518436431884766
1761401456736017400,7.709017333984375,0.007757306098937988,0.025190353393554688,0.02839374542236328
1761401456756179500,7.729179443359375,0.007853925228118896,0.013866424560546875,0.01689004898071289
1761401456776340700,7.7493408203125,-0.0006499886512756348,0.03933525085449219,-0.0052797794342041016
1761401456796503000,7.7695029296875,0.00675731897354126,0.03814983367919922,0.0331878662109375
1761401456816637700,7.7896376953125,-0.0033019185066223145,0.043476104736328125,0.055188894271850586
1761401456836806700,7.809806640625,-0.021021783351898193,0.04691505432128906,0.00018525123596191406
1761401456856988700,7.82998876953125,-0.016052842140197754,0.06280803680419922,0.0033333301544189453
1761401456877150000,7.85014990234375,-0.00843513011932373,0.0625457763671875,0.030560731887817383
1761401456897312000,7.87031201171875,-0.00841987133026123,0.05360698699951172,0.00498199462890625
1761401456917450200,7.8904501953125,0.002930939197540283,0.04428863525390625,-0.01760387420654297
1761401456937636000,7.910635986328125,0.006595730781555176,0.041693687438964844,-0.006146907806396484
1761401456957783300,7.930783203125,-0.024169504642486572,0.0464019775390625,-0.01975107192993164
1761401456977936400,7.950936279296875,-0.017675399780273438,0.04683876037597656,-0.030173063278198242
1761401456998121200,7.971121337890625,0.0007743239402770996,0.07143783569335938,-0.016604185104370117
1761401457018282800,7.99128271484375,0.03063368797302246,0.025678634643554688,0.0006909370422363281
1761401457038445800,8.01144580078125,0.017957866191864014,0.0673818588256836,-0.012734174728393555
1761401457058606800,8.03160693359375,0.02064037322998047,0.0755767822265625,-0.016359806060791016
1761401457078769400,8.051769287109375,0.007155716419219971,0.035058021545410156,0.017082929611206055
1761401457098891300,8.071891357421874,-0.028638005256652832,0.022706031799316406,0.02277374267578125
1761401457119102200,8.092102294921874,-0.046024203300476074,0.05187034606933594,-0.01847672462463379
1761401457139254800,8.1122548828125,-0.053151071071624756,0.06866264343261719,-0.002368450164794922
1761401457159416600,8.13241650390625,-0.024964332580566406,0.04307746887207031,0.013977766036987305
1761401457179578600,8.15257861328125,0.006087124347686768,0.04291725158691406,0.010977029800415039
1761401457199740700,8.17274072265625,0.0033805370330810547,0.03270244598388672,0.014211416244506836
1761401457219879400,8.19287939453125,-0.00201338529586792,0.02563762664794922,0.012985706329345703
1761401457240064300,8.213064208984376,-0.009475469589233398,0.05505084991455078,0.01765894889831543
1761401457260226300,8.233226318359375,-0.01089942455291748,0.01868152618408203,0.04448699951171875
1761401457280387800,8.253387939453125,-0.021495938301086426,0.044689178466796875,0.050275564193725586
1761401457300550400,8.27355029296875,-0.02528214454650879,0.06360149383544922,0.011619329452514648
1761401457320711400,8.29371142578125,-0.009775340557098389,0.04097461700439453,0.00889444351196289
1761401457340872700,8.313872802734375,-0.006506443023681641,0.03046131134033203,0.01624751091003418
1761401457361045500,8.33404541015625,0.004175007343292236,0.04165840148925781,0.027484416961669922
1761401457381196800,8.35419677734375,0.004112303256988525,0.06236743927001953,0.022316694259643555
1761401457401358600,8.374358642578125,0.007452487945556641,0.0638132095336914,-0.002161264419555664
1761401457421520400,8.394520263671875,0.011568546295166016,0.02614307403564453,-0.007764577865600586
1761401457441660200,8.41466015625,-0.002044856548309326,0.047102928161621094,0.000047206878662109375
1761401457482023000,8.45502294921875,0.01215273141860962,0.04102611541748047,0.025090456008911133
1761401457502168800,8.4751689453125,0.011397182941436768,0.059825897216796875,0.018087387084960938
1761401457522308900,8.495308837890626,0.018689990043640137,0.01879119873046875,0.022242069244384766
1761401457542492400,8.515492431640626,-0.0067008137702941895,0.0167694091796875,0.03144216537475586
1761401457562654200,8.535654296875,-0.030328869819641113,0.048000335693359375,-0.0021877288818359375
1761401457582816000,8.55581591796875,-0.029029905796051025,0.06258583068847656,0.03563237190246582
1761401457602978000,8.57597802734375,0.004402101039886475,0.03544139862060547,0.046486854553222656
1761401457623146000,8.59614599609375,0.014392614364624023,0.056876182556152344,0.007391691207885742
1761401457643301000,8.616301025390625,0.017928242683410645,0.04064655303955078,-0.002542257308959961
1761401457663440600,8.636440673828124,0.0008206367492675781,0.032637596130371094,0.009276866912841797
1761401457683626000,8.6566259765625,-0.02032989263534546,0.03549003601074219,0.011868715286254883
1761401457703787500,8.67678759765625,-0.02917766571044922,0.03286170959472656,0.036782264709472656
1761401457723926300,8.69692626953125,-0.022257208824157715,0.03558826446533203,0.06863903999328613
1761401457744110600,8.717110595703126,-0.018013417720794678,0.05494499206542969,0.05649065971374512
1761401457764273000,8.73727294921875,-0.007548868656158447,0.05681419372558594,0.027018070220947266
1761401457784435200,8.757435302734375,0.009071707725524902,0.023690223693847656,0.03431415557861328
1761401457804597000,8.777596923828124,-0.018914878368377686,0.027574539184570312,0.01952672004699707
1761401457824758800,8.7977587890625,-0.01876908540725708,0.046629905700683594,0.03243827819824219
1761401457844921300,8.81792138671875,-0.02134150266647339,0.03413867950439453,0.0401153564453125
1761401457865059800,8.838059814453125,0.0012068748474121094,0.02608489990234375,0.03362441062927246
1761401457885244400,8.858244384765625,0.020994961261749268,0.027724266052246094,0.022800445556640625
1761401457905383700,8.8783837890625,-0.006682336330413818,0.04631519317626953,0.024785518646240234
1761401457925567700,8.898567626953126,-0.04089701175689697,0.04640769958496094,0.01353597640991211
1761401457945730600,8.91873046875,-0.026517868041992188,0.04690361022949219,0.034623146057128906
1761401457965891800,8.938891845703125,0.009376466274261475,0.04738044738769531,0.0326998233795166
1761401457986054700,8.9590546875,0.003759324550628662,0.020522117614746094,0.009055852890014648
1761401458006215200,8.979215087890625,-0.02721846103668213,0.0450439453125,-0.023578166961669922
1761401458026377500,8.99937744140625,-0.06719070672988892,0.07909011840820312,0.019904613494873047
1761401458046516700,9.019516845703125,-0.03665357828140259,0.02445507049560547,0.050684452056884766
1761401458066702000,9.0397021484375,-0.002436816692352295,0.025040626525878906,0.01906418800354004
1761401458086864100,9.059864013671875,0.030826926231384277,0.04667377471923828,-0.006781101226806641
1761401458107024600,9.080024658203126,0.014858007431030273,0.03372001647949219,0.02280259132385254
1761401458127186400,9.1001865234375,-0.013575077056884766,0.031142234802246094,0.051607370376586914
1761401458147349200,9.120349365234375,-0.022665739059448242,0.019547462463378906,0.04974794387817383
1761401458167510300,9.14051025390625,-0.005332827568054199,0.04155158996582031,0.03770327568054199
1761401458187672600,9.160672607421875,0.013614654541015625,0.05890369415283203,0.01681065559387207
1761401458207834600,9.180834716796875,0.005641460418701172,0.05206489562988281,-0.007950782775878906
1761401458227999500,9.20099951171875,-0.015525579452514648,0.06169319152832031,-0.02510237693786621
1761401458248160800,9.221160888671875,-0.006556451320648193,0.039694786071777344,-0.019665241241455078
1761401458268319700,9.24131982421875,0.023914873600006104,0.03813457489013672,-0.0070416927337646484
1761401458288481000,9.26148095703125,0.011153042316436768,0.06148338317871094,-0.009045839309692383
1761401458308643800,9.281643798828124,-0.011308729648590088,0.06482410430908203,-0.011362552642822266
1761401458328805600,9.3018056640625,-0.03080970048904419,0.04170036315917969,0.004286289215087891
1761401458348968000,9.321968017578126,-0.023814678192138672,0.03305244445800781,0.04213452339172363
1761401458369130000,9.3421298828125,0.00007832050323486328,-0.0103912353515625,0.054500579833984375
1761401458389269500,9.36226953125,-0.009097635746002197,0.03817462921142578,0.044567108154296875
1761401458409453300,9.382453369140626,-0.028753221035003662,0.0585479736328125,0.04693293571472168
1761401458429615000,9.402614990234374,-0.046508967876434326,0.0382843017578125,0.05214333534240723
1761401458449777400,9.42277734375,-0.04167795181274414,0.0361175537109375,-0.013345479965209961
1761401458469939200,9.442939208984376,-0.011294960975646973,0.0338897705078125,-0.011818170547485352
1761401458490100700,9.463100830078124,-0.01802891492843628,0.05217742919921875,0.035265207290649414
1761401458510263300,9.48326318359375,-0.014245092868804932,0.05073833465576172,-0.008146286010742188
1761401458530424800,9.5034248046875,0.0016965866088867188,0.0477447509765625,-0.01420283317565918
1761401458550585600,9.523585693359376,0.0042642951011657715,0.014653205871582031,0.017046689987182617
1761401458570749000,9.5437490234375,0.03198212385177612,0.030074119567871094,-0.0133056640625
1761401458590888000,9.563887939453124,0.002614915370941162,0.04401397705078125,0.01164388656616211
1761401458611068200,9.584068115234375,-0.036967337131500244,0.03965568542480469,0.05895280838012695
1761401458631211800,9.604211669921876,-0.028894424438476562,0.04858589172363281,0.030411243438720703
1761401458651396900,9.62439697265625,-0.01757967472076416,0.061638832092285156,0.023037195205688477
1761401458671558100,9.64455810546875,-0.007101714611053467,0.04901409149169922,0.027489423751831055
1761401458691720400,9.664720458984375,0.00033551454544067383,0.051634788513183594,0.016933441162109375
1761401458711881500,9.684881591796875,-0.017839431762695312,0.04515552520751953,0.014739751815795898
1761401458732044000,9.7050439453125,-0.009124934673309326,0.03079509735107422,0.0113067626953125
1761401458752188200,9.725188232421875,0.0033203959465026855,0.027274131774902344,0.005919933319091797
1761401458772367000,9.7453671875,0.0012471675872802734,0.06794452667236328,-0.003589630126953125
1761401458792530000,9.765530029296874,-0.006184697151184082,0.07057571411132812,0.004484891891479492
1761401458812648000,9.78564794921875,-0.0008834600448608398,0.012679100036621094,0.00853419303894043
1761401458832853500,9.805853515625,0.004652082920074463,0.04312705993652344,0.00025582313537597656
1761401458853001700,9.826001708984375,0.01659160852432251,0.04760932922363281,-0.013482332229614258
1761401458873177600,9.846177490234375,0.020017921924591064,0.02630138397216797,0.004692792892456055
1761401458893316600,9.866316650390624,-0.017514050006866455,0.037978172302246094,0.02792048454284668
1761401458913478700,9.886478759765625,-0.023814737796783447,0.07863044738769531,-0.009935140609741211
1761401458933662500,9.906662353515625,-0.01482093334197998,0.067718505859375,0.010715007781982422
1761401458953824800,9.92682470703125,-0.004846453666687012,0.05634021759033203,0.017577171325683594
1761401458973988900,9.94698876953125,0.006338357925415039,0.05903816223144531,0.004806995391845703
1761401458994149000,9.967149169921875,0.021162450313568115,0.03482341766357422,-0.005394935607910156
1761401459014309000,9.98730908203125,0.02486640214920044,0.0174407958984375,0.011315584182739258
1761401459034472400,10.007472412109376,0.011041879653930664,0.037631988525390625,0.03222203254699707
1761401459054633700,10.0276337890625,-0.009054899215698242,0.061837196350097656,0.02939915657043457
1761401459074796800,10.047796875,-0.020649194717407227,0.05228996276855469,0.016649246215820312
1761401459094957800,10.067957763671876,-0.014682888984680176,0.046523094177246094,0.0031714439392089844
1761401459115121000,10.088120849609375,-0.011554718017578125,0.047158241271972656,0.014330863952636719
1761401459135282000,10.108281982421875,-0.012534856796264648,0.044327735900878906,0.028493881225585938
1761401459155443700,10.128443603515626,-0.024204492568969727,0.05479145050048828,0.020158052444458008
1761401459175583700,10.148583740234375,0.0048569440841674805,0.05206584930419922,0.014505863189697266
1761401459195768000,10.16876806640625,0.036763906478881836,0.036421775817871094,0.01891016960144043
1761401459215906800,10.18890673828125,0.01788884401321411,0.04211139678955078,0.014908313751220703
1761401459236092700,10.2090927734375,-0.012975990772247314,0.05124092102050781,0.0010600090026855469
1761401459256254000,10.22925390625,-0.00045609474182128906,0.03372764587402344,0.00860452651977539
1761401459276415000,10.2494150390625,0.007423818111419678,0.027228355407714844,0.040947675704956055
1761401459296576800,10.26957666015625,0.012540876865386963,0.05823516845703125,0.03241682052612305
1761401459316738600,10.289738525390625,-0.0098227858543396,0.035025596618652344,0.012555837631225586
1761401459336900900,10.30990087890625,-0.012762308120727539,0.030527114868164062,0.019205570220947266
1761401459357069000,10.330069091796876,-0.0199660062789917,0.050375938415527344,-0.0006926059722900391
1761401459377224200,10.35022412109375,-0.014849841594696045,0.07526111602783203,0.014339923858642578
1761401459397386500,10.370386474609376,0.013681292533874512,0.04273796081542969,0.0021011829376220703
1761401459417548300,10.39054833984375,0.022720634937286377,0.03631782531738281,-0.00145721435546875
1761401459437710300,10.41071044921875,-0.006367802619934082,0.04137706756591797,0.002540111541748047
1761401459457872100,10.4308720703125,-0.007768690586090088,0.02719593048095703,0.022710800170898438
1761401459478038300,10.451038330078125,-0.020714640617370605,0.034157752990722656,0.031651973724365234
1761401459498176500,10.471176513671875,-0.01618891954421997,0.04077339172363281,0.05113792419433594
1761401459518335700,10.491335693359375,-0.0004831552505493164,0.056034088134765625,0.05260896682739258
1761401459538520000,10.51152001953125,-0.01826763153076172,0.043396949768066406,0.041999101638793945
1761401459558689500,10.531689453125,-0.039946913719177246,0.034954071044921875,0.05150270462036133
1761401459578843400,10.551843505859376,0.0029417872428894043,0.02985095977783203,0.038321733474731445
1761401459599005400,10.57200537109375,0.03592580556869507,0.03993034362792969,0.025526046752929688
1761401459619168800,10.592168701171875,0.026127636432647705,0.06191253662109375,0.0036802291870117188
1761401459639329300,10.612329345703126,-0.006041765213012695,0.059070587158203125,-0.008151769638061523
1761401459659491600,10.63249169921875,-0.02305006980895996,0.040612220764160156,-0.016491413116455078
1761401459679654100,10.652654052734375,0.000864863395690918,0.04248332977294922,-0.0116119384765625
1761401459699815200,10.672815185546876,0.01920139789581299,0.048172950744628906,-0.0024335384368896484
1761401459719977200,10.692977294921874,0.0015149712562561035,0.05481910705566406,0.011893987655639648
1761401459740139300,10.71313916015625,-0.01816779375076294,0.05335235595703125,0.0191192626953125
1761401459760300800,10.73330078125,-0.02534264326095581,0.01768207550048828,0.040279388427734375
1761401459780463000,10.753463134765624,-0.025960206985473633,0.020961761474609375,0.025611400604248047
1761401459800602000,10.77360205078125,-0.014211893081665039,0.06360054016113281,-0.002351045608520508
1761401459820786400,10.793786376953125,-0.020149528980255127,0.0612640380859375,0.04926276206970215
1761401459840949000,10.813948974609374,0.008214056491851807,0.04097270965576172,0.05664992332458496
1761401459861110000,10.834110107421875,0.021886467933654785,0.05323505401611328,-0.003725290298461914
1761401459881273600,10.854273681640626,0.015141725540161133,0.052837371826171875,-0.02720189094543457
1761401459901432800,10.874432861328126,-0.014359533786773682,0.029649734497070312,0.007985353469848633
1761401459921578000,10.894577880859375,-0.036588847637176514,0.028936386108398438,0.0274658203125
1761401459941758500,10.914758544921876,-0.04818850755691528,0.04138469696044922,0.04291081428527832
1761401459961920300,10.934920166015624,-0.0491490364074707,0.051293373107910156,0.03920340538024902
1761401459982082000,10.95508203125,-0.043109238147735596,0.04523277282714844,0.02907538414001465
1761401460002243800,10.975243896484375,-0.017119765281677246,0.05872154235839844,0.0018754005432128906
1761401460022366200,10.9953662109375,0.004949450492858887,0.03204631805419922,0.02396225929260254
1761401460042569000,11.01556884765625,-0.016640782356262207,0.059871673583984375,0.042215824127197266
1761401460062722300,11.035722412109376,-0.0358768105506897,0.03943157196044922,0.021175622940063477
1761401460082876000,11.0558759765625,-0.03209501504898071,0.029625892639160156,0.017045021057128906
1761401460103053300,11.07605322265625,-0.01075977087020874,0.054233551025390625,0.027458667755126953
1761401460123216400,11.09621630859375,0.021409928798675537,0.035861968994140625,0.03236246109008789
1761401460143360800,11.11636083984375,0.02497917413711548,0.035910606384277344,0.016974449157714844
1761401460163540000,11.1365400390625,0.00015550851821899414,0.011792182922363281,0.01145792007446289
1761401460183701200,11.156701171875,-0.015594065189361572,0.04779243469238281,0.0029251575469970703
1761401460203863300,11.17686328125,-0.013313591480255127,0.06889629364013672,0.0376894474029541
1761401460224025300,11.197025390625,-0.000026464462280273438,0.033351898193359375,0.04765748977661133
1761401460244187000,11.217186767578125,0.016416490077972412,0.031516075134277344,0.010540246963500977
1761401460264349400,11.237349365234374,0.0002340078353881836,0.0629415512084961,0.01400136947631836
1761401460284510500,11.257510498046875,0.0016022324562072754,0.05357646942138672,-0.022639036178588867
1761401460304673000,11.277673095703125,0.013174176216125488,0.029462814331054688,-0.008789539337158203
1761401460324834800,11.297834716796874,-0.004101395606994629,0.030412673950195312,0.0067899227142333984
1761401460344996600,11.31799658203125,0.009672105312347412,0.03495025634765625,0.008790254592895508
1761401460365158700,11.33815869140625,0.00016242265701293945,0.030463218688964844,0.029091596603393555
1761401460385339000,11.3583388671875,-0.02987593412399292,0.03722667694091797,0.03522014617919922
1761401460405460000,11.3784599609375,-0.04562634229660034,0.04835796356201172,0.037201881408691406
1761401460425644300,11.398644287109375,-0.03153681755065918,0.04711151123046875,0.02331399917602539
1761401460445826300,11.418826416015625,-0.01668792963027954,0.04677295684814453,0.010257959365844727
1761401460465968000,11.438968017578125,-0.010376274585723877,0.04953765869140625,0.030971765518188477
1761401460486130000,11.4591298828125,-0.011282503604888916,0.06727313995361328,0.00202178955078125
1761401460506292200,11.479292236328124,-0.020135462284088135,0.03948974609375,-0.04469728469848633
1761401460526455000,11.499455078125,-0.03069615364074707,0.02286243438720703,-0.017963409423828125
1761401460546616600,11.519616455078125,-0.025958538055419922,0.04098033905029297,-0.003602266311645508
1761401460566778000,11.539778076171874,-0.007471919059753418,0.06854057312011719,0.04169774055480957
1761401460586940700,11.559940673828125,0.009392857551574707,0.06188201904296875,0.07060813903808594
1761401460607102500,11.5801025390625,-0.011677742004394531,0.007447242736816406,0.027614593505859375
1761401460627264000,11.600263916015624,-0.012524008750915527,0.02865886688232422,0.006361484527587891
1761401460647426600,11.620426513671875,-0.03537827730178833,0.051072120666503906,0.04123234748840332
1761401460667587600,11.640587646484375,-0.02910149097442627,0.019240379333496094,0.05419611930847168
1761401460687739000,11.66073876953125,0.028228700160980225,0.03254127502441406,0.023073673248291016
1761401460707911400,11.680911376953125,0.03650176525115967,0.085205078125,0.0018000602722167969
1761401460728074000,11.701073974609375,0.015998244285583496,0.05319690704345703,-0.027554988861083984
1761401460748237600,11.721237548828125,-0.004476428031921387,0.031632423400878906,-0.014316797256469727
1761401460768397000,11.74139697265625,0.003935277462005615,0.042237281799316406,0.007804155349731445
1761401460788559000,11.76155908203125,0.02575981616973877,0.02835559844970703,0.020059585571289062
1761401460808722200,11.78172216796875,0.02487093210220337,0.04274272918701172,0.020326614379882812
1761401460828883700,11.8018837890625,-0.015165209770202637,0.05016040802001953,0.031836509704589844
1761401460849045200,11.822045166015625,-0.013818085193634033,0.0299072265625,0.03511190414428711
1761401460869208000,11.8422080078125,-0.015152394771575928,0.04865741729736328,0.01738452911376953
1761401460889368000,11.8623681640625,-0.01742655038833618,0.04696083068847656,0.013275384902954102
1761401460909531600,11.88253173828125,-0.01737964153289795,0.057419776916503906,0.04644513130187988
1761401460929693400,11.902693359375,-0.014786779880523682,0.04027080535888672,0.04345369338989258
1761401460949854200,11.922854248046875,-0.020025670528411865,0.039208412170410156,0.010653495788574219
1761401460970016800,11.943016845703125,-0.024879813194274902,0.04522132873535156,0.0024895668029785156
1761401460990178000,11.963177978515626,-0.006032884120941162,0.037273406982421875,-0.003598928451538086
1761401461010303500,11.983303466796874,0.006085693836212158,0.05442523956298828,-0.01979351043701172
1761401461030502400,12.00350244140625,0.01733607053756714,0.050276756286621094,-0.007738351821899414
1761401461050664400,12.02366455078125,-0.007133305072784424,0.026155471801757812,0.010002374649047852
1761401461070826500,12.043826416015625,-0.034273386001586914,0.06285953521728516,-0.011317729949951172
1761401461090988300,12.06398828125,-0.04451030492782593,0.05652046203613281,-0.003113985061645508
1761401461111150600,12.084150634765624,-0.02374732494354248,0.023172378540039062,0.04114794731140137
1761401461131311900,12.104311767578125,-0.01899510622024536,0.03547859191894531,0.018210887908935547
1761401461151475200,12.12447509765625,0.008306503295898438,0.08222675323486328,-0.008497953414916992
1761401461171615500,12.144615478515625,0.005944967269897461,0.062343597412109375,-0.011502981185913086
1761401461191797500,12.164797607421875,-0.003288447856903076,0.025297164916992188,-0.029326438903808594
1761401461211942000,12.18494189453125,0.004987657070159912,0.02939891815185547,0.014007568359375
1761401461232121900,12.205121826171874,0.021386444568634033,0.02363872528076172,0.03436422348022461
1761401461252284000,12.225283935546875,0.009790182113647461,0.05161476135253906,0.034723758697509766
1761401461272445400,12.245445556640625,-0.0176202654838562,0.02956390380859375,0.009544610977172852
1761401461292607200,12.265607177734376,-0.03727877140045166,0.024728775024414062,0.019901037216186523
1761401461312747300,12.285747314453126,-0.05006611347198486,0.06056690216064453,0.03337502479553223
1761401461332931300,12.305931396484375,-0.0296897292137146,0.06803417205810547,0.03782081604003906
1761401461353089300,12.32608935546875,-0.0023283958435058594,0.052483558654785156,0.0725700855255127
1761401461373256000,12.346255859375,0.011795759201049805,0.0035266876220703125,0.07383203506469727
1761401461393417000,12.3664169921875,-0.003935515880584717,0.013925552368164062,0.020749568939208984
1761401461413580300,12.386580322265624,-0.01469123363494873,0.02683258056640625,-0.027528762817382812
1761401461433740500,12.406740478515625,-0.01831531524658203,0.05040740966796875,0.010211467742919922
1761401461453903600,12.426903564453125,-0.0001767873764038086,0.06087970733642578,0.06532812118530273
1761401461474065700,12.447065673828124,0.019143760204315186,0.04461097717285156,0.05222177505493164
1761401461494227200,12.467227294921875,0.016574084758758545,0.022516250610351562,0.003659486770629883
1761401461514367500,12.487367431640624,0.004064619541168213,0.03444194793701172,-0.029181718826293945
1761401461534551300,12.50755126953125,-0.00013458728790283203,0.030399322509765625,0.015664100646972656
1761401461554713000,12.527713134765625,-0.02438819408416748,0.05465984344482422,0.056813955307006836
1761401461574875000,12.547875,-0.02858591079711914,0.06296730041503906,0.01407480239868164
1761401461595037200,12.568037109375,0.0008153319358825684,0.06060981750488281,0.011858940124511719
1761401461615199700,12.58819970703125,0.010091185569763184,0.015718460083007812,0.022845745086669922
1761401461635360500,12.608360595703125,0.010969758033752441,0.05412101745605469,-0.022989273071289062
1761401461655499800,12.628499755859375,0.011173427104949951,0.06768512725830078,-0.0444488525390625
1761401461675684600,12.6486845703125,0.012691617012023926,0.04010009765625,0.013313531875610352
1761401461695846400,12.668846435546875,0.0077214837074279785,0.031014442443847656,0.0648043155670166
1761401461716008400,12.689008544921874,-0.00782090425491333,0.044589996337890625,0.01967620849609375
1761401461736171300,12.709171142578125,-0.004028737545013428,0.055153846740722656,-0.004074811935424805
1761401461756332500,12.72933251953125,0.0005804300308227539,0.05287933349609375,-0.009127378463745117
1761401461776494600,12.74949462890625,0.01085585355758667,0.03907585144042969,0.01062631607055664
1761401461796682000,12.769681884765625,-0.009663760662078857,0.058094024658203125,0.015624761581420898
1761401461816818700,12.789818603515625,-0.04011648893356323,0.06271076202392578,0.00803995132446289
1761401461836957000,12.80995703125,-0.038375675678253174,0.04656219482421875,0.02367401123046875
1761401461857141800,12.830141845703125,-0.017623484134674072,0.028821945190429688,-0.0006246566772460938
1761401461877304300,12.85030419921875,0.0037656426429748535,0.018247604370117188,0.014352798461914062
1761401461897466000,12.870466064453124,0.00949162244796753,0.050314903259277344,0.03041982650756836
1761401461917605400,12.89060546875,-0.003619968891143799,0.04550361633300781,0.035601139068603516
1761401461937790500,12.91079052734375,-0.01773124933242798,0.03227424621582031,0.03782486915588379
1761401461957952500,12.930952392578124,-0.014219164848327637,0.04467964172363281,0.01651144027709961
1761401461978114000,12.951114013671875,-0.00011718273162841797,0.031599998474121094,0.0031807422637939453
1761401461998274800,12.97127490234375,-0.00135880708694458,0.02957916259765625,0.025879859924316406
1761401462018437400,12.991437255859376,0.0032012462615966797,0.039218902587890625,0.03369903564453125
1761401462038617900,13.011617919921875,-0.011080265045166016,0.07090091705322266,0.022070646286010742
1761401462058741000,13.031740966796875,-0.0194433331489563,0.05440521240234375,0.04034686088562012
1761401462078923800,13.051923828125,-0.019082844257354736,0.0008792877197265625,0.011349678039550781
1761401462099062000,13.07206201171875,-0.00028508901596069336,0.04539299011230469,-0.005530595779418945
1761401462119224300,13.092224365234374,0.014431595802307129,0.057036399841308594,0.004975557327270508
1761401462139409700,13.11240966796875,0.016819417476654053,0.04394721984863281,0.035635948181152344
1761401462159571000,13.132571044921875,0.0024227499961853027,0.03673839569091797,0.049118995666503906
1761401462179758800,13.1527587890625,-0.016469597816467285,0.012734413146972656,0.043566226959228516
1761401462199894500,13.17289453125,-0.03479820489883423,0.04152107238769531,0.023263216018676758
1761401462220056300,13.193056396484375,-0.025066077709197998,0.05378913879394531,-0.004154682159423828
1761401462240218400,13.21321826171875,-0.005594909191131592,0.0589447021484375,0.03831911087036133
1761401462260380700,13.233380615234376,-0.00483393669128418,0.058602333068847656,0.04668903350830078
1761401462280543500,13.25354345703125,-0.020441770553588867,0.013151168823242188,0.0027687549591064453
1761401462300705000,13.273705078125,-0.037494659423828125,0.027772903442382812,0.002404928207397461
1761401462320867000,13.2938671875,-0.024024248123168945,0.046428680419921875,0.015238046646118164
1761401462341028600,13.314028564453125,0.012595176696777344,0.07144546508789062,0.008167505264282227
1761401462361190700,13.334190673828125,0.011689424514770508,0.042156219482421875,0.015408992767333984
1761401462381352400,13.3543525390625,0.00969541072845459,0.006102561950683594,0.03610968589782715
1761401462401515300,13.374515380859375,-0.005284368991851807,0.042258262634277344,0.017454147338867188
1761401462421676800,13.3946767578125,-0.014203548431396484,0.05788707733154297,0.005899906158447266
1761401462441817600,13.414817626953125,-0.019162476062774658,0.03536415100097656,0.0380091667175293
1761401462462001000,13.4350009765625,-0.01429605484008789,0.03062152862548828,0.04127001762390137
1761401462482137300,13.455137451171876,0.008312344551086426,0.07065773010253906,0.001580953598022461
1761401462502324700,13.47532470703125,0.018057167530059814,0.0717620849609375,0.0038995742797851562
1761401462522485800,13.49548583984375,0.02255427837371826,0.039806365966796875,-0.04683065414428711
1761401462542627000,13.515626953125,-0.0018320083618164062,0.022291183471679688,-0.05392765998840332
1761401462562787300,13.535787353515625,-0.02529197931289673,0.04372119903564453,0.009140729904174805
1761401462582972000,13.555971923828125,0.003437936305999756,0.056240081787109375,0.05774521827697754
1761401462603128600,13.576128662109374,0.029108881950378418,0.06474781036376953,0.023395776748657227
1761401462623296000,13.5962958984375,0.02128911018371582,0.04554176330566406,-0.012398719787597656
1761401462643458000,13.6164580078125,-0.004321396350860596,0.031368255615234375,-0.006772041320800781
1761401462663620400,13.636620361328125,-0.026034414768218994,0.039501190185546875,0.009025812149047852
1761401462683782100,13.6567822265625,-0.038663506507873535,0.05369758605957031,0.03812384605407715
1761401462703944000,13.67694384765625,-0.007228553295135498,0.044704437255859375,0.07208132743835449
1761401462724105500,13.69710546875,0.008280754089355469,0.03738689422607422,0.05278158187866211
1761401462744280000,13.717280029296875,-0.0056067705154418945,0.046387672424316406,0.00018739700317382812
1761401462764430000,13.73743017578125,-0.02301257848739624,0.02757549285888672,-0.003090381622314453
1761401462784592400,13.75759228515625,-0.03795439004898071,0.03220653533935547,-0.004038095474243164
1761401462804753700,13.777753662109374,-0.005000174045562744,0.06205177307128906,0.011499166488647461
1761401462824915700,13.797915771484375,0.009844303131103516,0.06690502166748047,0.0197751522064209
1761401462845078500,13.81807861328125,-0.004399597644805908,0.03380298614501953,0.017612695693969727
1761401462865239800,13.83823974609375,-0.03292661905288696,0.051545143127441406,0.003011465072631836
1761401462885401900,13.85840185546875,-0.025296449661254883,0.0355682373046875,0.0033998489379882812
1761401462905563400,13.8785634765625,-0.01518326997756958,0.02960205078125,-0.007531642913818359
1761401462925725200,13.89872509765625,0.010305643081665039,0.04843330383300781,-0.023668289184570312
1761401462945871600,13.91887158203125,-0.020417392253875732,0.09769058227539062,0.028409719467163086
1761401462966049000,13.939049072265625,-0.028131067752838135,0.048819541931152344,-0.009177207946777344
1761401462986189000,13.95918896484375,0.01408398151397705,0.028502464294433594,-0.051468849182128906
1761401463006373600,13.97937353515625,0.037885069847106934,0.048488616943359375,-0.013922452926635742
1761401463026535200,13.99953515625,0.02451789379119873,0.04094219207763672,0.014998435974121094
1761401463046697500,14.019697509765624,-0.0018496513366699219,0.054523468017578125,0.013188600540161133
1761401463066859300,14.039859375,-0.02489936351776123,0.03512287139892578,0.03319835662841797
1761401463087021800,14.060021728515625,-0.02385866641998291,0.03901863098144531,0.03850436210632324
1761401463107184000,14.08018408203125,0.010901808738708496,0.04274940490722656,-0.021895885467529297
1761401463127322400,14.100322265625,0.02841275930404663,0.05331134796142578,-0.01948690414428711
1761401463147507000,14.1205068359375,-0.0016281604766845703,0.06627273559570312,0.04577136039733887
1761401463167668200,14.140668212890626,-0.028873920440673828,0.038372039794921875,0.04354286193847656
1761401463187831300,14.160831298828125,-0.02062457799911499,0.038788795471191406,0.015561819076538086
1761401463207995100,14.1809951171875,0.013058125972747803,0.042407989501953125,0.0028815269470214844
1761401463228154600,14.201154541015624,0.01573127508163452,0.04825401306152344,0.006406545639038086
1761401463248293600,14.221293701171875,0.0031371712684631348,0.02386951446533203,0.04755377769470215
1761401463268478700,14.241478759765625,-0.004874229431152344,0.038697242736816406,0.036017417907714844
1761401463288640800,14.261640869140624,-0.006841003894805908,0.030356407165527344,0.008296012878417969
1761401463308803000,14.281802978515625,-0.010813355445861816,0.04564476013183594,0.008442878723144531
1761401463328964600,14.301964599609375,-0.01307445764541626,0.046332359313964844,0.026941776275634766
1761401463349126700,14.322126708984374,-0.01047980785369873,0.026790618896484375,0.06315016746520996
1761401463369288700,14.342288818359375,-0.010042726993560791,0.04358196258544922,0.03929591178894043
1761401463389450200,14.3624501953125,-0.021887123584747314,0.057402610778808594,0.0041239261627197266
1761401463409611500,14.382611572265626,0.0009790658950805664,0.04611682891845703,0.017760038375854492
1761401463429754000,14.402754150390624,0.004649937152862549,0.043636322021484375,-0.0029180049896240234
1761401463449936400,14.422936279296875,0.0242767333984375,0.05056571960449219,-0.024914026260375977
1761401463470098000,14.443097900390624,0.024931371212005615,0.03882026672363281,0.0000782012939453125
1761401463490260500,14.463260498046875,-0.01019144058227539,0.046896934509277344,0.011643648147583008
1761401463510401000,14.483401123046875,-0.03977489471435547,0.05102348327636719,0.036862850189208984
1761401463530584000,14.503583984375,-0.014892756938934326,0.048828125,0.046331167221069336
1761401463550746600,14.52374658203125,-0.0014530420303344727,0.052562713623046875,0.02557969093322754
1761401463570904600,14.543904541015625,0.004032909870147705,0.06362056732177734,-0.00792694091796875
1761401463591069700,14.564069580078124,-0.009465932846069336,0.05803489685058594,0.021365880966186523
1761401463611232000,14.58423193359375,0.005753576755523682,0.04899311065673828,0.02993917465209961
1761401463631394600,14.60439453125,-0.0008557438850402832,0.033347129821777344,-0.005487680435180664
1761401463651556000,14.62455615234375,0.0033106207847595215,0.03614234924316406,-0.00976705551147461
1761401463671718000,14.6447177734375,0.003493666648864746,0.05975151062011719,-0.008136749267578125
1761401463691878400,14.66487841796875,0.014483988285064697,0.04835319519042969,-0.01173710823059082
1761401463712042500,14.68504248046875,0.006726384162902832,0.030243873596191406,-0.0011932849884033203
1761401463732203500,14.70520361328125,0.03752177953720093,0.028024673461914062,0.0002796649932861328
1761401463752366000,14.725365966796875,0.013646304607391357,0.03875541687011719,-0.0012662410736083984
1761401463772528400,14.7455283203125,0.002867758274078369,0.07615470886230469,0.009873628616333008
1761401463792689200,14.765689208984375,0.008420825004577637,0.060982704162597656,0.03791403770446777
1761401463812822800,14.78582275390625,0.0012562274932861328,0.016266822814941406,0.03720831871032715
1761401463833013800,14.806013671875,-0.0036742091178894043,0.041416168212890625,0.0010957717895507812
1761401463853175000,14.826175048828125,-0.014776647090911865,0.07467079162597656,0.023561716079711914
1761401463873337600,14.846337646484375,-0.010722517967224121,0.05977630615234375,0.03232574462890625
1761401463893499400,14.86649951171875,0.0016928315162658691,0.008707046508789062,0.024024248123168945
1761401463913661400,14.886661376953125,-0.005861997604370117,0.03605842590332031,0.032798051834106445
1761401463933799400,14.90679931640625,-0.028106212615966797,0.039689064025878906,0.046060800552368164
1761401463953985500,14.926985595703124,-0.05004119873046875,0.009594917297363281,0.05352663993835449
1761401463974146800,14.947146728515625,-0.055343568325042725,-0.0014324188232421875,0.06819796562194824
1761401463994308900,14.967308837890625,-0.0632401704788208,0.019758224487304688,0.05945467948913574
1761401464014466800,14.987466796875,-0.056258440017700195,0.03973674774169922,0.04083967208862305
1761401464034632700,15.0076328125,-0.045422255992889404,0.04581642150878906,0.050812482833862305
1761401464054794800,15.027794677734375,-0.0335727334022522,0.05959606170654297,0.05280923843383789
1761401464074957800,15.047957763671874,-0.00477367639541626,0.07277584075927734,0.01094198226928711
1761401464095119000,15.068119140625,0.0279310941696167,0.040564537048339844,-0.0040378570556640625
1761401464115281200,15.08828125,0.028850317001342773,0.06058692932128906,0.0044972896575927734
1761401464135442700,15.108442626953124,0.011604607105255127,0.046146392822265625,-0.006923675537109375
1761401464155603700,15.128603759765625,0.011706411838531494,0.020389556884765625,-0.005822420120239258
1761401464175766800,15.148766845703125,0.009451985359191895,0.02962970733642578,0.017323732376098633
1761401464195928800,15.1689287109375,0.0010929703712463379,0.043369293212890625,0.025069713592529297
1761401464216090600,15.189090576171875,0.009490132331848145,0.0467376708984375,0.019433021545410156
1761401464236252200,15.209252197265625,0.01642554998397827,0.0630483627319336,0.02168893814086914
1761401464256415000,15.2294150390625,-0.008720993995666504,0.0368194580078125,0.05493807792663574
1761401464276576800,15.24957666015625,-0.023534774780273438,0.013895034790039062,0.05637550354003906
1761401464296715800,15.2697158203125,-0.007753431797027588,0.02117919921875,0.03380990028381348
1761401464316878800,15.28987890625,-0.012083351612091064,0.06430435180664062,0.025264978408813477
1761401464337063200,15.310063232421875,0.000006198883056640625,0.06519508361816406,-0.025285720825195312
1761401464357224200,15.33022412109375,0.001654207706451416,0.042448997497558594,-0.06584835052490234
1761401464377364700,15.35036474609375,0.033599138259887695,0.0003185272216796875,-0.025086402893066406
1761401464397547800,15.3705478515625,0.039182960987091064,0.033451080322265625,0.008079290390014648
1761401464417710000,15.3907099609375,0.005489051342010498,0.05601787567138672,-0.04073953628540039
1761401464437865700,15.41086572265625,-0.024964570999145508,0.044170379638671875,-0.03754854202270508
1761401464458015500,15.431015380859375,-0.03989970684051514,0.02247333526611328,0.01710963249206543
1761401464478200000,15.451199951171875,-0.021859467029571533,0.037741661071777344,0.011656761169433594
1761401464498357000,15.47135693359375,-0.000683903694152832,0.051726341247558594,-0.04854893684387207
1761401464518519800,15.491519775390625,0.006222367286682129,0.03950309753417969,-0.040899038314819336
1761401464538682400,15.511682373046876,0.01085597276687622,0.011807441711425781,-0.02337336540222168
1761401464558844000,15.531843994140624,0.0022726058959960938,0.057524681091308594,-0.026363849639892578
1761401464579005400,15.55200537109375,0.007749497890472412,0.09027099609375,-0.03181290626525879
1761401464599143000,15.572142822265626,-0.05902224779129028,0.05099296569824219,-0.04305267333984375
1761401464619329800,15.592329833984374,-0.10310119390487671,0.032860755920410156,-0.0231173038482666
1761401464639492000,15.6124921875,-0.10411584377288818,0.0207061767578125,0.06681132316589355
1761401464659653600,15.632653564453125,-0.08831804990768433,-0.0039768218994140625,0.08680033683776855
1761401464679815700,15.652815673828124,-0.07972747087478638,0.001819610595703125,0.01938319206237793
1761401464699977500,15.6729775390625,-0.09397006034851074,0.0048694610595703125,-0.02001357078552246
1761401464720140000,15.69314013671875,-0.1058463454246521,-0.009785652160644531,0.01234579086303711
1761401464740301300,15.71330126953125,-0.10003131628036499,-0.022075653076171875,0.07101631164550781
1761401464760464100,15.733464111328125,-0.1160706877708435,0.033249855041503906,0.10023093223571777
1761401464780603100,15.75360302734375,-0.12019413709640503,0.053643226623535156,0.10098648071289062
1761401464800788200,15.773788330078125,-0.15011286735534668,0.042018890380859375,0.1301581859588623
1761401464820927500,15.793927490234376,-0.10874909162521362,0.03221607208251953,0.19904804229736328
1761401464841111800,15.81411181640625,-0.14280295372009277,0.03077411651611328,0.17758822441101074
1761401464861273000,15.834273193359374,-0.17032653093338013,0.04860973358154297,0.07573652267456055
1761401464881436000,15.854435791015625,-0.16977763175964355,0.08971786499023438,-0.060331106185913086
1761401464901598200,15.87459814453125,-0.14744526147842407,0.13263893127441406,-0.15539216995239258
1761401464921725400,15.894725341796875,-0.13817822933197021,0.1414775848388672,-0.1071622371673584
1761401464941920800,15.914920654296875,-0.07860726118087769,0.13378047943115234,-0.09414887428283691
1761401464962083300,15.935083251953126,0.055365562438964844,0.1386423110961914,-0.15015006065368652
1761401464982245000,15.9552451171875,0.1167140007019043,0.0964040756225586,-0.1961357593536377
1761401465002407700,15.97540771484375,0.10828173160552979,0.038298606872558594,-0.20386934280395508
1761401465022569000,15.99556884765625,0.05120617151260376,0.09380435943603516,-0.1309525966644287
1761401465042731300,16.015731201171874,-0.004524111747741699,0.1405029296875,-0.05377030372619629
1761401465062892800,16.035892822265627,-0.03647202253341675,0.06734943389892578,0.024985551834106445
1761401465083055900,16.056055908203124,-0.0750916600227356,0.0531463623046875,0.1199789047241211
1761401465103218000,16.076218017578125,-0.009372949600219727,0.09964656829833984,0.19883942604064941
1761401465123379500,16.09637939453125,0.09061157703399658,0.0027170181274414062,0.21604514122009277
1761401465143541500,16.11654150390625,0.09379708766937256,-0.10473251342773438,0.16121435165405273
1761401465163704300,16.136704345703127,0.016745030879974365,-0.08276557922363281,0.1832873821258545
1761401465183865300,16.156865234375,-0.034356534481048584,-0.04515647888183594,0.27654576301574707
1761401465204004900,16.1770048828125,0.008404135704040527,-0.0046672821044921875,0.31578636169433594
1761401465224189200,16.197189208984376,0.09023594856262207,-0.0028553009033203125,0.21398663520812988
1761401465244351700,16.217351806640625,0.1546204686164856,0.01755523681640625,0.050130367279052734
1761401465264513300,16.23751318359375,0.13692623376846313,0.1235055923461914,-0.03612351417541504
1761401465284674800,16.2576748046875,0.14123225212097168,0.22470951080322266,0.002614259719848633
1761401465304836400,16.27783642578125,0.2399733066558838,0.02221393585205078,-0.023875713348388672
1761401465324976600,16.2979765625,0.34165287017822266,-0.089752197265625,-0.05885505676269531
1761401465345127700,16.318127685546877,0.25016433000564575,-0.06279945373535156,-0.08969688415527344
1761401465365307400,16.338307373046874,0.1059112548828125,0.021238327026367188,-0.04277968406677246
1761401465385476600,16.3584765625,0.0821334719657898,0.11379623413085938,0.09160375595092773
1761401465405646800,16.378646728515626,0.13119858503341675,0.10865497589111328,0.1979374885559082
1761401465425809000,16.398808837890623,0.1461477279663086,0.0016832351684570312,0.14712309837341309
1761401465445971000,16.418970947265624,0.10860896110534668,0.07125282287597656,0.060747385025024414
1761401465466133000,16.439133056640625,0.0595741868019104,0.053595542907714844,0.003872394561767578
1761401465486295000,16.459294921875,0.08319944143295288,-0.02796173095703125,0.041203975677490234
1761401465506455800,16.479455810546874,0.08905583620071411,-0.03545570373535156,0.1341419219970703
1761401465526618600,16.49961865234375,0.06646382808685303,0.005840301513671875,0.20371556282043457
1761401465546780700,16.51978076171875,0.02758920192718506,0.06071186065673828,0.19800114631652832
1761401465566943000,16.53994287109375,0.024929344654083252,0.056336402893066406,0.07597112655639648
1761401465587104800,16.560104736328125,0.04017186164855957,0.015102386474609375,-0.09331130981445312
1761401465607246000,16.58024609375,0.024214863777160645,0.07603931427001953,-0.09944701194763184
1761401465627428000,16.600427978515626,-0.02201467752456665,0.0709228515625,-0.07712101936340332
1761401465647590400,16.62059033203125,-0.017901301383972168,0.1236419677734375,-0.04576611518859863
1761401465667752700,16.640752685546875,-0.013894200325012207,0.10852432250976562,-0.07570075988769531
1761401465687914500,16.66091455078125,0.010109364986419678,-0.014323234558105469,-0.08170008659362793
1761401465708076000,16.681075927734376,0.006459712982177734,0.016695022583007812,0.009614944458007812
1761401465728221700,16.7012216796875,-0.03308027982711792,0.011799812316894531,0.022360563278198242
1761401465748377900,16.7213779296875,-0.07274144887924194,0.0337677001953125,-0.09321045875549316
1761401465768562700,16.741562744140627,-0.06906640529632568,0.15889549255371094,-0.10953950881958008
1761401465788724000,16.761723876953123,-0.04557555913925171,0.10654830932617188,-0.04948592185974121
1761401465808886300,16.78188623046875,-0.052053093910217285,0.016927719116210938,-0.03898811340332031
1761401465829047800,16.8020478515625,-0.07735878229141235,0.04196739196777344,-0.04246926307678223
1761401465849209900,16.8222099609375,-0.06842595338821411,0.09058094024658203,-0.0464169979095459
1761401465869364700,16.84236474609375,-0.022029340267181396,0.04617023468017578,0.02999138832092285
1761401465889534200,16.8625341796875,0.019556879997253418,0.012098312377929688,0.052747488021850586
1761401465909672700,16.882672607421874,0.023780405521392822,0.12056732177734375,-0.006990909576416016
1761401465929858000,16.902858154296876,-0.10445946455001831,-0.024234771728515625,-0.14841079711914062
1761401465950019000,16.92301904296875,0.06555265188217163,-0.019445419311523438,0.07292604446411133
1761401465970181600,16.943181640625,0.007011711597442627,0.06059455871582031,-0.034032583236694336
1761401465990343700,16.96334375,-0.04202467203140259,0.07585906982421875,-0.0890657901763916
1761401466010483000,16.98348291015625,-0.043120741844177246,-0.0033140182495117188,0.01343226432800293
1761401466030668000,17.00366796875,-0.046402931213378906,0.009921073913574219,0.04810667037963867
1761401466050829000,17.0238291015625,-0.02283477783203125,0.0532379150390625,-0.003423452377319336
1761401466070952200,17.0439521484375,-0.02924591302871704,0.05924797058105469,-0.08407378196716309
1761401466091131000,17.064130859375,-0.07646358013153076,0.08380889892578125,-0.10529923439025879
1761401466111315700,17.084315673828126,-0.07095551490783691,0.07884693145751953,-0.045241594314575195
1761401466131477500,17.1044775390625,-0.05376136302947998,0.1030721664428711,-0.031455039978027344
1761401466151639300,17.124639404296875,-0.050069987773895264,0.0027704238891601562,-0.02561020851135254
1761401466171801600,17.144801513671876,-0.027532339096069336,0.007431983947753906,0.008848428726196289
1761401466191963000,17.164962890625,-0.000024557113647460938,0.04316902160644531,-0.001378774642944336
1761401466212119300,17.185119384765624,-0.035056471824645996,0.049793243408203125,-0.0393528938293457
1761401466232287700,17.205287841796874,-0.058341920375823975,0.0978555679321289,-0.005341768264770508
1761401466252450000,17.225449951171875,-0.07697170972824097,0.07536506652832031,0.011502981185913086
1761401466272612000,17.245612060546875,-0.04224938154220581,0.04229450225830078,-0.033150434494018555
1761401466292772600,17.265772705078124,-0.04897195100784302,0.031975746154785156,-0.02709197998046875
1761401466312912600,17.28591259765625,-0.08818703889846802,0.08045673370361328,0.013109445571899414
1761401466333097500,17.306097412109374,-0.0803270936012268,0.05273914337158203,0.04401659965515137
1761401466353218000,17.326218017578125,0.0015674233436584473,0.06609058380126953,0.0015673637390136719
1761401466373398500,17.3463984375,-0.08334726095199585,0.058155059814453125,0.06040596961975098
1761401466393582600,17.36658251953125,0.12498754262924194,-0.09208011627197266,0.1510939598083496
1761401466413706200,17.386706298828123,0.1438315510749817,-0.025420188903808594,0.11889290809631348
1761401466433906700,17.40690673828125,-0.03987699747085571,0.048320770263671875,-0.005852222442626953
