time,seconds_elapsed,z,y,x
1761401449165207600,0.13820751953125,0.6232406497001648,-9.411906242370605,-2.7812392711639404
1761401449175312100,0.14831201171875,0.623390257358551,-9.307982444763184,-2.746448516845703
1761401449185392000,0.15839208984375,0.6091746687889099,-9.28419017791748,-2.727294921875
1761401449195472600,0.16847265625,0.5864297747612,-9.30581283569336,-2.7212347984313965
1761401449205560000,0.17856005859375,0.6019172668457031,-9.326014518737793,-2.7463738918304443
1761401449215612700,0.18861279296875,0.5922656655311584,-9.331999778747559,-2.7702410221099854
1761401449225678300,0.19867822265625,0.5849334001541138,-9.291373252868652,-2.8119897842407227
1761401449235798500,0.208798583984375,0.5538088083267212,-9.265186309814453,-2.8393735885620117
1761401449245877800,0.218877685546875,0.5983259677886963,-9.259051322937012,-2.781014919281006
1761401449255958500,0.22895849609375,0.6593781113624573,-9.276708602905273,-2.7538557052612305
1761401449266039600,0.23903955078125,0.6893804669380188,-9.313669204711914,-2.7038018703460693
1761401449276098300,0.249098388671875,0.7240215539932251,-9.350554466247559,-2.7112090587615967
1761401449286180000,0.25918017578125,0.7357681393623352,-9.354071617126465,-2.7602152824401855
1761401449296262100,0.26926220703125,0.7020248174667358,-9.32302188873291,-2.8568062782287598
1761401449306363400,0.27936328125,0.6994061470031738,-9.294290542602539,-2.926088571548462
1761401449316444700,0.289444580078125,0.6968623399734497,-9.314566612243652,-2.9858686923980713
1761401449326541300,0.299541259765625,0.6970868110656738,-9.290550231933594,-3.0015058517456055
1761401449336607000,0.30960693359375,0.7067384123802185,-9.280973434448242,-2.9824271202087402
1761401449346664400,0.31966455078125,0.7139958143234253,-9.315614700317383,-2.9299042224884033
1761401449356745500,0.329745361328125,0.7034463882446289,-9.36117935180664,-2.8617444038391113
1761401449366830800,0.339830810546875,0.6821978688240051,-9.38280200958252,-2.7804911136627197
1761401449376930300,0.349930419921875,0.6285527944564819,-9.378312110900879,-2.7335798740386963
1761401449386989800,0.35998974609375,0.6010942459106445,-9.341426849365234,-2.7382185459136963
1761401449397092000,0.370092041015625,0.5925649404525757,-9.354519844055176,-2.790816068649292
1761401449407173000,0.380173095703125,0.6224176287651062,-9.3805570602417,-2.830470085144043
1761401449417235500,0.3902353515625,0.6401496529579163,-9.406744003295898,-2.8819453716278076
1761401449427312400,0.4003125,0.6639420390129089,-9.432929992675781,-2.9071593284606934
1761401449437393200,0.41039306640625,0.6507739424705505,-9.442506790161133,-2.919055700302124
1761401449447497000,0.4204970703125,0.6114192605018616,-9.410409927368164,-2.8901755809783936
1761401449457577700,0.43057763671875,0.5708674788475037,-9.364022254943848,-2.8923451900482178
1761401449467640000,0.44064013671875,0.5218611359596252,-9.302072525024414,-2.902819871902466
1761401449477739800,0.45073974609375,0.46080902218818665,-9.21752643585205,-2.939481019973755
1761401449487820000,0.460820068359375,0.4555716812610626,-9.150713920593262,-2.970306396484375
1761401449497901800,0.47090185546875,0.4685901701450348,-9.138668060302734,-3.015721559524536
1761401449507987000,0.480987060546875,0.5065233111381531,-9.171887397766113,-3.0971992015838623
1761401449518040600,0.49104052734375,0.5733364820480347,-9.205032348632812,-3.134533643722534
1761401449528144600,0.50114453125,0.6282535195350647,-9.208398818969727,-3.1419408321380615
1761401449538203000,0.511202880859375,0.6259341239929199,-9.231069564819336,-3.132438898086548
1761401449548283400,0.521283447265625,0.607977569103241,-9.234735488891602,-3.133561134338379
1761401449558400500,0.531400390625,0.5648819804191589,-9.230096817016602,-3.161992311477661
1761401449568468000,0.541468017578125,0.5420622229576111,-9.19440746307373,-3.1630396842956543
1761401449578527000,0.55152685546875,0.5588216185569763,-9.172860145568848,-3.1547348499298096
1761401449588630000,0.561630126953125,0.6033388376235962,-9.213412284851074,-3.065326452255249
1761401449598710500,0.57171044921875,0.6610989570617676,-9.264662742614746,-2.9234700202941895
1761401449608807700,0.5818076171875,0.6638672351837158,-9.3543701171875,-2.786102533340454
1761401449618873600,0.59187353515625,0.6700772047042847,-9.430910110473633,-2.6942250728607178
1761401449628954000,0.6019541015625,0.688108503818512,-9.464279174804688,-2.6680386066436768
1761401449639034400,0.612034423828125,0.6965630650520325,-9.44520092010498,-2.632200241088867
1761401449649116000,0.622115966796875,0.6680570840835571,-9.44991397857666,-2.6752212047576904
1761401449659196700,0.63219677734375,0.611868143081665,-9.422679901123047,-2.689286947250366
1761401449669277400,0.64227734375,0.5951835513114929,-9.37853717803955,-2.676044225692749
1761401449679358200,0.652358154296875,0.536750078201294,-9.37165355682373,-2.6280105113983154
1761401449689439200,0.662439208984375,0.4844517409801483,-9.400683403015137,-2.5465328693389893
1761401449699520000,0.67252001953125,0.4380640983581543,-9.418864250183105,-2.4770262241363525
1761401449709601300,0.682601318359375,0.38299745321273804,-9.447744369506836,-2.493561029434204
1761401449719681800,0.692681884765625,0.3446153998374939,-9.43951416015625,-2.5387516021728516
1761401449729763800,0.702763916015625,0.34326866269111633,-9.425148963928223,-2.5841665267944336
1761401449739844900,0.712844970703125,0.35149872303009033,-9.374871253967285,-2.646266222000122
1761401449749924900,0.7229248046875,0.3728969097137451,-9.325715065002441,-2.6785879135131836
1761401449760006000,0.733005859375,0.33690905570983887,-9.322273254394531,-2.7286417484283447
1761401449770087000,0.7430869140625,0.31184476613998413,-9.356988906860352,-2.722581386566162
1761401449780167200,0.753167236328125,0.29628247022628784,-9.358261108398438,-2.7141268253326416
1761401449790249700,0.763249755859375,0.286930114030838,-9.332074165344238,-2.6674399375915527
1761401449800330000,0.773330078125,0.2463034987449646,-9.325116157531738,-2.6589105129241943
1761401449810383600,0.783383544921875,0.20844519138336182,-9.36925983428955,-2.6948983669281006
1761401449820174600,0.793174560546875,0.20103812217712402,-9.354819297790527,-2.7724854946136475
1761401449830242000,0.803241943359375,0.21270985901355743,-9.334393501281738,-2.8716952800750732
1761401449840630500,0.813630615234375,0.26246437430381775,-9.286285400390625,-3.010484218597412
1761401449850740000,0.823739990234375,0.29141923785209656,-9.305065155029297,-3.0499136447906494
1761401449860814800,0.83381494140625,0.3125181496143341,-9.322049140930176,-3.0580689907073975
1761401449870895900,0.843895751953125,0.35666123032569885,-9.27685832977295,-2.997765064239502
1761401449880977000,0.853976806640625,0.4076128304004669,-9.268777847290039,-2.9316251277923584
1761401449891057400,0.864057373046875,0.4060416519641876,-9.342923164367676,-2.832265853881836
1761401449901108000,0.87410791015625,0.3613748252391815,-9.413178443908691,-2.7328317165374756
1761401449911220000,0.884219970703125,0.30458733439445496,-9.435099601745605,-2.6494834423065186
1761401449921290800,0.894290771484375,0.2960579991340637,-9.366117477416992,-2.5079262256622314
1761401449931377700,0.904377685546875,0.3196259140968323,-9.296086311340332,-2.3656208515167236
1761401449941460700,0.914460693359375,0.3654898405075073,-9.296759605407715,-2.2491281032562256
1761401449951532500,0.924532470703125,0.4157680869102478,-9.415647506713867,-2.1948843002319336
1761401449961605400,0.93460546875,0.4569932520389557,-9.578377723693848,-2.195931911468506
1761401449971695400,0.9446953125,0.4753986895084381,-9.656638145446777,-2.1675755977630615
1761401449981786400,0.954786376953125,0.4605845510959625,-9.638607025146484,-2.183661699295044
1761401449991883500,0.964883544921875,0.4180126488208771,-9.585860252380371,-2.1750574111938477
1761401450001948400,0.974948486328125,0.4388870894908905,-9.565359115600586,-2.170792818069458
1761401450012029000,0.98502880859375,0.5048024654388428,-9.58945083618164,-2.2106711864471436
1761401450022101200,0.995101318359375,0.6108955144882202,-9.63067626953125,-2.2160580158233643
1761401450032190700,1.005190673828125,0.7208043336868286,-9.646313667297363,-2.200047016143799
1761401450042253300,1.01525341796875,0.8090905547142029,-9.642722129821777,-2.2171804904937744
1761401450052352500,1.0253525390625,0.8431330919265747,-9.592219352722168,-2.21620774269104
1761401450062433500,1.03543359375,0.7918822169303894,-9.519346237182617,-2.2264578342437744
1761401450072527400,1.04552734375,0.751779317855835,-9.39439868927002,-2.2282536029815674
1761401450082595000,1.055594970703125,0.6574327945709229,-9.343072891235352,-2.3494601249694824
1761401450092665300,1.065665283203125,0.5743091106414795,-9.38976001739502,-2.4460511207580566
1761401450102757600,1.075757568359375,0.5833622217178345,-9.441160202026367,-2.541968822479248
1761401450112826000,1.085826171875,0.5989993214607239,-9.425298690795898,-2.62015438079834
1761401450122896600,1.095896728515625,0.619649350643158,-9.393725395202637,-2.6470892429351807
1761401450132989200,1.1059892578125,0.6846668720245361,-9.332972526550293,-2.6548705101013184
1761401450143084000,1.116083984375,0.7437736988067627,-9.315539360046387,-2.6781389713287354
1761401450153163000,1.1261630859375,0.8007108569145203,-9.316736221313477,-2.688763380050659
1761401450163242800,1.13624267578125,0.8545803427696228,-9.306187629699707,-2.755277156829834
1761401450173334300,1.146334228515625,0.9119663834571838,-9.271246910095215,-2.8242602348327637
1761401450183393800,1.156393798828125,0.9148843288421631,-9.247304916381836,-2.87760591506958
1761401450193474300,1.166474365234375,0.8629601001739502,-9.244312286376953,-2.8681788444519043
1761401450203567000,1.176567138671875,0.8061726093292236,-9.28838062286377,-2.829871654510498
1761401450213636400,1.18663623046875,0.7298574447631836,-9.323246002197266,-2.7600655555725098
1761401450223728400,1.196728271484375,0.725218653678894,-9.311723709106445,-2.7240777015686035
1761401450233809400,1.206809326171875,0.7218518257141113,-9.28493881225586,-2.7760767936706543
1761401450243879400,1.21687939453125,0.7318775057792664,-9.245658874511719,-2.8336873054504395
1761401450253971700,1.2269716796875,0.7070376873016357,-9.21012020111084,-2.9427731037139893
1761401450264052700,1.237052734375,0.7117512822151184,-9.203086853027344,-3.0049476623535156
1761401450274123300,1.247123291015625,0.7701847553253174,-9.216179847717285,-3.0522329807281494
1761401450284204500,1.25720458984375,0.8150012493133545,-9.269001960754395,-3.0514848232269287
1761401450294301200,1.26730126953125,0.8758289217948914,-9.288081169128418,-3.0387656688690186
1761401450304376600,1.27737646484375,0.9306710958480835,-9.269750595092773,-2.988487482070923
1761401450314457900,1.287457763671875,0.9238625764846802,-9.237728118896484,-2.8877065181732178
1761401450324528000,1.297528076171875,0.9174281358718872,-9.22283935546875,-2.7959787845611572
1761401450334619000,1.307618896484375,0.9128642082214355,-9.233089447021484,-2.7130794525146484
1761401450344689700,1.317689697265625,0.916081428527832,-9.296311378479004,-2.61125111579895
1761401450354770700,1.327770751953125,0.8940846920013428,-9.371953010559082,-2.5078513622283936
1761401450364839000,1.3378388671875,0.8520365357398987,-9.40404987335205,-2.398167133331299
1761401450374943200,1.347943115234375,0.8143278360366821,-9.432106971740723,-2.32529354095459
1761401450385024000,1.35802392578125,0.793827474117279,-9.438093185424805,-2.272321939468384
1761401450395096300,1.368096435546875,0.782529890537262,-9.46031379699707,-2.2567596435546875
1761401450405185800,1.378185791015625,0.7886649966239929,-9.500042915344238,-2.2818987369537354
1761401450415247400,1.388247314453125,0.8203881978988647,-9.537153244018555,-2.325144052505493
1761401450425328600,1.39832861328125,0.8112602829933167,-9.56042194366455,-2.362403631210327
1761401450435429600,1.4084296875,0.8274211287498474,-9.555782318115234,-2.3732523918151855
1761401450445499000,1.418498779296875,0.8352771401405334,-9.528249740600586,-2.37115740776062
1761401450455590700,1.428590576171875,0.8111854791641235,-9.47422981262207,-2.400336742401123
1761401450465662000,1.438661865234375,0.7677905559539795,-9.423129081726074,-2.4250271320343018
1761401450475744300,1.448744140625,0.7192331552505493,-9.402179718017578,-2.4670004844665527
1761401450485822700,1.45882275390625,0.6848913431167603,-9.399336814880371,-2.5335891246795654
1761401450495900700,1.468900634765625,0.6661118268966675,-9.413103103637695,-2.580500602722168
1761401450505984000,1.47898388671875,0.6688801050186157,-9.410709381103516,-2.6179099082946777
1761401450516076300,1.489076171875,0.6786813735961914,-9.401206970214844,-2.624269485473633
1761401450526157300,1.4991572265625,0.7140706777572632,-9.402853012084961,-2.623072385787964
1761401450536251100,1.509251220703125,0.7542483806610107,-9.408090591430664,-2.611924409866333
1761401450546310400,1.519310302734375,0.7931541204452515,-9.384971618652344,-2.576535224914551
1761401450556388400,1.529388427734375,0.7964461445808411,-9.382352828979492,-2.573916435241699
1761401450566481000,1.53948095703125,0.8019827604293823,-9.378986358642578,-2.566434621810913
1761401450576562200,1.549562255859375,0.8056488633155823,-9.388711929321289,-2.5476551055908203
1761401450586633700,1.5596337890625,0.7909095883369446,-9.402403831481934,-2.5394997596740723
1761401450596723700,1.5697236328125,0.8015338182449341,-9.425224304199219,-2.572869062423706
1761401450606807300,1.579807373046875,0.7816320657730103,-9.450736999511719,-2.5679309368133545
1761401450616858400,1.5898583984375,0.7515549063682556,-9.416021347045898,-2.5528175830841064
1761401450626963700,1.599963623046875,0.7374889254570007,-9.370830535888672,-2.5539398193359375
1761401450637047800,1.6100478515625,0.7501333355903625,-9.340004920959473,-2.5894038677215576
1761401450647105000,1.62010498046875,0.7534253597259521,-9.334992408752441,-2.627561569213867
1761401450657209300,1.630209228515625,0.7330746054649353,-9.362152099609375,-2.624119997024536
1761401450667290400,1.640290283203125,0.7366659641265869,-9.376441955566406,-2.5819969177246094
1761401450677369000,1.650369140625,0.7333738803863525,-9.367613792419434,-2.532691240310669
1761401450687458000,1.6604580078125,0.7145943641662598,-9.39320182800293,-2.480318069458008
1761401450697522200,1.670522216796875,0.6893804669380188,-9.430685997009277,-2.4356513023376465
1761401450707602700,1.680602783203125,0.675538957118988,-9.460987091064453,-2.3908348083496094
1761401450717694500,1.690694580078125,0.6495020389556885,-9.509170532226562,-2.3535003662109375
1761401450727762000,1.700761962890625,0.6283283233642578,-9.529670715332031,-2.310030460357666
1761401450737855000,1.71085498046875,0.6434416770935059,-9.552789688110352,-2.289604902267456
1761401450747936300,1.720936279296875,0.645087718963623,-9.523161888122559,-2.264465808868408
1761401450758018800,1.731018798828125,0.6514472961425781,-9.471237182617188,-2.2702269554138184
1761401450768100000,1.74110009765625,0.615683913230896,-9.46951675415039,-2.2906525135040283
1761401450778176500,1.751176513671875,0.6025906205177307,-9.464653015136719,-2.3231985569000244
1761401450788262000,1.761261962890625,0.5805190801620483,-9.455001831054688,-2.3394343852996826
1761401450798334200,1.771334228515625,0.5680992007255554,-9.448641777038574,-2.3498342037200928
1761401450808412200,1.781412109375,0.5698948502540588,-9.445724487304688,-2.3932290077209473
1761401450818504400,1.79150439453125,0.5907692909240723,-9.439813613891602,-2.450989246368408
1761401450828578300,1.801578369140625,0.6058078408241272,-9.417068481445312,-2.487725257873535
1761401450838666200,1.811666259765625,0.6292261481285095,-9.375694274902344,-2.508824110031128
1761401450848726300,1.821726318359375,0.6573579907417297,-9.359158515930176,-2.508300304412842
1761401450858824400,1.831824462890625,0.6904278993606567,-9.389236450195312,-2.500594139099121
1761401450868906200,1.84190625,0.718859076499939,-9.402403831481934,-2.464381694793701
1761401450878976800,1.851976806640625,0.7312789559364319,-9.42327880859375,-2.4735844135284424
1761401450889060000,1.86206005859375,0.7298574447631836,-9.414449691772461,-2.4757542610168457
1761401450899152000,1.87215185546875,0.7106289863586426,-9.436447143554688,-2.5008933544158936
1761401450909233400,1.8822333984375,0.6770353317260742,-9.451560020446777,-2.5172786712646484
1761401450919322600,1.892322509765625,0.6624456644058228,-9.443853378295898,-2.5289504528045654
1761401450929393400,1.902393310546875,0.6486790180206299,-9.430835723876953,-2.530371904373169
1761401450939465500,1.912465576171875,0.6471826434135437,-9.406744003295898,-2.504634141921997
1761401450949556500,1.922556396484375,0.6394014954566956,-9.367388725280762,-2.5096471309661865
1761401450959638300,1.93263818359375,0.6357353925704956,-9.338957786560059,-2.5576059818267822
1761401450969706000,1.9427060546875,0.6456862688064575,-9.328782081604004,-2.6047418117523193
1761401450979799000,1.952799072265625,0.6654384136199951,-9.326987266540527,-2.6471641063690186
1761401450989869600,1.96286962890625,0.676885724067688,-9.379284858703613,-2.6536734104156494
1761401450999949800,1.97294970703125,0.6626701354980469,-9.417966842651367,-2.657489061355591
1761401451010042400,1.98304248046875,0.6731447577476501,-9.420136451721191,-2.6535236835479736
1761401451020102100,1.99310205078125,0.6536918878555298,-9.400084495544434,-2.653224468231201
1761401451030204200,2.0032041015625,0.667832612991333,-9.384821891784668,-2.616488456726074
1761401451040278300,2.0132783203125,0.7116016149520874,-9.391779899597168,-2.6198551654815674
1761401451050354400,2.0233544921875,0.7261164784431458,-9.433453559875488,-2.613645315170288
1761401451060437200,2.033437255859375,0.7151929140090942,-9.43375301361084,-2.6021978855133057
1761401451070530300,2.0435302734375,0.7031471133232117,-9.393725395202637,-2.6140942573547363
1761401451080597800,2.05359765625,0.6534674167633057,-9.382726669311523,-2.6342952251434326
1761401451090670300,2.06367041015625,0.6409726738929749,-9.36117935180664,-2.64402174949646
1761401451100758800,2.0737587890625,0.628477931022644,-9.356839179992676,-2.6174609661102295
1761401451110841300,2.08384130859375,0.6073790192604065,-9.360356330871582,-2.5911996364593506
1761401451120921300,2.09392138671875,0.6239888072013855,-9.377564430236816,-2.5876832008361816
1761401451131012000,2.10401220703125,0.6451625227928162,-9.40487289428711,-2.609006404876709
1761401451141087500,2.11408740234375,0.6727706789970398,-9.421707153320312,-2.6181342601776123
1761401451151164200,2.1241640625,0.6785317063331604,-9.429787635803223,-2.61783504486084
1761401451161257000,2.134257080078125,0.6937947869300842,-9.421407699584961,-2.614767551422119
1761401451171326500,2.144326416015625,0.6720224618911743,-9.405845642089844,-2.582221269607544
1761401451181420300,2.154420166015625,0.648903489112854,-9.397241592407227,-2.54728102684021
1761401451191496400,2.164496337890625,0.646434485912323,-9.400683403015137,-2.5313446521759033
1761401451201569300,2.1745693359375,0.6481552720069885,-9.431134223937988,-2.540322780609131
1761401451211648000,2.18464794921875,0.6687304377555847,-9.447669982910156,-2.5412206649780273
1761401451221742300,2.194742431640625,0.6594529151916504,-9.489119529724121,-2.514585256576538
1761401451231823000,2.204822998046875,0.6492027640342712,-9.484854698181152,-2.4909424781799316
1761401451241912000,2.214912109375,0.6024410128593445,-9.463605880737305,-2.466775894165039
1761401451251984600,2.224984619140625,0.5767781734466553,-9.446771621704102,-2.4660277366638184
1761401451262059500,2.2350595703125,0.5520131587982178,-9.427543640136719,-2.475529670715332
1761401451272150000,2.24514990234375,0.5283703804016113,-9.420510292053223,-2.499995470046997
1761401451282227500,2.2552275390625,0.5475988388061523,-9.406070709228516,-2.5107693672180176
1761401451292306400,2.265306396484375,0.5900958776473999,-9.38317584991455,-2.539050817489624
1761401451302378500,2.27537841796875,0.6395511031150818,-9.384971618652344,-2.5651626586914062
1761401451312471300,2.28547119140625,0.6468833684921265,-9.402778625488281,-2.5743653774261475
1761401451322551300,2.29555126953125,0.6591536402702332,-9.424999237060547,-2.55768084526062
1761401451332632600,2.305632568359375,0.6251859068870544,-9.377638816833496,-2.540696859359741
1761401451342713900,2.3157138671875,0.5896469950675964,-9.354146003723145,-2.5359833240509033
1761401451352794600,2.325794677734375,0.5588216185569763,-9.350554466247559,-2.565985679626465
1761401451362875000,2.335875,0.5392939448356628,-9.351078033447266,-2.5994296073913574
1761401451372956700,2.345956787109375,0.5264999270439148,-9.351826667785645,-2.604891538619995
1761401451383018800,2.356018798828125,0.5217863321304321,-9.367388725280762,-2.604292869567871
1761401451393117700,2.36611767578125,0.5473743677139282,-9.360280990600586,-2.526705741882324
1761401451403199200,2.37619921875,0.5671265125274658,-9.3944730758667,-2.530222177505493
1761401451413269800,2.386269775390625,0.5702689290046692,-9.411083221435547,-2.5159318447113037
1761401451423346400,2.396346435546875,0.5871779918670654,-9.405471801757812,-2.5096471309661865
1761401451433441500,2.406441650390625,0.5990741848945618,-9.41055965423584,-2.4979753494262695
1761401451443507200,2.416507080078125,0.5954828262329102,-9.40135669708252,-2.527453899383545
1761401451453613800,2.42661376953125,0.5897217988967896,-9.392378807067871,-2.5552866458892822
1761401451463685000,2.43668505859375,0.5851578712463379,-9.366565704345703,-2.5656116008758545
1761401451473758700,2.4467587890625,0.5812672972679138,-9.379434585571289,-2.560598611831665
1761401451483846700,2.4568466796875,0.5608417391777039,-9.396268844604492,-2.551321268081665
1761401451493917400,2.46691748046875,0.5404162406921387,-9.405845642089844,-2.5439889430999756
1761401451504008700,2.4770087890625,0.5250035524368286,-9.403451919555664,-2.5488522052764893
1761401451514077400,2.487077392578125,0.5155015587806702,-9.404648780822754,-2.5721209049224854
1761401451524170500,2.49717041015625,0.540790319442749,-9.403751373291016,-2.6039187908172607
1761401451534251300,2.507251220703125,0.5466261506080627,-9.43023681640625,-2.6193313598632812
1761401451544322800,2.51732275390625,0.572438657283783,-9.416021347045898,-2.624643564224243
1761401451554411800,2.527411865234375,0.5821651220321655,-9.394922256469727,-2.617236614227295
1761401451564482600,2.537482666015625,0.5989993214607239,-9.413776397705078,-2.596811056137085
1761401451574574600,2.54757470703125,0.620771586894989,-9.448267936706543,-2.566958427429199
1761401451584656000,2.55765576171875,0.6373065710067749,-9.455899238586426,-2.5261073112487793
1761401451594725400,2.567725341796875,0.641047477722168,-9.41100788116455,-2.4782979488372803
1761401451604818200,2.577818115234375,0.6427683234214783,-9.376068115234375,-2.4875006675720215
1761401451614887000,2.587886962890625,0.6727706789970398,-9.363123893737793,-2.5382277965545654
1761401451624968200,2.59796826171875,0.6827215552330017,-9.396642684936523,-2.613121509552002
1761401451635041300,2.608041259765625,0.6731447577476501,-9.435698509216309,-2.6571898460388184
1761401451645119700,2.61811962890625,0.6634183526039124,-9.428441047668457,-2.666093111038208
1761401451655222800,2.628222900390625,0.6260837316513062,-9.416769027709961,-2.642300844192505
1761401451665303600,2.638303466796875,0.5937620401382446,-9.412280082702637,-2.599579334259033
1761401451675373000,2.648373046875,0.5783493518829346,-9.41639518737793,-2.581697702407837
1761401451685468000,2.658468017578125,0.6014683842658997,-9.399934768676758,-2.5790789127349854
1761401451695526400,2.6685263671875,0.6226420998573303,-9.394996643066406,-2.573542356491089
1761401451705616400,2.678616455078125,0.6251859068870544,-9.357512474060059,-2.5672576427459717
1761401451715699200,2.68869921875,0.6278045773506165,-9.330204010009766,-2.574589729309082
1761401451725785900,2.698785888671875,0.6182277798652649,-9.332747459411621,-2.6094553470611572
1761401451735870200,2.7088701171875,0.6180033087730408,-9.36469554901123,-2.6180596351623535
1761401451745951000,2.718950927734375,0.6297498941421509,-9.390059471130371,-2.6004772186279297
1761401451756020700,2.729020751953125,0.6400748491287231,-9.397615432739258,-2.5678560733795166
1761401451766111500,2.739111572265625,0.6601263284683228,-9.386542320251465,-2.570624351501465
1761401451776182800,2.749182861328125,0.6798036694526672,-9.367613792419434,-2.570998430252075
1761401451786274600,2.759274658203125,0.701052188873291,-9.362600326538086,-2.5855133533477783
1761401451796355800,2.76935595703125,0.6943933367729187,-9.36349868774414,-2.604367733001709
1761401451806436400,2.779436279296875,0.6968623399734497,-9.354819297790527,-2.6500821113586426
1761401451816518000,2.789517822265625,0.7133972644805908,-9.351153373718262,-2.6797850131988525
1761401451826587100,2.799587158203125,0.7168389558792114,-9.366341590881348,-2.668412685394287
1761401451836668200,2.809668212890625,0.7190834879875183,-9.388711929321289,-2.640505313873291
1761401451846749000,2.8197490234375,0.7291840314865112,-9.390433311462402,-2.6075100898742676
1761401451856842200,2.82984228515625,0.713771402835846,-9.388188362121582,-2.593294620513916
1761401451866913800,2.839913818359375,0.6952162981033325,-9.382502555847168,-2.5846903324127197
1761401451877003800,2.850003662109375,0.6801777482032776,-9.410036087036133,-2.5737667083740234
1761401451887084300,2.860084228515625,0.6937947869300842,-9.416918754577637,-2.565910816192627
1761401451897164000,2.8701640625,0.7054665088653564,-9.433978080749512,-2.563591480255127
1761401451907235000,2.880235107421875,0.7228244543075562,-9.416470527648926,-2.554837703704834
1761401451917315600,2.890315673828125,0.7309048771858215,-9.398438453674316,-2.5736172199249268
1761401451927407900,2.900407958984375,0.7154921889305115,-9.378911018371582,-2.5942671298980713
1761401451937489000,2.910489013671875,0.7245453000068665,-9.359831809997559,-2.621201992034912
1761401451947568600,2.920568603515625,0.7417536377906799,-9.359533309936523,-2.663175344467163
1761401451957639200,2.93063916015625,0.7559691667556763,-9.358111381530762,-2.6803836822509766
1761401451967720200,2.94072021484375,0.7431751489639282,-9.363348960876465,-2.695347309112549
1761401451977813000,2.95081298828125,0.7206547260284424,-9.37165355682373,-2.6863691806793213
1761401451987894000,2.96089404296875,0.6902782917022705,-9.362899780273438,-2.6983401775360107
1761401451997972200,2.97097216796875,0.6872106790542603,-9.355567932128906,-2.723778486251831
1761401452008044300,2.981044189453125,0.6887819170951843,-9.330353736877441,-2.7323079109191895
1761401452018128400,2.99112841796875,0.7184849381446838,-9.329380989074707,-2.7061212062835693
1761401452028217900,3.0012177734375,0.7719056010246277,-9.337611198425293,-2.6680386066436768
1761401452038286800,3.011286865234375,0.8042272925376892,-9.38437271118164,-2.6354923248291016
1761401452048379100,3.021379150390625,0.8393921256065369,-9.400383949279785,-2.648585557937622
1761401452058460400,3.03146044921875,0.8325836658477783,-9.37816333770752,-2.7008838653564453
1761401452068532700,3.04153271484375,0.7909095883369446,-9.337311744689941,-2.6991631984710693
1761401452078620200,3.0516201171875,0.7314286231994629,-9.30918025970459,-2.6146926879882812
1761401452088692200,3.061692138671875,0.7049427628517151,-9.335441589355469,-2.564189910888672
1761401452098784300,3.0717841796875,0.6988824605941772,-9.398737907409668,-2.5551369190216064
1761401452108865300,3.081865234375,0.7015759348869324,-9.433528900146484,-2.561721086502075
1761401452118934500,3.0919345703125,0.7256675958633423,-9.428067207336426,-2.571073293685913
1761401452129023000,3.10202294921875,0.761954665184021,-9.40936279296875,-2.5695769786834717
1761401452139096300,3.112096435546875,0.7733271718025208,-9.367613792419434,-2.6069116592407227
1761401452149170000,3.122169921875,0.75581955909729,-9.3358154296875,-2.6354174613952637
1761401452159270100,3.132270263671875,0.7234230041503906,-9.333122253417969,-2.6336967945098877
1761401452169340200,3.142340087890625,0.688258171081543,-9.357288360595703,-2.6272623538970947
1761401452179431200,3.15243115234375,0.6841431260108948,-9.405471801757812,-2.5954642295837402
1761401452189504000,3.16250390625,0.6682815551757812,-9.448417663574219,-2.5830442905426025
1761401452199582700,3.172582763671875,0.6534674167633057,-9.44534969329834,-2.5609729290008545
1761401452209674200,3.18267431640625,0.6708253622055054,-9.399336814880371,-2.5556607246398926
1761401452219745800,3.192745849609375,0.7248445749282837,-9.362975120544434,-2.5482535362243652
1761401452229825500,3.202825439453125,0.767341673374176,-9.3828763961792,-2.5709238052368164
1761401452239917300,3.212917236328125,0.8057985305786133,-9.400683403015137,-2.5552866458892822
1761401452249981000,3.22298095703125,0.8296657204627991,-9.425747871398926,-2.5773582458496094
1761401452260079400,3.233079345703125,0.8266729712486267,-9.43135929107666,-2.601973533630371
1761401452270149000,3.243149169921875,0.8041524887084961,-9.393126487731934,-2.632349967956543
1761401452280241200,3.2532412109375,0.7775918245315552,-9.358111381530762,-2.6512043476104736
1761401452290311000,3.263310791015625,0.7702595591545105,-9.372102737426758,-2.6630256175994873
1761401452300415700,3.273415771484375,0.7897872924804688,-9.368810653686523,-2.669011116027832
1761401452310472700,3.28347265625,0.8106617331504822,-9.37748908996582,-2.685396432876587
1761401452320571100,3.293571044921875,0.8259995579719543,-9.400309562683105,-2.6896612644195557
1761401452330645800,3.303645751953125,0.8224082589149475,-9.38863754272461,-2.6919057369232178
1761401452340726300,3.313726318359375,0.8288426995277405,-9.361477851867676,-2.7038018703460693
1761401452350808000,3.32380810546875,0.7912088632583618,-9.326837539672852,-2.6820297241210938
1761401452360893400,3.3338935546875,0.771007776260376,-9.322273254394531,-2.6582372188568115
1761401452370963700,3.343963623046875,0.7427262663841248,-9.34397029876709,-2.628758668899536
1761401452381027800,3.35402783203125,0.7232733964920044,-9.370007514953613,-2.6100540161132812
1761401452391108400,3.3641083984375,0.7410802245140076,-9.393799781799316,-2.6006267070770264
1761401452411270400,3.3842705078125,0.7665934562683105,-9.426271438598633,-2.6097545623779297
1761401452441512000,3.414511962890625,0.747963547706604,-9.351602554321289,-2.6039936542510986
1761401452451602400,3.4246025390625,0.740556538105011,-9.356091499328613,-2.6033949851989746
1761401452461683000,3.434682861328125,0.7436988949775696,-9.370756149291992,-2.6121487617492676
1761401452471778600,3.444778564453125,0.7573159337043762,-9.378686904907227,-2.612074136734009
1761401452481852000,3.454851806640625,0.7676409482955933,-9.370980262756348,-2.6081087589263916
1761401452491940900,3.46494091796875,0.7905354499816895,-9.384896278381348,-2.601449728012085
1761401452502021600,3.475021728515625,0.7968950867652893,-9.398737907409668,-2.612448215484619
1761401452512092700,3.4850927734375,0.7766191959381104,-9.426345825195312,-2.6407296657562256
1761401452522172400,3.49517236328125,0.7603086829185486,-9.411532402038574,-2.672003984451294
1761401452532267500,3.505267578125,0.7662193775177002,-9.34614086151123,-2.6710312366485596
1761401452542335500,3.51533544921875,0.7805845737457275,-9.313743591308594,-2.6226234436035156
1761401452552426000,3.525426025390625,0.7770680785179138,-9.314866065979004,-2.582670211791992
1761401452562507500,3.535507568359375,0.7837269902229309,-9.33349609375,-2.609081268310547
1761401452572588300,3.54558837890625,0.8044517636299133,-9.358784675598145,-2.6493337154388428
1761401452582657500,3.555657470703125,0.7992144823074341,-9.390283584594727,-2.6874914169311523
1761401452592750000,3.56575,0.7879916429519653,-9.3898344039917,-2.6898107528686523
1761401452602831000,3.5758310546875,0.8086416125297546,-9.373149871826172,-2.6873416900634766
1761401452612895700,3.585895751953125,0.8136544823646545,-9.349431991577148,-2.686069965362549
1761401452622982000,3.59598193359375,0.7971195578575134,-9.346065521240234,-2.674772262573242
1761401452633051100,3.606051025390625,0.8069207668304443,-9.372027397155762,-2.6651206016540527
1761401452643155000,3.616155029296875,0.8203881978988647,-9.367538452148438,-2.650905132293701
1761401452653224200,3.62622412109375,0.8127566576004028,-9.367613792419434,-2.6595091819763184
1761401452663317000,3.63631689453125,0.787467896938324,-9.387141227722168,-2.6313772201538086
1761401452673397800,3.646397705078125,0.7582137584686279,-9.376891136169434,-2.611924409866333
1761401452683478500,3.656478515625,0.7627028822898865,-9.367464065551758,-2.589777946472168
1761401452693559800,3.666559814453125,0.7460930943489075,-9.366415977478027,-2.5743653774261475
1761401452703629300,3.67662939453125,0.7425765991210938,-9.376891136169434,-2.588057279586792
1761401452713721600,3.6867216796875,0.7422025203704834,-9.382427215576172,-2.600776433944702
1761401452723802000,3.696802001953125,0.7557447552680969,-9.363423347473145,-2.6349685192108154
1761401452733883600,3.706883544921875,0.7376385927200317,-9.353696823120117,-2.652176856994629
1761401452743953000,3.716952880859375,0.73674076795578,-9.359533309936523,-2.635193109512329
1761401452754034200,3.7270341796875,0.7466916441917419,-9.36701488494873,-2.6332478523254395
1761401452764126700,3.737126708984375,0.7611317038536072,-9.338583946228027,-2.6279356479644775
1761401452774195700,3.74719580078125,0.7532756924629211,-9.349806785583496,-2.646939516067505
1761401452784288300,3.757288330078125,0.7641992568969727,-9.363348960876465,-2.6619033813476562
1761401452794368500,3.767368408203125,0.7656956315040588,-9.377340316772461,-2.667365074157715
1761401452804442400,3.7774423828125,0.7709329724311829,-9.38325023651123,-2.6594343185424805
1761401452814531300,3.78753125,0.7752724289894104,-9.395445823669434,-2.635267972946167
1761401452824600300,3.797600341796875,0.7817816734313965,-9.369633674621582,-2.614842414855957
1761401452834681900,3.807681884765625,0.7687631845474243,-9.356165885925293,-2.622399091720581
1761401452844773600,3.817773681640625,0.7522282600402832,-9.354669570922852,-2.6458921432495117
1761401452854854700,3.827854736328125,0.739209771156311,-9.366715431213379,-2.674173593521118
1761401452864947700,3.83794775390625,0.7436988949775696,-9.379210472106934,-2.6972179412841797
1761401452875016400,3.848016357421875,0.7476642727851868,-9.400533676147461,-2.687715768814087
1761401452885079300,3.858079345703125,0.741678774356842,-9.397765159606934,-2.6575639247894287
1761401452895168300,3.868168212890625,0.7419780492782593,-9.412653923034668,-2.61783504486084
1761401452905259300,3.87825927734375,0.7463923692703247,-9.403302192687988,-2.611924409866333
1761401452915320600,3.888320556640625,0.7442226409912109,-9.375843048095703,-2.6174609661102295
1761401452925421300,3.89842138671875,0.7329249978065491,-9.34846019744873,-2.6368391513824463
1761401452935502000,3.908502197265625,0.7190086841583252,-9.324442863464355,-2.647538185119629
1761401452945583400,3.918583251953125,0.7390601634979248,-9.329081535339355,-2.643348217010498
1761401452955664100,3.9286640625,0.761954665184021,-9.361104011535645,-2.614842414855957
1761401452965747200,3.938747314453125,0.7606079578399658,-9.40128231048584,-2.6029460430145264
1761401452975825400,3.948825439453125,0.7309048771858215,-9.388711929321289,-2.614842414855957
1761401452985906700,3.95890673828125,0.687061071395874,-9.368586540222168,-2.637662172317505
1761401452995970300,3.96897021484375,0.6802525520324707,-9.347935676574707,-2.660332202911377
1761401453006068700,3.97906884765625,0.7250690460205078,-9.339556694030762,-2.6583120822906494
1761401453016143000,3.98914306640625,0.7429507374763489,-9.3712797164917,-2.6244192123413086
1761401453026230800,3.999230712890625,0.773626446723938,-9.388787269592285,-2.610727310180664
1761401453036304600,4.0093046875,0.7908347249031067,-9.38556957244873,-2.652850389480591
1761401453046392800,4.019392822265625,0.8003367185592651,-9.368436813354492,-2.675445556640625
1761401453056473600,4.0294736328125,0.7402572631835938,-9.36245059967041,-2.687790632247925
1761401453066543600,4.039543701171875,0.7069628834724426,-9.365368843078613,-2.6799347400665283
1761401453076635600,4.0496357421875,0.6952911615371704,-9.355792045593262,-2.6541969776153564
1761401453086716200,4.059716064453125,0.7062146663665771,-9.385794639587402,-2.623671054840088
1761401453096785700,4.06978564453125,0.7059902548789978,-9.406070709228516,-2.5953147411346436
1761401453106878200,4.079878173828125,0.7145943641662598,-9.405172348022461,-2.591573715209961
1761401453116960500,4.08996044921875,0.7422025203704834,-9.398438453674316,-2.6140193939208984
1761401453127040300,4.100040283203125,0.7157914638519287,-9.356689453125,-2.643872022628784
1761401453137118700,4.11011865234375,0.6979097723960876,-9.339706420898438,-2.6506805419921875
1761401453147202300,4.120202392578125,0.669029712677002,-9.350629806518555,-2.6396074295043945
1761401453157259800,4.130259765625,0.6827964186668396,-9.390583038330078,-2.623446464538574
1761401453167363800,4.14036376953125,0.7029974460601807,-9.413252830505371,-2.6233716011047363
1761401453177444600,4.150444580078125,0.7243208289146423,-9.39477252960205,-2.622922897338867
1761401453187526000,4.16052587890625,0.7269394993782043,-9.364919662475586,-2.6524763107299805
1761401453197599000,4.170598876953125,0.7455693483352661,-9.336788177490234,-2.6884641647338867
1761401453207693300,4.180693359375,0.7578396797180176,-9.319130897521973,-2.7026796340942383
1761401453217768700,4.190768798828125,0.7923310995101929,-9.315614700317383,-2.7317841053009033
1761401453227850000,4.20085009765625,0.7948749661445618,-9.330802917480469,-2.7309610843658447
1761401453237916000,4.210916015625,0.8084920048713684,-9.359233856201172,-2.707019090652466
1761401453248011300,4.22101123046875,0.7909843921661377,-9.386168479919434,-2.6886136531829834
1761401453258092000,4.231092041015625,0.768538773059845,-9.407865524291992,-2.6738743782043457
1761401453268173300,4.24117333984375,0.7434744238853455,-9.401057243347168,-2.67140531539917
1761401453278253800,4.25125390625,0.7358429431915283,-9.362675666809082,-2.6770167350769043
1761401453288323600,4.261323486328125,0.7330746054649353,-9.338434219360352,-2.6837503910064697
1761401453298415900,4.271415771484375,0.7436988949775696,-9.3265380859375,-2.6954221725463867
1761401453308497400,4.281497314453125,0.7580640912055969,-9.346814155578613,-2.7204864025115967
1761401453318578000,4.291577880859375,0.7555202841758728,-9.351527214050293,-2.719214677810669
1761401453328662000,4.301662109375,0.7560440301895142,-9.362525939941406,-2.6913070678710938
1761401453338739700,4.31173974609375,0.739359438419342,-9.375544548034668,-2.6699090003967285
1761401453348821000,4.321821044921875,0.7174375057220459,-9.376591682434082,-2.6437971591949463
1761401453358902000,4.331902099609375,0.6945429444313049,-9.37516975402832,-2.632275104522705
1761401453368982300,4.341982177734375,0.7033715844154358,-9.370905876159668,-2.6601076126098633
1761401453379063300,4.352063232421875,0.7084592580795288,-9.373299598693848,-2.686069965362549
1761401453389145000,4.36214501953125,0.745494544506073,-9.35541820526123,-2.699986219406128
1761401453399225300,4.372225341796875,0.7829787731170654,-9.346888542175293,-2.6885387897491455
1761401453409297700,4.382297607421875,0.8147019743919373,-9.34621524810791,-2.686967611312866
1761401453419375000,4.392375,0.8033294677734375,-9.34397029876709,-2.6577134132385254
1761401453429468200,4.40246826171875,0.7787889242172241,-9.351227760314941,-2.641178607940674
1761401453439549200,4.412549072265625,0.7496843934059143,-9.372252464294434,-2.6565163135528564
1761401453449630200,4.422630126953125,0.7089081406593323,-9.392902374267578,-2.6571149826049805
1761401453459711200,4.432711181640625,0.7231985330581665,-9.395146369934082,-2.6746973991394043
1761401453469793000,4.44279296875,0.7510311603546143,-9.349581718444824,-2.7120320796966553
1761401453479873300,4.452873291015625,0.7616553902626038,-9.330204010009766,-2.7210850715637207
1761401453489932800,4.462932861328125,0.7700351476669312,-9.318757057189941,-2.6944496631622314
1761401453500024000,4.473024169921875,0.8084171414375305,-9.326313018798828,-2.716371536254883
1761401453510115600,4.483115478515625,0.8482207655906677,-9.323993682861328,-2.7450270652770996
1761401453520197000,4.493197021484375,0.8285434246063232,-9.322497367858887,-2.761113166809082
1761401453530277400,4.50327734375,0.7900117635726929,-9.322647094726562,-2.7578210830688477
1761401453540354800,4.513354736328125,0.7920318245887756,-9.336862564086914,-2.7485435009002686
1761401453550439400,4.523439453125,0.775945782661438,-9.369857788085938,-2.737919330596924
1761401453560521500,4.533521484375,0.7688380479812622,-9.381006240844727,-2.7206361293792725
1761401453570601700,4.543601806640625,0.7655459642410278,-9.385794639587402,-2.714500904083252
1761401453580683800,4.553683837890625,0.7816320657730103,-9.398438453674316,-2.6931777000427246
1761401453590763500,4.563763427734375,0.7885153889656067,-9.386168479919434,-2.706270933151245
1761401453600832500,4.57383251953125,0.7684639096260071,-9.3573637008667,-2.708141326904297
1761401453610925000,4.583925048828125,0.7842506766319275,-9.329231262207031,-2.7216835021972656
1761401453621006000,4.594006103515625,0.7863456010818481,-9.325864791870117,-2.706944227218628
1761401453631087000,4.604087158203125,0.7982417941093445,-9.344943046569824,-2.7014825344085693
1761401453641156900,4.614156982421875,0.8040028810501099,-9.36117935180664,-2.70223069190979
1761401453651249000,4.624248779296875,0.8138041496276855,-9.350330352783203,-2.7103111743927
1761401453661337000,4.634337158203125,0.8339303731918335,-9.33005428314209,-2.7305121421813965
1761401453671401000,4.64440087890625,0.8208370804786682,-9.33574104309082,-2.7263972759246826
1761401453681492500,4.654492431640625,0.8102127909660339,-9.34501838684082,-2.7207858562469482
1761401453691551200,4.66455126953125,0.8003367185592651,-9.325939178466797,-2.726097822189331
1761401453701653800,4.67465380859375,0.8107365369796753,-9.313669204711914,-2.733729362487793
1761401453711734800,4.68473486328125,0.8025813102722168,-9.311799049377441,-2.762310266494751
1761401453721815300,4.694815185546875,0.7997381687164307,-9.333945274353027,-2.775627851486206
1761401453731896000,4.70489599609375,0.8112602829933167,-9.364396095275879,-2.774430751800537
1761401453741977300,4.714977294921875,0.8270470499992371,-9.377714157104492,-2.7673230171203613
1761401453752058600,4.72505859375,0.8134300112724304,-9.336338996887207,-2.77390718460083
1761401453762139100,4.73513916015625,0.8143278360366821,-9.306112289428711,-2.7519853115081787
1761401453772220200,4.74522021484375,0.8026561141014099,-9.28957748413086,-2.7393407821655273
1761401453782300000,4.7552998046875,0.7876923680305481,-9.281946182250977,-2.7385177612304688
1761401453792367600,4.76536767578125,0.7745990753173828,-9.294739723205566,-2.7665748596191406
1761401453802462700,4.775462646484375,0.7950994372367859,-9.324666976928711,-2.7927615642547607
1761401453812537000,4.785537109375,0.8064718842506409,-9.353023529052734,-2.7813141345977783
1761401453822613200,4.79561328125,0.8236802220344543,-9.361702919006348,-2.7468228340148926
1761401453832705800,4.805705810546875,0.8273463249206543,-9.366415977478027,-2.7298388481140137
1761401453842787600,4.81578759765625,0.7877671718597412,-9.345242500305176,-2.7344775199890137
1761401453852868600,4.82586865234375,0.8010849356651306,-9.323769569396973,-2.7456257343292236
1761401453862948900,4.835948974609375,0.7989152073860168,-9.3265380859375,-2.766350507736206
1761401453873030000,4.84602978515625,0.8172457814216614,-9.315764427185059,-2.746673107147217
1761401453883111000,4.85611083984375,0.8270470499992371,-9.316512107849121,-2.7248260974884033
1761401453893173500,4.866173583984375,0.8234557509422302,-9.314492225646973,-2.7112090587615967
1761401453903272400,4.8762724609375,0.8304138779640198,-9.329231262207031,-2.696918487548828
1761401453913353700,4.886353759765625,0.8201637268066406,-9.344569206237793,-2.7224318981170654
1761401453923434200,4.896434326171875,0.8100631833076477,-9.345242500305176,-2.7543795108795166
1761401453933515300,4.906515380859375,0.8015338182449341,-9.338210105895996,-2.7866263389587402
1761401453943596000,4.916595947265625,0.8264485001564026,-9.321150779724121,-2.7702410221099854
1761401453953667300,4.926667236328125,0.8175450563430786,-9.291447639465332,-2.767472743988037
1761401453963758000,4.936758056640625,0.834678590297699,-9.267206192016602,-2.769343137741089
1761401453983912200,4.956912109375,0.8672247529029846,-9.302520751953125,-2.7965023517608643
1761401453994001000,4.9670009765625,0.8566752672195435,-9.309404373168945,-2.776376247406006
1761401454004082200,4.977082275390625,0.9055320024490356,-9.312172889709473,-2.767622232437134
1761401454014163200,4.9871630859375,0.9023895859718323,-9.329830169677734,-2.769343137741089
1761401454024243700,4.99724365234375,0.8963292837142944,-9.369633674621582,-2.7682957649230957
1761401454034305500,5.007305419921875,0.8791957497596741,-9.375319480895996,-2.789170265197754
1761401454044402200,5.017402099609375,0.8619874119758606,-9.345466613769531,-2.7997944355010986
1761401454054477600,5.0274775390625,0.8287678956985474,-9.298630714416504,-2.806528091430664
1761401454064556300,5.037556396484375,0.8123825788497925,-9.285088539123535,-2.8033857345581055
1761401454074648600,5.047648681640625,0.8323591947555542,-9.3142671585083,-2.7951557636260986
1761401454084729300,5.057729248046875,0.8548048138618469,-9.319953918457031,-2.786850690841675
1761401454094803500,5.067803466796875,0.8596680760383606,-9.314492225646973,-2.772261142730713
1761401454104891100,5.07789111328125,0.8619874119758606,-9.322796821594238,-2.7602901458740234
1761401454114972200,5.08797216796875,0.8679729104042053,-9.309778213500977,-2.7625346183776855
1761401454125050000,5.098050048828125,0.8890718221664429,-9.296834945678711,-2.7777976989746094
1761401454135134000,5.108134033203125,0.8999205827713013,-9.29114818572998,-2.7982232570648193
1761401454145203700,5.11820361328125,0.8694692850112915,-9.290550231933594,-2.802562713623047
1761401454155284500,5.128284423828125,0.8568997383117676,-9.306187629699707,-2.8035354614257812
1761401454165377000,5.138376953125,0.8712649345397949,-9.332598686218262,-2.7975499629974365
1761401454175448800,5.14844873046875,0.872686505317688,-9.340529441833496,-2.7679965496063232
1761401454185527600,5.158527587890625,0.8643068075180054,-9.34389591217041,-2.7586441040039062
1761401454195619300,5.168619384765625,0.8655787110328674,-9.329605102539062,-2.759317398071289
1761401454205702000,5.178701904296875,0.8602666258811951,-9.324518203735352,-2.75580096244812
1761401454215770600,5.1887705078125,0.8693944811820984,-9.309030532836914,-2.745924949645996
1761401454225863400,5.198863525390625,0.8554781675338745,-9.324816703796387,-2.772710084915161
1761401454235943400,5.208943359375,0.8563759922981262,-9.322497367858887,-2.7828853130340576
1761401454256105200,5.229105224609375,0.8592191338539124,-9.322647094726562,-2.7760021686553955
1761401454266186200,5.239186279296875,0.8812158703804016,-9.341053009033203,-2.7590181827545166
1761401454276266800,5.249266845703125,0.8891466856002808,-9.3427734375,-2.7351510524749756
1761401454286350600,5.2593505859375,0.8681973814964294,-9.332149505615234,-2.7510125637054443
1761401454296429000,5.269428955078125,0.8450784087181091,-9.336862564086914,-2.7777976989746094
1761401454306510800,5.2795107421875,0.8305635452270508,-9.317410469055176,-2.770989179611206
1761401454316591600,5.289591552734375,0.8438813090324402,-9.312172889709473,-2.761038303375244
1761401454326662400,5.299662353515625,0.8752303719520569,-9.33005428314209,-2.736497640609741
1761401454336753000,5.3097529296875,0.8812906742095947,-9.359533309936523,-2.723928213119507
1761401454346833700,5.319833740234375,0.8802432417869568,-9.387215614318848,-2.7374703884124756
1761401454356908000,5.329907958984375,0.8845826983451843,-9.373748779296875,-2.762385129928589
1761401454366995700,5.33999560546875,0.8495675325393677,-9.347637176513672,-2.7731590270996094
1761401454377077000,5.350076904296875,0.825625479221344,-9.303194046020508,-2.7830350399017334
1761401454387157500,5.360157470703125,0.829441249370575,-9.290474891662598,-2.790816068649292
1761401454397237500,5.370237548828125,0.8598176836967468,-9.295113563537598,-2.7834839820861816
1761401454407319300,5.3803193359375,0.8598924875259399,-9.32421875,-2.744727849960327
1761401454417413000,5.3904130859375,0.8750807046890259,-9.327061653137207,-2.7149498462677
1761401454427470000,5.400469970703125,0.8831611275672913,-9.329081535339355,-2.7254245281219482
1761401454437562400,5.410562255859375,0.8845078945159912,-9.337685585021973,-2.7568483352661133
1761401454447642600,5.420642578125,0.8484452366828918,-9.315614700317383,-2.7858781814575195
1761401454457724000,5.430723876953125,0.8461258411407471,-9.287707328796387,-2.8074259757995605
1761401454467794000,5.4407939453125,0.8607903122901917,-9.290176391601562,-2.8009166717529297
1761401454477894700,5.450894775390625,0.8616133332252502,-9.307234764099121,-2.782062292098999
1761401454487966700,5.460966796875,0.863932728767395,-9.327585220336914,-2.7591679096221924
1761401454498047500,5.471047607421875,0.8684218525886536,-9.342998504638672,-2.7352259159088135
1761401454508118800,5.481118896484375,0.8483704328536987,-9.356016159057617,-2.7288661003112793
1761401454518209500,5.49120947265625,0.8298153281211853,-9.376441955566406,-2.742558002471924
1761401454528279000,5.501279052734375,0.8234557509422302,-9.348609924316406,-2.750713348388672
1761401454538371300,5.511371337890625,0.8221838474273682,-9.321824073791504,-2.7590181827545166
1761401454548452600,5.52145263671875,0.8155249357223511,-9.298555374145508,-2.7717373371124268
1761401454558498000,5.531498046875,0.8192659020423889,-9.292869567871094,-2.7683706283569336
1761401454568614100,5.5416142578125,0.8152256608009338,-9.312247276306152,-2.7696423530578613
1761401454578695200,5.551695068359375,0.8451532125473022,-9.334543228149414,-2.7667994499206543
1761401454588776700,5.561776611328125,0.8470984697341919,-9.324816703796387,-2.7562499046325684
1761401454598845000,5.571844970703125,0.8436568379402161,-9.297508239746094,-2.7601404190063477
1761401454608938200,5.581938232421875,0.8523358106613159,-9.277606010437012,-2.7638814449310303
1761401454619019500,5.59201953125,0.8602666258811951,-9.285238265991211,-2.769941806793213
1761401454639180500,5.6121806640625,0.8627356290817261,-9.319729804992676,-2.7700164318084717
1761401454649239300,5.6222392578125,0.8681973814964294,-9.32302188873291,-2.7752537727355957
1761401454659343000,5.632343017578125,0.8738088011741638,-9.335291862487793,-2.7886464595794678
1761401454669424600,5.642424560546875,0.8782979249954224,-9.346514701843262,-2.795380115509033
1761401454679495400,5.652495361328125,0.8674492239952087,-9.3590087890625,-2.7965023517608643
1761401454689593000,5.662593017578125,0.8809165954589844,-9.341202735900879,-2.8029367923736572
1761401454699666400,5.67266650390625,0.8644564747810364,-9.328108787536621,-2.811765432357788
1761401454709747500,5.68274755859375,0.8782231211662292,-9.329754829406738,-2.8074259757995605
1761401454719819000,5.692819091796875,0.8682721853256226,-9.319804191589355,-2.8104186058044434
1761401454729909200,5.7029091796875,0.8623615503311157,-9.308281898498535,-2.8027124404907227
1761401454739979000,5.71297900390625,0.8715642094612122,-9.28838062286377,-2.80473256111145
1761401454750071300,5.7230712890625,0.8802432417869568,-9.304242134094238,-2.806004285812378
1761401454760152300,5.73315234375,0.872686505317688,-9.327211380004883,-2.793883800506592
1761401454770233000,5.743233154296875,0.8572738170623779,-9.32302188873291,-2.7864766120910645
1761401454780314400,5.753314453125,0.8509142398834229,-9.287407875061035,-2.812887668609619
1761401454790407000,5.763406982421875,0.8560019135475159,-9.271321296691895,-2.83174204826355
1761401454800476400,5.773476318359375,0.8585457801818848,-9.300874710083008,-2.8381764888763428
1761401454810570500,5.783570556640625,0.8695441484451294,-9.326014518737793,-2.8226890563964844
1761401454820638000,5.793637939453125,0.8655787110328674,-9.344643592834473,-2.7991957664489746
1761401454830721000,5.803720947265625,0.8536825180053711,-9.339556694030762,-2.7922377586364746
1761401454840799500,5.813799560546875,0.8566004633903503,-9.307982444763184,-2.795380115509033
1761401454850880800,5.823880859375,0.8880243897438049,-9.303119659423828,-2.813561201095581
1761401454860950300,5.8339501953125,0.8876502513885498,-9.314641952514648,-2.7816882133483887
1761401454871042800,5.844042724609375,0.8551040887832642,-9.319055557250977,-2.759392261505127
1761401454881123000,5.854123046875,0.8417115211486816,-9.311873435974121,-2.7602901458740234
1761401454891204000,5.8642041015625,0.8391677141189575,-9.319504737854004,-2.7795186042785645
1761401454901273600,5.874273681640625,0.8423100709915161,-9.317185401916504,-2.788496732711792
1761401454911366400,5.884366455078125,0.8490437865257263,-9.321824073791504,-2.7899932861328125
1761401454921448000,5.894447998046875,0.8504653573036194,-9.338808059692383,-2.805330991744995
1761401454931517000,5.904516845703125,0.8539069890975952,-9.339481353759766,-2.8062288761138916
1761401454941609000,5.91460888671875,0.8673743605613708,-9.335142135620117,-2.787823438644409
1761401454951689700,5.924689697265625,0.8833855986595154,-9.324518203735352,-2.769717216491699
1761401454961780500,5.934780517578125,0.8892214894294739,-9.343297004699707,-2.754229784011841
1761401454971851800,5.944851806640625,0.8735843300819397,-9.344045639038086,-2.757671356201172
1761401454981932800,5.954932861328125,0.8649053573608398,-9.323320388793945,-2.7498903274536133
1761401454992002800,5.9650029296875,0.8445546627044678,-9.301697731018066,-2.7731590270996094
1761401455002095000,5.97509521484375,0.8315361738204956,-9.29653549194336,-2.784456491470337
1761401455012176100,5.985176025390625,0.8355015516281128,-9.302520751953125,-2.780940055847168
1761401455022245600,5.99524560546875,0.8315361738204956,-9.326462745666504,-2.765676975250244
1761401455032337200,6.005337158203125,0.8419359922409058,-9.333869934082031,-2.757072925567627
1761401455042418200,6.015418212890625,0.8378957509994507,-9.315838813781738,-2.7484686374664307
1761401455052490000,6.025489990234375,0.8558523058891296,-9.31277084350586,-2.7661259174346924
1761401455062581200,6.035581298828125,0.8673743605613708,-9.324592590332031,-2.765302896499634
1761401455072661200,6.0456611328125,0.8797942996025085,-9.327884674072266,-2.75116229057312
1761401455092823000,6.065822998046875,0.842085599899292,-9.323619842529297,-2.7602152824401855
1761401455102904000,6.075904052734375,0.8575730919837952,-9.342623710632324,-2.7694928646087646
1761401455112973800,6.085973876953125,0.8571242094039917,-9.355866432189941,-2.7656023502349854
1761401455123053300,6.09605322265625,0.869020402431488,-9.349431991577148,-2.7759273052215576
1761401455133147400,6.1061474609375,0.8818892240524292,-9.328857421875,-2.7805659770965576
1761401455143228000,6.116227783203125,0.866551399230957,-9.309927940368652,-2.795006036758423
1761401455153292800,6.126292724609375,0.8527098894119263,-9.291297912597656,-2.801814556121826
1761401455163390700,6.136390625,0.8312368988990784,-9.30341911315918,-2.8110172748565674
1761401455173475300,6.146475341796875,0.8375216722488403,-9.32197380065918,-2.782660961151123
1761401455183536400,6.156536376953125,0.8488941192626953,-9.314716339111328,-2.7479450702667236
1761401455193523200,6.166523193359375,0.8597428798675537,-9.33125114440918,-2.736647367477417
1761401455203691800,6.17669189453125,0.8663269281387329,-9.349881172180176,-2.72265625
1761401455213796400,6.18679638671875,0.8470984697341919,-9.352350234985352,-2.752434015274048
1761401455223874800,6.196874755859375,0.844704270362854,-9.327211380004883,-2.7667245864868164
1761401455233958000,6.2069580078125,0.8398410677909851,-9.30573844909668,-2.7870004177093506
1761401455244037400,6.217037353515625,0.8230816721916199,-9.293842315673828,-2.7953052520751953
1761401455254118100,6.2271181640625,0.8279448747634888,-9.295039176940918,-2.7713632583618164
1761401455264193000,6.237193115234375,0.8375964760780334,-9.309404373168945,-2.75116229057312
1761401455274280200,6.2472802734375,0.8315361738204956,-9.346439361572266,-2.749965190887451
1761401455284361500,6.257361572265625,0.8535329103469849,-9.379584312438965,-2.762310266494751
1761401455294420500,6.26742041015625,0.8594436049461365,-9.377115249633789,-2.787374496459961
1761401455304523500,6.2775234375,0.866551399230957,-9.346065521240234,-2.8029367923736572
1761401455314605600,6.28760546875,0.8869768977165222,-9.287407875061035,-2.782660961151123
1761401455324685300,6.297685302734375,0.8727613091468811,-9.263615608215332,-2.762235403060913
1761401455334767000,6.30776708984375,0.8715642094612122,-9.289876937866211,-2.762310266494751
1761401455344848000,6.317847900390625,0.8762030005455017,-9.31494140625,-2.7909657955169678
1761401455354928000,6.32792822265625,0.885630190372467,-9.324442863464355,-2.830470085144043
1761401455365001000,6.3380009765625,0.8516624569892883,-9.337835311889648,-2.8516438007354736
1761401455375090400,6.34809033203125,0.8421604633331299,-9.330727577209473,-2.846855401992798
1761401455385171500,6.35817138671875,0.8243535757064819,-9.329605102539062,-2.8085482120513916
1761401455395233000,6.36823291015625,0.8412626385688782,-9.316437721252441,-2.7656023502349854
1761401455405333200,6.378333251953125,0.8329577445983887,-9.30813217163086,-2.749965190887451
1761401455415413500,6.38841357421875,0.8604162335395813,-9.318757057189941,-2.7537059783935547
1761401455425453000,6.398453125,0.8579472303390503,-9.321150779724121,-2.775179147720337
1761401455435575800,6.408575927734375,0.8627356290817261,-9.31037712097168,-2.777573347091675
1761401455445637400,6.418637451171875,0.8533084392547607,-9.290101051330566,-2.772859573364258
1761401455455737600,6.428737548828125,0.8318354487419128,-9.317634582519531,-2.7644052505493164
1761401455465818600,6.438818603515625,0.826972246170044,-9.361852645874023,-2.776376247406006
1761401455475900000,6.44889990234375,0.8233060836791992,-9.37853717803955,-2.8026375770568848
1761401455485980200,6.458980224609375,0.8483704328536987,-9.329455375671387,-2.815880537033081
1761401455496062000,6.46906201171875,0.8316109776496887,-9.278204917907715,-2.820519208908081
1761401455506142200,6.47914208984375,0.8054243922233582,-9.26758098602295,-2.798896551132202
1761401455516223500,6.489223388671875,0.8353519439697266,-9.294889450073242,-2.776301383972168
1761401455526304000,6.499303955078125,0.8291419744491577,-9.318981170654297,-2.7654526233673096
1761401455536386000,6.509385986328125,0.8172457814216614,-9.30229663848877,-2.758195161819458
1761401455546467000,6.519467041015625,0.8064718842506409,-9.311873435974121,-2.762983560562134
1761401455556547600,6.529547607421875,0.8171709775924683,-9.326164245605469,-2.7641806602478027
1761401455566628000,6.539628173828125,0.8267477750778198,-9.348834037780762,-2.755875825881958
1761401455576718800,6.54971875,0.8339303731918335,-9.329680442810059,-2.7654526233673096
1761401455586789400,6.559789306640625,0.8326584696769714,-9.302146911621094,-2.7929110527038574
1761401455596871200,6.56987109375,0.8409633636474609,-9.314118385314941,-2.802562713623047
1761401455606952400,6.579952392578125,0.8387187719345093,-9.341501235961914,-2.797849178314209
1761401455617032400,6.590032470703125,0.8399906754493713,-9.337985038757324,-2.7822868824005127
1761401455627090700,6.600090576171875,0.844853937625885,-9.314043045043945,-2.7632081508636475
1761401455637181700,6.610181640625,0.8125321865081787,-9.292645454406738,-2.776151657104492
1761401455647252700,6.620252685546875,0.8125321865081787,-9.298630714416504,-2.7654526233673096
1761401455657333800,6.630333740234375,0.8197147846221924,-9.317784309387207,-2.7654526233673096
1761401455667414300,6.640414306640625,0.844853937625885,-9.352275848388672,-2.752434015274048
1761401455677495600,6.65049560546875,0.8556278347969055,-9.358261108398438,-2.746523380279541
1761401455687576300,6.660576416015625,0.8411129713058472,-9.333271980285645,-2.7607390880584717
1761401455697665300,6.670665283203125,0.8363245725631714,-9.318906784057617,-2.7690439224243164
1761401455707737000,6.680737060546875,0.8482207655906677,-9.331999778747559,-2.7667245864868164
1761401455717841700,6.690841552734375,0.8267477750778198,-9.352425575256348,-2.7630584239959717
1761401455727923700,6.700923828125,0.8101379871368408,-9.353696823120117,-2.73073673248291
1761401455738006300,6.71100634765625,0.8029553890228271,-9.344195365905762,-2.7271454334259033
1761401455748084700,6.721084716796875,0.821959376335144,-9.34165096282959,-2.757072925567627
1761401455758168000,6.73116796875,0.8373720645904541,-9.302146911621094,-2.8108675479888916
1761401455768247000,6.7412470703125,0.860042154788971,-9.264962196350098,-2.8384008407592773
1761401455778327300,6.751327392578125,0.8362497687339783,-9.263914108276367,-2.802487850189209
1761401455788408000,6.761407958984375,0.8399158716201782,-9.303343772888184,-2.7666497230529785
1761401455798488000,6.771488037109375,0.8482955694198608,-9.337985038757324,-2.748842716217041
1761401455808570600,6.781570556640625,0.8530839681625366,-9.354669570922852,-2.7548282146453857
1761401455818651600,6.791651611328125,0.8470984697341919,-9.334393501281738,-2.7607390880584717
1761401455828732700,6.801732666015625,0.8542062640190125,-9.327211380004883,-2.778695583343506
1761401455838813000,6.81181298828125,0.8589946627616882,-9.336712837219238,-2.7679965496063232
1761401455848894500,6.82189453125,0.8601169586181641,-9.371429443359375,-2.751236915588379
1761401455858974700,6.831974609375,0.861314058303833,-9.382203102111816,-2.7321581840515137
1761401455869056000,6.842055908203125,0.8518868684768677,-9.350030899047852,-2.7141268253326416
1761401455879097300,6.852097412109375,0.8506897687911987,-9.315389633178711,-2.705747127532959
1761401455889217800,6.8622177734375,0.8184428811073303,-9.317934036254883,-2.7067947387695312
1761401455899298300,6.87229833984375,0.7981669902801514,-9.320403099060059,-2.7031285762786865
1761401455909380900,6.882380859375,0.7814075946807861,-9.338358879089355,-2.7018566131591797
1761401455919461000,6.892461181640625,0.8016834855079651,-9.351452827453613,-2.7079169750213623
1761401455929543000,6.90254296875,0.819340705871582,-9.347861289978027,-2.7043256759643555
1761401455939603000,6.91260302734375,0.8181436061859131,-9.338284492492676,-2.7234044075012207
1761401455949683200,6.92268310546875,0.8301146030426025,-9.301249504089355,-2.717493772506714
1761401455959785200,6.93278515625,0.8432078957557678,-9.310750961303711,-2.7198879718780518
1761401455969865000,6.942864990234375,0.8289175033569336,-9.33229923248291,-2.717493772506714
1761401455979946500,6.952946533203125,0.8181436061859131,-9.346664428710938,-2.7234044075012207
1761401455990027800,6.96302783203125,0.8181436061859131,-9.353846549987793,-2.721010208129883
1761401456000108800,6.97310888671875,0.8025813102722168,-9.355118751525879,-2.721010208129883
1761401456010166000,6.983166015625,0.7906851172447205,-9.359831809997559,-2.740088939666748
1761401456020270600,6.9932705078125,0.7966706156730652,-9.356241226196289,-2.736572504043579
1761401456030351600,7.0033515625,0.8181436061859131,-9.33342170715332,-2.7461493015289307
1761401456040431600,7.013431640625,0.8396914005279541,-9.324966430664062,-2.754603862762451
1761401456050513400,7.023513427734375,0.858845055103302,-9.322497367858887,-2.7463738918304443
1761401456060594700,7.0335947265625,0.8551788926124573,-9.328483581542969,-2.75348162651062
1761401456070674400,7.04367431640625,0.8563759922981262,-9.324892044067383,-2.760664224624634
1761401456080745700,7.053745849609375,0.8408136963844299,-9.324966430664062,-2.762983560562134
1761401456090837800,7.063837646484375,0.8374468684196472,-9.317784309387207,-2.7510874271392822
1761401456100917800,7.073917724609375,0.8362497687339783,-9.333346366882324,-2.735599994659424
1761401456110999300,7.083999267578125,0.8434323668479919,-9.345242500305176,-2.7475709915161133
1761401456121079000,7.0940791015625,0.8278700709342957,-9.340529441833496,-2.737919330596924
1761401456131160300,7.104160400390625,0.8411129713058472,-9.333346366882324,-2.7236289978027344
1761401456141241600,7.11424169921875,0.8254758715629578,-9.322647094726562,-2.7391164302825928
1761401456151322600,7.124322509765625,0.8386439681053162,-9.329754829406738,-2.7486932277679443
1761401456161388800,7.134388916015625,0.8421604633331299,-9.334468841552734,-2.760664224624634
1761401456171483100,7.144483154296875,0.8399158716201782,-9.336862564086914,-2.7607390880584717
1761401456181565200,7.154565185546875,0.8220341801643372,-9.341726303100586,-2.732008695602417
1761401456191627800,7.164627685546875,0.8030301928520203,-9.360954284667969,-2.710386037826538
1761401456201726500,7.1747265625,0.8042272925376892,-9.368062019348145,-2.710460662841797
1761401456211794400,7.18479443359375,0.7957727909088135,-9.351377487182617,-2.739041566848755
1761401456221888800,7.194888671875,0.7885901927947998,-9.322722434997559,-2.7317841053009033
1761401456231969000,7.204968994140625,0.7779659032821655,-9.303718566894531,-2.716221809387207
1761401456242050600,7.215050537109375,0.7922562956809998,-9.303643226623535,-2.7317841053009033
1761401456252132000,7.225132080078125,0.8340051770210266,-9.309404373168945,-2.7463738918304443
1761401456262209800,7.235209716796875,0.8494926691055298,-9.314118385314941,-2.758344888687134
1761401456272271000,7.24527099609375,0.8483704328536987,-9.34037971496582,-2.7392659187316895
1761401456282375200,7.255375244140625,0.8399906754493713,-9.366715431213379,-2.722506523132324
1761401456292456400,7.26545654296875,0.8436568379402161,-9.369110107421875,-2.699836492538452
1761401456302537000,7.275536865234375,0.825775146484375,-9.358485221862793,-2.6937761306762695
1761401456312617700,7.28561767578125,0.805499255657196,-9.358560562133789,-2.68412446975708
1761401456322699300,7.29569921875,0.788739800453186,-9.36701488494873,-2.6804585456848145
1761401456332778800,7.30577880859375,0.7935281991958618,-9.355043411254883,-2.6769418716430664
1761401456342860500,7.315860595703125,0.7948001623153687,-9.355043411254883,-2.6733505725860596
1761401456352937700,7.325937744140625,0.7983914613723755,-9.351452827453613,-2.663773775100708
1761401456363022000,7.33602197265625,0.8090905547142029,-9.363348960876465,-2.6746225357055664
1761401456373084200,7.346084228515625,0.8162731528282166,-9.356165885925293,-2.666242837905884
1761401456383184400,7.356184326171875,0.8126818537712097,-9.340603828430176,-2.6746225357055664
1761401456393264400,7.366264404296875,0.8019079566001892,-9.340678215026855,-2.686518669128418
1761401456403323600,7.37632373046875,0.8031050562858582,-9.331101417541504,-2.6781389713287354
1761401456413427000,7.386427001953125,0.7998130321502686,-9.33461856842041,-2.679410934448242
1761401456423508200,7.39650830078125,0.7903110384941101,-9.331027030944824,-2.6686370372772217
1761401456433588200,7.406588134765625,0.7831284403800964,-9.359757423400879,-2.663848638534546
1761401456443669800,7.416669677734375,0.7830535769462585,-9.363348960876465,-2.6758196353912354
1761401456453751000,7.4267509765625,0.7782651782035828,-9.37053108215332,-2.6913070678710938
1761401456463831800,7.436831787109375,0.7889642715454102,-9.378836631774902,-2.708066463470459
1761401456473912800,7.446912841796875,0.8140285611152649,-9.378686904907227,-2.703427791595459
1761401456483993600,7.45699365234375,0.8164227604866028,-9.37629222869873,-2.707019090652466
1761401456494051600,7.467051513671875,0.8185925483703613,-9.375245094299316,-2.687790632247925
1761401456504154400,7.477154296875,0.8174702525138855,-9.360879898071289,-2.684199333190918
1761401456514219500,7.487219482421875,0.7803601026535034,-9.346738815307617,-2.6863691806793213
1761401456524331500,7.49733154296875,0.7720552086830139,-9.341950416564941,-2.6815807819366455
1761401456534398700,7.507398681640625,0.7529764175415039,-9.349207878112793,-2.669534921646118
1761401456544478700,7.517478759765625,0.7589619159698486,-9.345616340637207,-2.666018486022949
1761401456554560300,7.527560302734375,0.7684639096260071,-9.349133491516113,-2.667215585708618
1761401456564641300,7.537641357421875,0.7888146638870239,-9.373000144958496,-2.6721534729003906
1761401456574722600,7.54772265625,0.790086567401886,-9.400383949279785,-2.6674399375915527
1761401456584780500,7.557780517578125,0.7757961750030518,-9.405247688293457,-2.662576675415039
1761401456594884000,7.567884033203125,0.7865700721740723,-9.372925758361816,-2.6530747413635254
1761401456604965400,7.57796533203125,0.7902361750602722,-9.316811561584473,-2.6518027782440186
1761401456615045600,7.588045654296875,0.792555570602417,-9.317934036254883,-2.660182476043701
1761401456625126100,7.598126220703125,0.7960720658302307,-9.340603828430176,-2.690109968185425
1761401456635207200,7.608207275390625,0.7733271718025208,-9.376517295837402,-2.694823741912842
1761401456645266000,7.618265869140625,0.7756465077400208,-9.407567024230957,-2.712780237197876
1761401456655370500,7.62837060546875,0.7790133953094482,-9.402853012084961,-2.7222821712493896
1761401456665450200,7.6384501953125,0.7933785915374756,-9.359757423400879,-2.7246763706207275
1761401456675531300,7.64853125,0.7947252988815308,-9.319130897521973,-2.7008092403411865
1761401456685611800,7.65861181640625,0.7779659032821655,-9.288155555725098,-2.7042508125305176
1761401456695693000,7.668693115234375,0.7742998003959656,-9.304840087890625,-2.738891839981079
1761401456705774600,7.678774658203125,0.7790133953094482,-9.319205284118652,-2.7568483352661133
1761401456715854800,7.688854736328125,0.7885901927947998,-9.33588981628418,-2.737844467163086
1761401456725936000,7.69893603515625,0.8041524887084961,-9.341800689697266,-2.7223570346832275
1761401456736017400,7.709017333984375,0.8293664455413818,-9.376367568969727,-2.6938509941101074
1761401456746098200,7.71909814453125,0.8209867477416992,-9.390732765197754,-2.6997616291046143
1761401456756179500,7.729179443359375,0.8160486817359924,-9.366790771484375,-2.732008695602417
1761401456766259700,7.739259765625,0.7945008873939514,-9.354969024658203,-2.7462241649627686
1761401456776340700,7.7493408203125,0.8136544823646545,-9.33574104309082,-2.7486932277679443
1761401456786398700,7.759398681640625,0.8113350868225098,-9.344120025634766,-2.7211599349975586
1761401456796503000,7.7695029296875,0.8221838474273682,-9.347711563110352,-2.6913819313049316
1761401456806583300,7.779583251953125,0.8198644518852234,-9.340603828430176,-2.6734254360198975
1761401456816637700,7.7896376953125,0.8019079566001892,-9.339481353759766,-2.685321569442749
1761401456826746000,7.79974609375,0.783801794052124,-9.349058151245117,-2.7282676696777344
1761401456836806700,7.809806640625,0.7909095883369446,-9.331027030944824,-2.761711597442627
1761401456846908000,7.819907958984375,0.7992892861366272,-9.320253372192383,-2.759317398071289
1761401456867032600,7.840032470703125,0.8126070499420166,-9.315464973449707,-2.710386037826538
1761401456877150000,7.85014990234375,0.8042272925376892,-9.322722434997559,-2.7079918384552
1761401456887232000,7.86023193359375,0.8042272925376892,-9.321524620056152,-2.7187657356262207
1761401456897312000,7.87031201171875,0.8052747845649719,-9.33461856842041,-2.754603862762451
1761401456907393500,7.8803935546875,0.8099883794784546,-9.33574104309082,-2.782137155532837
1761401456917450200,7.8904501953125,0.821959376335144,-9.34165096282959,-2.7618613243103027
1761401456927554800,7.900554931640625,0.8327332735061646,-9.345242500305176,-2.7487680912017822
1761401456937636000,7.910635986328125,0.8172457814216614,-9.33933162689209,-2.752284526824951
1761401456947716600,7.920716552734375,0.8004863858222961,-9.331027030944824,-2.760589361190796
1761401456957783300,7.930783203125,0.7789385318756104,-9.33588981628418,-2.7748050689697266
1761401456967878400,7.94087841796875,0.7860463261604309,-9.340603828430176,-2.7807905673980713
1761401456977936400,7.950936279296875,0.8029553890228271,-9.332149505615234,-2.782137155532837
1761401456988043500,7.96104345703125,0.8185176849365234,-9.301024436950684,-2.775029420852661
1761401456998121200,7.971121337890625,0.8197147846221924,-9.307010650634766,-2.760664224624634
1761401457008202500,7.981202392578125,0.846051037311554,-9.339181900024414,-2.745326280593872
1761401457018282800,7.99128271484375,0.8544307351112366,-9.372551918029785,-2.748917579650879
1761401457028364300,8.0013642578125,0.8304887413978577,-9.339181900024414,-2.7607390880584717
1761401457038445800,8.01144580078125,0.8328829407691956,-9.292570114135742,-2.7703158855438232
1761401457048525600,8.021525634765625,0.8471733331680298,-9.293692588806152,-2.778695583343506
1761401457058606800,8.03160693359375,0.8339303731918335,-9.307010650634766,-2.7666497230529785
1761401457068687600,8.0416875,0.8160486817359924,-9.345317840576172,-2.7498903274536133
1761401457078769400,8.051769287109375,0.8233060836791992,-9.354819297790527,-2.7236289978027344
1761401457088850000,8.061849853515625,0.8089408874511719,-9.364471435546875,-2.7152493000030518
1761401457098891300,8.071891357421874,0.7706336975097656,-9.357438087463379,-2.736572504043579
1761401457109011700,8.08201171875,0.764573335647583,-9.335965156555176,-2.769941806793213
1761401457119102200,8.092102294921874,0.7693617343902588,-9.318008422851562,-2.7831099033355713
1761401457129173200,8.10217333984375,0.7562684416770935,-9.29653549194336,-2.7638814449310303
1761401457139254800,8.1122548828125,0.7649474143981934,-9.313145637512207,-2.7485435009002686
1761401457149336300,8.12233642578125,0.7852233648300171,-9.329830169677734,-2.7474961280822754
1761401457159416600,8.13241650390625,0.7996633648872375,-9.346514701843262,-2.732008695602417
1761401457169497900,8.142497802734376,0.7983914613723755,-9.351303100585938,-2.734402894973755
1761401457179578600,8.15257861328125,0.8378209471702576,-9.331999778747559,-2.746523380279541
1761401457189660000,8.162659912109374,0.830713152885437,-9.336788177490234,-2.7369465827941895
1761401457199740700,8.17274072265625,0.8139537572860718,-9.353622436523438,-2.7416601181030273
1761401457209821000,8.182821044921875,0.8043769598007202,-9.3620023727417,-2.7415854930877686
1761401457219879400,8.19287939453125,0.8163479566574097,-9.352350234985352,-2.7440543174743652
1761401457229982700,8.202982666015625,0.7984662652015686,-9.338134765625,-2.733205795288086
1761401457240064300,8.213064208984376,0.807968258857727,-9.311799049377441,-2.7391912937164307
1761401457250145300,8.223145263671874,0.8068459630012512,-9.338134765625,-2.7201123237609863
1761401457260226300,8.233226318359375,0.8044517636299133,-9.378761291503906,-2.701033592224121
1761401457270306300,8.243306396484375,0.8069207668304443,-9.356016159057617,-2.6938509941101074
1761401457280387800,8.253387939453125,0.7877671718597412,-9.320253372192383,-2.708066463470459
1761401457290468900,8.26346875,0.7876923680305481,-9.29878044128418,-2.733130931854248
1761401457300550400,8.27355029296875,0.7909095883369446,-9.317934036254883,-2.75812029838562
1761401457310608000,8.28360791015625,0.8064718842506409,-9.326238632202148,-2.754603862762451
1761401457320711400,8.29371142578125,0.8088660836219788,-9.348908424377441,-2.7451019287109375
1761401457330792400,8.30379248046875,0.8004863858222961,-9.356165885925293,-2.740238666534424
1761401457340872700,8.313872802734375,0.8124573826789856,-9.348908424377441,-2.737919330596924
1761401457350955300,8.323955322265626,0.8077437877655029,-9.33342170715332,-2.733130931854248
1761401457361045500,8.33404541015625,0.826897382736206,-9.33693790435791,-2.7236289978027344
1761401457371073800,8.34407373046875,0.8233060836791992,-9.323769569396973,-2.7224318981170654
1761401457381196800,8.35419677734375,0.8183680772781372,-9.309478759765625,-2.739041566848755
1761401457391239700,8.36423974609375,0.820687472820282,-9.299901962280273,-2.759392261505127
1761401457401358600,8.374358642578125,0.8242039084434509,-9.321375846862793,-2.7641806602478027
1761401457411444700,8.38444482421875,0.8361749649047852,-9.348834037780762,-2.7678468227386475
1761401457421520400,8.394520263671875,0.823006808757782,-9.364396095275879,-2.7641806602478027
1761401457431602000,8.404601806640626,0.803928017616272,-9.353772163391113,-2.7521347999572754
1761401457441660200,8.41466015625,0.8111106157302856,-9.319055557250977,-2.7557260990142822
1761401457471923200,8.444923095703125,0.8276455998420715,-9.351377487182617,-2.7306618690490723
1761401457482023000,8.45502294921875,0.8240543007850647,-9.33349609375,-2.7257986068725586
1761401457492087000,8.465087158203126,0.8300397992134094,-9.310750961303711,-2.740163803100586
1761401457502168800,8.4751689453125,0.8216601014137268,-9.319130897521973,-2.737769603729248
1761401457512249300,8.485249267578125,0.8240543007850647,-9.344269752502441,-2.7329812049865723
1761401457522308900,8.495308837890626,0.835950493812561,-9.377638816833496,-2.733130931854248
1761401457532424000,8.505423828125,0.820537805557251,-9.375319480895996,-2.7079169750213623
1761401457542492400,8.515492431640626,0.7935281991958618,-9.358485221862793,-2.729539632797241
1761401457552572700,8.52557275390625,0.7659949064254761,-9.338284492492676,-2.7545289993286133
1761401457562654200,8.535654296875,0.7838765978813171,-9.321450233459473,-2.7676970958709717
1761401457572734500,8.545734375,0.7755717039108276,-9.30005168914795,-2.741360902786255
1761401457582816000,8.55581591796875,0.788889467716217,-9.320327758789062,-2.7020063400268555
1761401457592896800,8.565896728515625,0.8139537572860718,-9.344120025634766,-2.6925790309906006
1761401457602978000,8.57597802734375,0.8270470499992371,-9.351227760314941,-2.7129297256469727
1761401457613037800,8.586037841796875,0.8317606449127197,-9.328483581542969,-2.7404630184173584
1761401457623146000,8.59614599609375,0.8267477750778198,-9.315389633178711,-2.7618613243103027
1761401457633221400,8.606221435546875,0.8458265662193298,-9.335591316223145,-2.7703158855438232
1761401457643301000,8.616301025390625,0.8243535757064819,-9.344045639038086,-2.758270025253296
1761401457653382400,8.62638232421875,0.8183680772781372,-9.33693790435791,-2.758270025253296
1761401457663440600,8.636440673828124,0.8064718842506409,-9.352499961853027,-2.7415106296539307
1761401457673522000,8.64652197265625,0.7957727909088135,-9.350180625915527,-2.740238666534424
1761401457683626000,8.6566259765625,0.784998893737793,-9.340678215026855,-2.7473464012145996
1761401457693706800,8.666706787109375,0.7766191959381104,-9.347861289978027,-2.73537540435791
1761401457703787500,8.67678759765625,0.7832032442092896,-9.346514701843262,-2.709338426589966
1761401457713868500,8.68686865234375,0.7820809483528137,-9.352499961853027,-2.6866683959960938
1761401457723926300,8.69692626953125,0.7952490448951721,-9.33925724029541,-2.683151960372925
1761401457734031000,8.707031005859376,0.7868693470954895,-9.333346366882324,-2.699836492538452
1761401457744110600,8.717110595703126,0.7987655401229858,-9.315389633178711,-2.707019090652466
1761401457754192400,8.7271923828125,0.8082675337791443,-9.312920570373535,-2.7321581840515137
1761401457764273000,8.73727294921875,0.8058733344078064,-9.324816703796387,-2.7405378818511963
1761401457774354700,8.747354736328125,0.8166472315788269,-9.352275848388672,-2.726247549057007
1761401457784435200,8.757435302734375,0.8262988328933716,-9.364171981811523,-2.7240030765533447
1761401457794493200,8.7674931640625,0.8059481382369995,-9.357064247131348,-2.7394156455993652
1761401457804597000,8.777596923828124,0.7808838486671448,-9.347637176513672,-2.745251417160034
1761401457824758800,8.7977587890625,0.7941267490386963,-9.329680442810059,-2.722581386566162
1761401457834839800,8.80783984375,0.7965209484100342,-9.339181900024414,-2.7154736518859863
1761401457844921300,8.81792138671875,0.7881412506103516,-9.348758697509766,-2.722581386566162
1761401457855001600,8.828001708984376,0.8012345433235168,-9.354744911193848,-2.721459150314331
1761401457865059800,8.838059814453125,0.8235305547714233,-9.352350234985352,-2.7345523834228516
1761401457875163100,8.8481630859375,0.8270470499992371,-9.353547096252441,-2.742932081222534
1761401457885244400,8.858244384765625,0.8414122462272644,-9.347487449645996,-2.744129180908203
1761401457895325400,8.868325439453125,0.8151508569717407,-9.34165096282959,-2.7332804203033447
1761401457905383700,8.8783837890625,0.7971943616867065,-9.321375846862793,-2.7439048290252686
1761401457915464000,8.8884638671875,0.770858108997345,-9.323919296264648,-2.75812029838562
1761401457925567700,8.898567626953126,0.7660697102546692,-9.33229923248291,-2.7545289993286133
1761401457935650600,8.908650634765625,0.7709329724311829,-9.331101417541504,-2.736647367477417
1761401457945730600,8.91873046875,0.7987655401229858,-9.328483581542969,-2.726172685623169
1761401457955811600,8.9288115234375,0.8202385306358337,-9.322422981262207,-2.727444648742676
1761401457965891800,8.938891845703125,0.8357260227203369,-9.330727577209473,-2.7394156455993652
1761401457975972600,8.94897265625,0.8404396176338196,-9.353398323059082,-2.7502644062042236
1761401457996106000,8.96910595703125,0.8045265674591064,-9.354669570922852,-2.7859530448913574
1761401458006215200,8.979215087890625,0.7769932746887207,-9.314192771911621,-2.806079149246216
1761401458016268000,8.98926806640625,0.7615057826042175,-9.2748384475708,-2.779668092727661
1761401458026377500,8.99937744140625,0.7372645139694214,-9.295488357543945,-2.729165554046631
1761401458036458800,9.009458740234376,0.7492355108261108,-9.333645820617676,-2.7113585472106934
1761401458046516700,9.019516845703125,0.8005611896514893,-9.37045669555664,-2.716371536254883
1761401458056578800,9.029578857421875,0.8076689839363098,-9.376441955566406,-2.733130931854248
1761401458066702000,9.0397021484375,0.8255506753921509,-9.33925724029541,-2.7678468227386475
1761401458076782800,9.049782958984375,0.8529343605041504,-9.321226119995117,-2.7894694805145264
1761401458086864100,9.059864013671875,0.8554033637046814,-9.324816703796387,-2.7822868824005127
1761401458096943900,9.06994384765625,0.8351274728775024,-9.332074165344238,-2.7678468227386475
1761401458107024600,9.080024658203126,0.829590916633606,-9.34628963470459,-2.7382185459136963
1761401458117106200,9.090106201171874,0.8153005242347717,-9.34157657623291,-2.720187187194824
1761401458127186400,9.1001865234375,0.7962216734886169,-9.342848777770996,-2.7189152240753174
1761401458137269000,9.11026904296875,0.7878419756889343,-9.347711563110352,-2.7212347984313965
1761401458147349200,9.120349365234375,0.8009352684020996,-9.358410835266113,-2.729689121246338
1761401458157430500,9.130430419921876,0.8069207668304443,-9.336862564086914,-2.7392659187316895
1761401458167510300,9.14051025390625,0.8259995579719543,-9.323619842529297,-2.7417349815368652
1761401458177569000,9.150569091796875,0.8379706144332886,-9.30805778503418,-2.7537059783935547
1761401458187672600,9.160672607421875,0.8414870500564575,-9.31157398223877,-2.768071174621582
1761401458197753300,9.17075341796875,0.8378209471702576,-9.318757057189941,-2.7871501445770264
1761401458207834600,9.180834716796875,0.8246528506278992,-9.322347640991211,-2.791938543319702
1761401458217915000,9.190914794921875,0.7995885610580444,-9.303343772888184,-2.803759813308716
1761401458227999500,9.20099951171875,0.8078934550285339,-9.310526847839355,-2.8085482120513916
1761401458238077000,9.211076904296876,0.8102876543998718,-9.327211380004883,-2.797849178314209
1761401458248160800,9.221160888671875,0.8246528506278992,-9.339107513427734,-2.799121141433716
1761401458258239200,9.2312392578125,0.8426093459129333,-9.336638450622559,-2.786027669906616
1761401458268319700,9.24131982421875,0.861314058303833,-9.331924438476562,-2.7859530448913574
1761401458278401000,9.251401123046875,0.8541314601898193,-9.327211380004883,-2.793060779571533
1761401458288481000,9.26148095703125,0.8302642703056335,-9.296236038208008,-2.7917139530181885
1761401458298559700,9.271559814453125,0.8326584696769714,-9.292645454406738,-2.7929110527038574
1761401458308643800,9.281643798828124,0.8063222169876099,-9.309478759765625,-2.7964274883270264
1761401458318724600,9.291724609375,0.8063970804214478,-9.329754829406738,-2.785653591156006
1761401458328805600,9.3018056640625,0.7908347249031067,-9.33342170715332,-2.7736825942993164
1761401458338890800,9.311890869140624,0.7778162956237793,-9.326388359069824,-2.7449522018432617
1761401458348968000,9.321968017578126,0.8197147846221924,-9.342923164367676,-2.732008695602417
1761401458359025700,9.332025634765625,0.8352022767066956,-9.382277488708496,-2.7213094234466553
1761401458379211500,9.35221142578125,0.8352022767066956,-9.351227760314941,-2.7415854930877686
1761401458389269500,9.36226953125,0.8172457814216614,-9.310676574707031,-2.7451019287109375
1761401458399372800,9.372372802734375,0.8076689839363098,-9.291597366333008,-2.7534067630767822
1761401458409453300,9.382453369140626,0.8005611896514893,-9.3119478225708,-2.735450267791748
1761401458419535000,9.39253515625,0.7910591959953308,-9.33349609375,-2.7234792709350586
1761401458429615000,9.402614990234374,0.7841758728027344,-9.333346366882324,-2.7403883934020996
1761401458439692800,9.41269287109375,0.7876923680305481,-9.329680442810059,-2.781014919281006
1761401458449777400,9.42277734375,0.7994388937950134,-9.333196640014648,-2.826429843902588
1761401458459858400,9.4328583984375,0.8472481369972229,-9.334169387817383,-2.837428331375122
1761401458469939200,9.442939208984376,0.8270470499992371,-9.334319114685059,-2.7859530448913574
1761401458479983600,9.452983642578126,0.8188169598579407,-9.327211380004883,-2.747645616531372
1761401458490100700,9.463100830078124,0.8212860226631165,-9.30573844909668,-2.746448516845703
1761401458500181800,9.473181640625,0.829441249370575,-9.311649322509766,-2.7895443439483643
1761401458510263300,9.48326318359375,0.8265981078147888,-9.317708969116211,-2.8156559467315674
1761401458520344000,9.493343994140625,0.842085599899292,-9.318831443786621,-2.825232744216919
1761401458530424800,9.5034248046875,0.8481459617614746,-9.318831443786621,-2.802562713623047
1761401458540506400,9.51350634765625,0.8577975630760193,-9.330727577209473,-2.775179147720337
1761401458550585600,9.523585693359376,0.8458265662193298,-9.3666410446167,-2.771512985229492
1761401458560668000,9.53366796875,0.8898948431015015,-9.355717658996582,-2.809969902038574
1761401458570749000,9.5437490234375,0.8827122449874878,-9.322273254394531,-2.818274736404419
1761401458580856300,9.553856201171875,0.8445546627044678,-9.311649322509766,-2.8157308101654053
1761401458590888000,9.563887939453124,0.8493430614471436,-9.318906784057617,-2.7714381217956543
1761401458600991200,9.5739912109375,0.8266729712486267,-9.322572708129883,-2.7486932277679443
1761401458611068200,9.584068115234375,0.8028057813644409,-9.323919296264648,-2.7294647693634033
1761401458621154000,9.594154052734375,0.8302642703056335,-9.326164245605469,-2.7510874271392822
1761401458631211800,9.604211669921876,0.8277204036712646,-9.30581283569336,-2.7892448902130127
1761401458641315600,9.614315673828125,0.8396914005279541,-9.287857055664062,-2.7881226539611816
1761401458651396900,9.62439697265625,0.8432827591896057,-9.301024436950684,-2.780940055847168
1761401458661477600,9.6344775390625,0.8720131516456604,-9.305663108825684,-2.776301383972168
1761401458671558100,9.64455810546875,0.8463503122329712,-9.317484855651855,-2.7777228355407715
1761401458681638700,9.654638671875,0.8451532125473022,-9.306711196899414,-2.790816068649292
1761401458691720400,9.664720458984375,0.8678233027458191,-9.309030532836914,-2.7921628952026367
1761401458701800400,9.674800537109375,0.8415619134902954,-9.309104919433594,-2.7979986667633057
1761401458711881500,9.684881591796875,0.8391677141189575,-9.318681716918945,-2.792013168334961
1761401458721963300,9.69496337890625,0.8570494055747986,-9.326987266540527,-2.79089093208313
1761401458732044000,9.7050439453125,0.8534581065177917,-9.332972526550293,-2.8016648292541504
1761401458742126000,9.7151259765625,0.8630349040031433,-9.340080261230469,-2.7993454933166504
1761401458752188200,9.725188232421875,0.8720131516456604,-9.329455375671387,-2.8075008392333984
1761401458762286600,9.73528662109375,0.8744073510169983,-9.306785583496094,-2.8134114742279053
1761401458772367000,9.7453671875,0.8636334538459778,-9.27453899383545,-2.816927909851074
1761401458782421000,9.7554208984375,0.8612392544746399,-9.27334213256836,-2.8157308101654053
1761401458792530000,9.765530029296874,0.8589198589324951,-9.292495727539062,-2.8026375770568848
1761401458802610200,9.775610107421874,0.8720131516456604,-9.343820571899414,-2.8086979389190674
1761401458812648000,9.78564794921875,0.8672247529029846,-9.359383583068848,-2.8039095401763916
1761401458822772000,9.79577197265625,0.881589949131012,-9.330653190612793,-2.8051066398620605
1761401458832853500,9.805853515625,0.8734347224235535,-9.299528121948242,-2.8219408988952637
1761401458842934500,9.8159345703125,0.8877999186515808,-9.298255920410156,-2.8291234970092773
1761401458853001700,9.826001708984375,0.8925135135650635,-9.311349868774414,-2.835183620452881
1761401458863096000,9.836095947265624,0.8901193141937256,-9.332897186279297,-2.832789421081543
1761401458873177600,9.846177490234375,0.8973767161369324,-9.332897186279297,-2.8029367923736572
1761401458883235000,9.856235107421876,0.8592191338539124,-9.322273254394531,-2.7836334705352783
1761401458893316600,9.866316650390624,0.8508394360542297,-9.31157398223877,-2.790741443634033
1761401458903397400,9.8763974609375,0.8602666258811951,-9.279252052307129,-2.8277766704559326
1761401458913478700,9.886478759765625,0.8530839681625366,-9.263689994812012,-2.843264102935791
1761401458923581700,9.896581787109374,0.8579472303390503,-9.269675254821777,-2.81939697265625
1761401458933662500,9.906662353515625,0.8711153268814087,-9.294739723205566,-2.8051815032958984
1761401458943743500,9.916743408203125,0.8878747224807739,-9.310227394104004,-2.7968764305114746
1761401458953824800,9.92682470703125,0.8723124265670776,-9.294739723205566,-2.8087728023529053
1761401458963905300,9.9369052734375,0.8771008253097534,-9.293542861938477,-2.812364101409912
1761401458973988900,9.94698876953125,0.8937854170799255,-9.29346752166748,-2.8268039226531982
1761401458984068400,9.957068359375,0.9152584075927734,-9.308880805969238,-2.825681686401367
1761401458994149000,9.967149169921875,0.901940643787384,-9.326911926269531,-2.83750319480896
1761401459004228900,9.977228759765625,0.900818407535553,-9.328108787536621,-2.8184242248535156
1761401459014309000,9.98730908203125,0.9103952050209045,-9.341202735900879,-2.812513589859009
1761401459024392000,9.997391845703126,0.8984990119934082,-9.331700325012207,-2.8004677295684814
1761401459034472400,10.007472412109376,0.8889222145080566,-9.301922798156738,-2.79089093208313
1761401459044554000,10.017553955078125,0.8770260214805603,-9.284040451049805,-2.795529842376709
1761401459054633700,10.0276337890625,0.8697685599327087,-9.285238265991211,-2.8039095401763916
1761401459064715500,10.037715576171875,0.8590695261955261,-9.294815063476562,-2.8062288761138916
1761401459074796800,10.047796875,0.8636334538459778,-9.301997184753418,-2.82171630859375
1761401459084877000,10.057876953125,0.8611644506454468,-9.31157398223877,-2.8312931060791016
1761401459094957800,10.067957763671876,0.8767267465591431,-9.301922798156738,-2.8325650691986084
1761401459105039000,10.0780390625,0.8636334538459778,-9.306785583496094,-2.822913408279419
1761401459115121000,10.088120849609375,0.880392849445343,-9.300800323486328,-2.815880537033081
1761401459125202200,10.0982021484375,0.8791957497596741,-9.299603462219238,-2.8075008392333984
1761401459135282000,10.108281982421875,0.8720879554748535,-9.307982444763184,-2.8026375770568848
1761401459145362700,10.11836279296875,0.8708160519599915,-9.299603462219238,-2.8062288761138916
1761401459155443700,10.128443603515626,0.8567501306533813,-9.290026664733887,-2.820668935775757
1761401459175583700,10.148583740234375,0.9021651148796082,-9.299378395080566,-2.8208184242248535
1761401459185687000,10.15868701171875,0.926032304763794,-9.311200141906738,-2.8185739517211914
1761401459195768000,10.16876806640625,0.9320178031921387,-9.317185401916504,-2.8149826526641846
1761401459205848800,10.178848876953126,0.9188497066497803,-9.327959060668945,-2.8209681510925293
1761401459215906800,10.18890673828125,0.8961796164512634,-9.296984672546387,-2.8232126235961914
1761401459226010400,10.19901025390625,0.884208619594574,-9.286285400390625,-2.832714796066284
1761401459236092700,10.2090927734375,0.8640823364257812,-9.299453735351562,-2.841094493865967
1761401459246149600,10.219149658203126,0.8795698285102844,-9.301773071289062,-2.849548816680908
1761401459256254000,10.22925390625,0.8940098881721497,-9.324368476867676,-2.8185739517211914
1761401459266334000,10.239333984375,0.8988730907440186,-9.330353736877441,-2.7911155223846436
1761401459276415000,10.2494150390625,0.8965536952018738,-9.31965446472168,-2.7899184226989746
1761401459286496000,10.25949609375,0.9144353866577148,-9.293243408203125,-2.800692319869995
1761401459296576800,10.26957666015625,0.8976759910583496,-9.28142261505127,-2.80899715423584
1761401459306658600,10.279658447265625,0.8844330906867981,-9.310077667236328,-2.8232874870300293
1761401459316738600,10.289738525390625,0.8722376227378845,-9.319804191589355,-2.832714796066284
1761401459326819800,10.29981982421875,0.8782231211662292,-9.31381893157959,-2.8267292976379395
1761401459336900900,10.30990087890625,0.8758289217948914,-9.319804191589355,-2.815955400466919
1761401459346982400,10.319982421875,0.8686463236808777,-9.319804191589355,-2.836231231689453
1761401459357069000,10.330069091796876,0.8697685599327087,-9.283966064453125,-2.8458080291748047
1761401459367144000,10.34014404296875,0.8675240278244019,-9.268478393554688,-2.8230631351470947
1761401459377224200,10.35022412109375,0.8794202208518982,-9.268404006958008,-2.8207437992095947
1761401459387305500,10.360305419921875,0.8973767161369324,-9.289801597595215,-2.8256068229675293
1761401459397386500,10.370386474609376,0.9117419123649597,-9.319580078125,-2.8436381816864014
1761401459407468000,10.380468017578124,0.9129390120506287,-9.329156875610352,-2.8389246463775635
1761401459417548300,10.39054833984375,0.9129390120506287,-9.306411743164062,-2.8424410820007324
1761401459427629600,10.400629638671875,0.8986486196517944,-9.301697731018066,-2.8376526832580566
1761401459437710300,10.41071044921875,0.8687211275100708,-9.306635856628418,-2.83750319480896
1761401459447791000,10.420791015625,0.8771756291389465,-9.326911926269531,-2.8196213245391846
1761401459457872100,10.4308720703125,0.8819640278816223,-9.320926666259766,-2.81363582611084
1761401459467949300,10.44094921875,0.8735843300819397,-9.306635856628418,-2.81363582611084
1761401459478038300,10.451038330078125,0.8627356290817261,-9.31389331817627,-2.8063786029815674
1761401459488116000,10.461115966796875,0.865129828453064,-9.31389331817627,-2.7956044673919678
1761401459498176500,10.471176513671875,0.8771756291389465,-9.301922798156738,-2.783708333969116
1761401459508277200,10.48127734375,0.8915408849716187,-9.29346752166748,-2.784980297088623
1761401459518335700,10.491335693359375,0.8914660215377808,-9.286285400390625,-2.79089093208313
1761401459528439000,10.50143896484375,0.8735095262527466,-9.29114818572998,-2.8027870655059814
1761401459538520000,10.51152001953125,0.863932728767395,-9.31149959564209,-2.8027870655059814
1761401459548600800,10.521600830078125,0.8400655388832092,-9.321150779724121,-2.79433274269104
1761401459558689500,10.531689453125,0.8443301916122437,-9.310601234436035,-2.7881226539611816
1761401459568762400,10.541762451171875,0.8753799796104431,-9.323619842529297,-2.802562713623047
1761401459578843400,10.551843505859376,0.9064298272132874,-9.316287994384766,-2.8075008392333984
1761401459588925000,10.561925048828124,0.91712886095047,-9.303119659423828,-2.815880537033081
1761401459599005400,10.57200537109375,0.93388831615448,-9.306635856628418,-2.819546699523926
1761401459609086200,10.582086181640625,0.9255086183547974,-9.289876937866211,-2.8314428329467773
1761401459619168800,10.592168701171875,0.9062801599502563,-9.278055191040039,-2.846855401992798
1761401459629248500,10.60224853515625,0.8812158703804016,-9.2841157913208,-2.849174737930298
1761401459639329300,10.612329345703126,0.8730605840682983,-9.290026664733887,-2.8552350997924805
1761401459649411000,10.6224111328125,0.8563011884689331,-9.31037712097168,-2.8599486351013184
1761401459659491600,10.63249169921875,0.8622866868972778,-9.30918025970459,-2.8623428344726562
1761401459669572600,10.642572509765625,0.8838345408439636,-9.3126220703125,-2.8553099632263184
1761401459679654100,10.652654052734375,0.8946084380149841,-9.300650596618652,-2.8541128635406494
1761401459689712400,10.66271240234375,0.9065794348716736,-9.283890724182129,-2.8470051288604736
1761401459709896200,10.682896240234374,0.9017910361289978,-9.29227066040039,-2.8446109294891357
1761401459719977200,10.692977294921874,0.8778490424156189,-9.290026664733887,-2.824110507965088
1761401459730058500,10.70305859375,0.8634837865829468,-9.28650951385498,-2.828824043273926
1761401459740139300,10.71313916015625,0.8646808862686157,-9.296086311340332,-2.822913408279419
1761401459750220000,10.723219970703125,0.8683470487594604,-9.323545455932617,-2.797849178314209
1761401459760300800,10.73330078125,0.8563759922981262,-9.339181900024414,-2.803759813308716
1761401459770392800,10.743392822265625,0.8718634843826294,-9.335515975952148,-2.822913408279419
1761401459780463000,10.753463134765624,0.8563011884689331,-9.320028305053711,-2.82403564453125
1761401459790544400,10.76354443359375,0.8610147833824158,-9.300874710083008,-2.8598740100860596
1761401459800602000,10.77360205078125,0.8803180456161499,-9.264886856079102,-2.8504467010498047
1761401459810706200,10.7837060546875,0.8696937561035156,-9.27334213256836,-2.8086230754852295
1761401459820786400,10.793786376953125,0.863783061504364,-9.290101051330566,-2.778695583343506
1761401459830868000,10.803867919921874,0.8936358094215393,-9.305513381958008,-2.7740566730499268
1761401459840949000,10.813948974609374,0.9007435441017151,-9.310227394104004,-2.79321026802063
1761401459851029200,10.824029296875,0.8934113383293152,-9.299453735351562,-2.841019630432129
1761401459861110000,10.834110107421875,0.9148843288421631,-9.287407875061035,-2.8685529232025146
1761401459871191800,10.84419189453125,0.9207950234413147,-9.289727210998535,-2.8948891162872314
1761401459881273600,10.854273681640626,0.8883984684944153,-9.294739723205566,-2.8719944953918457
1761401459901432800,10.874432861328126,0.8610895872116089,-9.321226119995117,-2.824110507965088
1761401459911516000,10.884515869140625,0.8479214906692505,-9.322422981262207,-2.820444345474243
1761401459921578000,10.894577880859375,0.8408136963844299,-9.315315246582031,-2.8144588470458984
1761401459931678000,10.904677978515625,0.8491933941841125,-9.30693531036377,-2.806079149246216
1761401459941758500,10.914758544921876,0.8265233039855957,-9.301024436950684,-2.7988216876983643
1761401459951839700,10.92483984375,0.8420107960700989,-9.291447639465332,-2.8096704483032227
1761401459961920300,10.934920166015624,0.8307880163192749,-9.294066429138184,-2.8069770336151123
1761401459972001500,10.94500146484375,0.8366986513137817,-9.310750961303711,-2.8081741333007812
1761401459982082000,10.95508203125,0.8426093459129333,-9.29878044128418,-2.8237364292144775
1761401459992163300,10.965163330078125,0.8640823364257812,-9.27835464477539,-2.8512697219848633
1761401460002243800,10.975243896484375,0.8724620342254639,-9.287857055664062,-2.8489503860473633
1761401460012325000,10.9853251953125,0.886827290058136,-9.316512107849121,-2.8359320163726807
1761401460022366200,10.9953662109375,0.8928875923156738,-9.320103645324707,-2.8120646476745605
1761401460032487000,11.00548681640625,0.8726117014884949,-9.296311378479004,-2.7999441623687744
1761401460042569000,11.01556884765625,0.8573486804962158,-9.275959968566895,-2.801215887069702
1761401460052648400,11.0256484375,0.8346037268638611,-9.289128303527832,-2.815431594848633
1761401460062722300,11.035722412109376,0.8452280163764954,-9.318981170654297,-2.834660053253174
1761401460072771600,11.045771484375,0.8392425179481506,-9.342848777770996,-2.8418426513671875
1761401460082876000,11.0558759765625,0.8536825180053711,-9.309404373168945,-2.8250832557678223
1761401460092950800,11.06595068359375,0.8632593750953674,-9.28067398071289,-2.8191723823547363
1761401460103053300,11.07605322265625,0.8776245713233948,-9.291373252868652,-2.8144588470458984
1761401460113135600,11.086135498046875,0.9038859605789185,-9.31277084350586,-2.817002773284912
1761401460123216400,11.09621630859375,0.9089736342430115,-9.31501579284668,-2.809969902038574
1761401460133273600,11.106273681640625,0.9041104316711426,-9.306711196899414,-2.8278515338897705
1761401460143360800,11.11636083984375,0.9065046310424805,-9.3126220703125,-2.8326399326324463
1761401460153458200,11.126458251953125,0.8908674716949463,-9.336564064025879,-2.840944766998291
1761401460163540000,11.1365400390625,0.8693944811820984,-9.340229988098145,-2.8336873054504395
1761401460173621000,11.14662109375,0.8622118830680847,-9.313968658447266,-2.841992139816284
1761401460183701200,11.156701171875,0.8622118830680847,-9.2841157913208,-2.845583438873291
1761401460193782300,11.1667822265625,0.8671499490737915,-9.251869201660156,-2.8168530464172363
1761401460203863300,11.17686328125,0.8687959313392639,-9.282843589782715,-2.7956044673919678
1761401460213944600,11.186944580078125,0.8783727288246155,-9.307908058166504,-2.7753286361694336
1761401460224025300,11.197025390625,0.8842834234237671,-9.324592590332031,-2.8040590286254883
1761401460234106400,11.2071064453125,0.8877251148223877,-9.31613826751709,-2.838700294494629
1761401460244187000,11.217186767578125,0.903287410736084,-9.316062927246094,-2.8411691188812256
1761401460254268400,11.227268310546876,0.8877999186515808,-9.287482261657715,-2.8267292976379395
1761401460264349400,11.237349365234374,0.8722376227378845,-9.275586128234863,-2.8302457332611084
1761401460274430500,11.247430419921875,0.881739616394043,-9.274313926696777,-2.8517935276031494
1761401460284510500,11.257510498046875,0.87897127866745,-9.304316520690918,-2.8803741931915283
1761401460294592000,11.267592041015625,0.8813654780387878,-9.328184127807617,-2.8708722591400146
1761401460304673000,11.277673095703125,0.897002637386322,-9.321001052856445,-2.83982253074646
1761401460314753800,11.28775390625,0.8839093446731567,-9.326987266540527,-2.8326399326324463
1761401460324834800,11.297834716796874,0.8647557497024536,-9.313968658447266,-2.8324902057647705
1761401460334916000,11.307916015625,0.8803180456161499,-9.31149959564209,-2.840944766998291
1761401460344996600,11.31799658203125,0.8934861421585083,-9.3126220703125,-2.8302457332611084
1761401460355076600,11.32807666015625,0.9030629396438599,-9.323395729064941,-2.819546699523926
1761401460365158700,11.33815869140625,0.8663269281387329,-9.316287994384766,-2.8063786029815674
1761401460375217200,11.348217041015625,0.8495675325393677,-9.31277084350586,-2.8110921382904053
1761401460385339000,11.3583388671875,0.8412626385688782,-9.307982444763184,-2.8050317764282227
1761401460395401200,11.368401123046874,0.8352771401405334,-9.294889450073242,-2.793060779571533
1761401460405460000,11.3784599609375,0.8292916417121887,-9.298480987548828,-2.8097453117370605
1761401460415564000,11.38856396484375,0.8471733331680298,-9.296011924743652,-2.815805673599243
1761401460425644300,11.398644287109375,0.8519617319107056,-9.303194046020508,-2.822988271713257
1761401460435725000,11.40872509765625,0.8638579249382019,-9.294739723205566,-2.8338370323181152
1761401460455908400,11.428908447265625,0.8673743605613708,-9.31149959564209,-2.818274736404419
1761401460465968000,11.438968017578125,0.8710405230522156,-9.293617248535156,-2.8003182411193848
1761401460476049000,11.449048828125,0.8733598589897156,-9.282843589782715,-2.818274736404419
1761401460486130000,11.4591298828125,0.8649053573608398,-9.27685832977295,-2.8516438007354736
1761401460496211200,11.469211181640626,0.8635586500167847,-9.298331260681152,-2.883965492248535
1761401460506292200,11.479292236328124,0.8527846932411194,-9.321076393127441,-2.894664764404297
1761401460516350700,11.489350830078125,0.8479962944984436,-9.335441589355469,-2.8755111694335938
1761401460526455000,11.499455078125,0.8431330919265747,-9.327211380004883,-2.8419175148010254
1761401460536535000,11.50953515625,0.8467243909835815,-9.322422981262207,-2.8395233154296875
1761401460546616600,11.519616455078125,0.8563011884689331,-9.298480987548828,-2.8384008407592773
1761401460556697300,11.529697265625,0.8635586500167847,-9.28299331665039,-2.8121395111083984
1761401460566778000,11.539778076171874,0.880392849445343,-9.27334213256836,-2.777498483657837
1761401460576859600,11.549859619140625,0.8960300087928772,-9.276932716369629,-2.7549030780792236
1761401460586940700,11.559940673828125,0.8899696469306946,-9.293692588806152,-2.7632827758789062
1761401460597000400,11.57000048828125,0.8731354475021362,-9.331924438476562,-2.79665207862854
1761401460607102500,11.5801025390625,0.8593688011169434,-9.359607696533203,-2.8250832557678223
1761401460617183000,11.590182861328126,0.868870735168457,-9.347637176513672,-2.833462953567505
1761401460627264000,11.600263916015624,0.8640823364257812,-9.30581283569336,-2.833388090133667
1761401460637345300,11.61034521484375,0.8462755084037781,-9.27723217010498,-2.80937123298645
1761401460647426600,11.620426513671875,0.8356512188911438,-9.302446365356445,-2.7783215045928955
1761401460657507000,11.630507080078125,0.8487445116043091,-9.322722434997559,-2.7724106311798096
1761401460667587600,11.640587646484375,0.849941611289978,-9.342998504638672,-2.7783963680267334
1761401460677669400,11.65066943359375,0.888099193572998,-9.345168113708496,-2.7929110527038574
1761401460687739000,11.66073876953125,0.9269301295280457,-9.305364608764648,-2.8220155239105225
1761401460697830700,11.67083056640625,0.9222165942192078,-9.270723342895508,-2.8267292976379395
1761401460707911400,11.680911376953125,0.9138368368148804,-9.251644134521484,-2.835034132003784
1761401460717980000,11.69097998046875,0.8993968367576599,-9.27917766571045,-2.8541128635406494
1761401460728074000,11.701073974609375,0.8861538767814636,-9.31381893157959,-2.867280960083008
1761401460738154500,11.711154541015626,0.8706663846969604,-9.341352462768555,-2.8505215644836426
1761401460748237600,11.721237548828125,0.8671499490737915,-9.317559242248535,-2.8384757041931152
1761401460758315800,11.731315673828124,0.8815151453018188,-9.297134399414062,-2.8277766704559326
1761401460768397000,11.74139697265625,0.881739616394043,-9.31269645690918,-2.812364101409912
1761401460778478000,11.75147802734375,0.8984242081642151,-9.317410469055176,-2.8052561283111572
1761401460788559000,11.76155908203125,0.9091981053352356,-9.330503463745117,-2.805330991744995
1761401460798639900,11.771639892578126,0.9068039059638977,-9.325715065002441,-2.8184242248535156
1761401460808722200,11.78172216796875,0.8984990119934082,-9.300650596618652,-2.8016648292541504
1761401460818801400,11.791801513671874,0.8698434233665466,-9.291223526000977,-2.8003182411193848
1761401460828883700,11.8018837890625,0.8470984697341919,-9.305663108825684,-2.7894694805145264
1761401460838941400,11.81194140625,0.8602666258811951,-9.325939178466797,-2.7835588455200195
1761401460849045200,11.822045166015625,0.8633341789245605,-9.327285766601562,-2.7929110527038574
1761401460859126800,11.832126708984376,0.853757381439209,-9.315389633178711,-2.7976245880126953
1761401460869208000,11.8422080078125,0.8632593750953674,-9.296236038208008,-2.8155810832977295
1761401460879288300,11.852288330078125,0.8692448735237122,-9.30813217163086,-2.8144588470458984
1761401460889368000,11.8623681640625,0.8536825180053711,-9.307010650634766,-2.8095955848693848
1761401460899450000,11.8724501953125,0.8609399795532227,-9.291447639465332,-2.7892448902130127
1761401460909531600,11.88253173828125,0.8574234843254089,-9.296311378479004,-2.762983560562134
1761401460919612000,11.89261181640625,0.8670002818107605,-9.30341911315918,-2.7666497230529785
1761401460929693400,11.902693359375,0.8589198589324951,-9.322422981262207,-2.7846810817718506
1761401460939774200,11.912774169921875,0.8612392544746399,-9.325939178466797,-2.8074259757995605
1761401460949854200,11.922854248046875,0.8504653573036194,-9.311649322509766,-2.820519208908081
1761401460959936000,11.93293603515625,0.8552537560462952,-9.302072525024414,-2.818125009536743
1761401460970016800,11.943016845703125,0.8444798588752747,-9.311649322509766,-2.819247245788574
1761401460980099800,11.953099853515624,0.8732102513313293,-9.325864791870117,-2.820594072341919
1761401460990178000,11.963177978515626,0.8696189522743225,-9.317559242248535,-2.824185371398926
1761401461000260000,11.973260009765625,0.8671499490737915,-9.307982444763184,-2.842067003250122
1761401461010303500,11.983303466796874,0.8875006437301636,-9.294739723205566,-2.839747667312622
1761401461020386000,11.993385986328125,0.8898948431015015,-9.297134399414062,-2.837428331375122
1761401461030502400,12.00350244140625,0.8934861421585083,-9.310227394104004,-2.81707763671875
1761401461040583200,12.013583251953126,0.8612392544746399,-9.340304374694824,-2.8050317764282227
1761401461050664400,12.02366455078125,0.861314058303833,-9.331924438476562,-2.8038346767425537
1761401461060745700,12.033745849609375,0.8528595566749573,-9.299677848815918,-2.82171630859375
1761401461070826500,12.043826416015625,0.8265233039855957,-9.28187084197998,-2.8359320163726807
1761401461080872400,12.05387255859375,0.8241291046142578,-9.273490905761719,-2.8358571529388428
1761401461090988300,12.06398828125,0.8277952671051025,-9.311723709106445,-2.8108675479888916
1761401461101058600,12.07405859375,0.841038167476654,-9.322497367858887,-2.782212018966675
1761401461111150600,12.084150634765624,0.8566004633903503,-9.34628963470459,-2.7596168518066406
1761401461121209300,12.094209228515625,0.8482207655906677,-9.334393501281738,-2.7655274868011475
1761401461131311900,12.104311767578125,0.8564508557319641,-9.314043045043945,-2.8121395111083984
1761401461141393000,12.114392822265625,0.8886977434158325,-9.273266792297363,-2.8277766704559326
1761401461151475200,12.12447509765625,0.8839841485023499,-9.264886856079102,-2.824185371398926
1761401461161555200,12.13455517578125,0.8768015503883362,-9.280449867248535,-2.820594072341919
1761401461171615500,12.144615478515625,0.875454843044281,-9.306785583496094,-2.824110507965088
1761401461181717500,12.154717529296875,0.8622118830680847,-9.333122253417969,-2.84678053855896
1761401461191797500,12.164797607421875,0.8646060824394226,-9.34269905090332,-2.840869903564453
1761401461201878500,12.17487841796875,0.8622866868972778,-9.336712837219238,-2.8109424114227295
1761401461211942000,12.18494189453125,0.8803180456161499,-9.325939178466797,-2.777573347091675
1761401461222011600,12.19501171875,0.8827870488166809,-9.336712837219238,-2.769193649291992
1761401461232121900,12.205121826171874,0.8970774412155151,-9.336638450622559,-2.77046537399292
1761401461242203000,12.215202880859374,0.8899696469306946,-9.306785583496094,-2.77046537399292
1761401461252284000,12.225283935546875,0.8708160519599915,-9.300874710083008,-2.775104284286499
1761401461262364700,12.23536474609375,0.8504653573036194,-9.321300506591797,-2.7929859161376953
1761401461272445400,12.245445556640625,0.8444049954414368,-9.337985038757324,-2.8084733486175537
1761401461282520300,12.255520263671874,0.8444798588752747,-9.346364974975586,-2.7893946170806885
1761401461292607200,12.265607177734376,0.8217349052429199,-9.330952644348145,-2.785653591156006
1761401461302688500,12.2756884765625,0.8206126093864441,-9.30469036102295,-2.7676970958709717
1761401461312747300,12.285747314453126,0.8147019743919373,-9.288005828857422,-2.7724854946136475
1761401461322851300,12.295851318359375,0.8337807655334473,-9.285536766052246,-2.7737574577331543
1761401461332931300,12.305931396484375,0.8452280163764954,-9.292869567871094,-2.764030933380127
1761401461343012000,12.31601220703125,0.8655787110328674,-9.29878044128418,-2.7473464012145996
1761401461353089300,12.32608935546875,0.8704419732093811,-9.315464973449707,-2.7175686359405518
1761401461363175000,12.3361748046875,0.8788216710090637,-9.347711563110352,-2.7187657356262207
1761401461373256000,12.346255859375,0.8799439668655396,-9.37277603149414,-2.735525131225586
1761401461383336400,12.35633642578125,0.8702923059463501,-9.350106239318848,-2.7665748596191406
1761401461393417000,12.3664169921875,0.8534581065177917,-9.342923164367676,-2.8035354614257812
1761401461403498200,12.376498291015626,0.8450035452842712,-9.341726303100586,-2.834510326385498
1761401461413580300,12.386580322265624,0.8496423363685608,-9.328184127807617,-2.841019630432129
1761401461423660300,12.396660400390624,0.848520040512085,-9.31149959564209,-2.820668935775757
1761401461433740500,12.406740478515625,0.8450784087181091,-9.305588722229004,-2.769268274307251
1761401461443821800,12.41682177734375,0.8619126081466675,-9.301997184753418,-2.7323079109191895
1761401461453903600,12.426903564453125,0.8703671097755432,-9.298331260681152,-2.721608877182007
1761401461463984400,12.436984375,0.8738836050033569,-9.318681716918945,-2.7323827743530273
1761401461474065700,12.447065673828124,0.8916904926300049,-9.320926666259766,-2.757521867752075
1761401461484167000,12.4571669921875,0.8855553269386292,-9.338808059692383,-2.8029367923736572
1761401461494227200,12.467227294921875,0.8768015503883362,-9.34501838684082,-2.8075008392333984
1761401461504308200,12.47730810546875,0.8599673509597778,-9.324742317199707,-2.8360815048217773
1761401461514367500,12.487367431640624,0.8671499490737915,-9.325864791870117,-2.8349592685699463
1761401461524469800,12.4974697265625,0.8649053573608398,-9.329530715942383,-2.79433274269104
1761401461534551300,12.50755126953125,0.8625859618186951,-9.334319114685059,-2.7667994499206543
1761401461544631300,12.51763134765625,0.8411877751350403,-9.311799049377441,-2.732008695602417
1761401461554713000,12.527713134765625,0.8328829407691956,-9.301024436950684,-2.733205795288086
1761401461564793900,12.5377939453125,0.8279448747634888,-9.30222225189209,-2.7630584239959717
1761401461574875000,12.547875,0.8366238474845886,-9.29765796661377,-2.7997195720672607
1761401461584956400,12.557956298828126,0.8640823364257812,-9.288005828857422,-2.809446096420288
1761401461595037200,12.568037109375,0.8713397979736328,-9.309478759765625,-2.7736079692840576
1761401461605118000,12.578117919921874,0.8761281967163086,-9.344120025634766,-2.760514497756958
1761401461615199700,12.58819970703125,0.8725368976593018,-9.360879898071289,-2.7736825942993164
1761401461625280300,12.5982802734375,0.8760533928871155,-9.330952644348145,-2.8023383617401123
1761401461635360500,12.608360595703125,0.8699930310249329,-9.292719841003418,-2.833313226699829
1761401461645441800,12.61844189453125,0.8794202208518982,-9.297433853149414,-2.854935884475708
1761401461655499800,12.628499755859375,0.8683470487594604,-9.293617248535156,-2.8348844051361084
1761401461665603600,12.638603515625,0.8649053573608398,-9.318757057189941,-2.794257879257202
1761401461675684600,12.6486845703125,0.8757541179656982,-9.334319114685059,-2.7572972774505615
1761401461685764900,12.658764892578125,0.8889970183372498,-9.342623710632324,-2.721534013748169
1761401461695846400,12.668846435546875,0.8567501306533813,-9.333196640014648,-2.7153987884521484
1761401461705927400,12.678927490234376,0.8518868684768677,-9.322422981262207,-2.7643303871154785
1761401461716008400,12.689008544921874,0.8470236659049988,-9.316437721252441,-2.7858781814575195
1761401461726089700,12.69908984375,0.8505401611328125,-9.318831443786621,-2.801365613937378
1761401461736171300,12.709171142578125,0.8568249344825745,-9.304391860961914,-2.797924041748047
1761401461746251000,12.7192509765625,0.8603414297103882,-9.309104919433594,-2.8063037395477295
1761401461756332500,12.72933251953125,0.8580220341682434,-9.31509017944336,-2.7968015670776367
1761401461766413800,12.739413818359376,0.866401731967926,-9.327061653137207,-2.783708333969116
1761401461776494600,12.74949462890625,0.8711901307106018,-9.330653190612793,-2.770540237426758
1761401461786575400,12.759575439453124,0.8521113395690918,-9.315165519714355,-2.7620856761932373
1761401461796682000,12.769681884765625,0.8401403427124023,-9.300874710083008,-2.775179147720337
1761401461806737200,12.779737060546875,0.8209867477416992,-9.30813217163086,-2.778695583343506
1761401461816818700,12.789818603515625,0.805499255657196,-9.301024436950684,-2.782212018966675
1761401461826899200,12.799899169921876,0.8138789534568787,-9.318906784057617,-2.7607390880584717
1761401461836957000,12.80995703125,0.8162731528282166,-9.324892044067383,-2.7607390880584717
1761401461847070500,12.820070556640625,0.8305635452270508,-9.329605102539062,-2.773982048034668
1761401461857141800,12.830141845703125,0.8424597382545471,-9.34621524810791,-2.797924041748047
1761401461867225900,12.840225830078126,0.8520365357398987,-9.34621524810791,-2.7824363708496094
1761401461877304300,12.85030419921875,0.8628852367401123,-9.353322982788086,-2.762160539627075
1761401461887385900,12.8603857421875,0.8616881370544434,-9.334243774414062,-2.7525837421417236
1761401461897466000,12.870466064453124,0.862660825252533,-9.303269386291504,-2.75003981590271
1761401461907524000,12.880524169921875,0.8566752672195435,-9.31045150756836,-2.7560253143310547
1761401461917605400,12.89060546875,0.8411877751350403,-9.328483581542969,-2.7439796924591064
1761401461927709400,12.90070947265625,0.8328080773353577,-9.335665702819824,-2.749965190887451
1761401461937790500,12.91079052734375,0.8292167782783508,-9.33925724029541,-2.7439796924591064
1761401461947871500,12.92087158203125,0.8291419744491577,-9.324966430664062,-2.757072925567627
1761401461957952500,12.930952392578124,0.8386439681053162,-9.320103645324707,-2.77622652053833
1761401461968036000,12.9410361328125,0.8362497687339783,-9.333196640014648,-2.7881975173950195
1761401461978114000,12.951114013671875,0.8590695261955261,-9.341426849365234,-2.7800421714782715
1761401461988197600,12.96119775390625,0.8423848748207092,-9.34037971496582,-2.770390748977661
1761401461998274800,12.97127490234375,0.8508394360542297,-9.339107513427734,-2.745326280593872
1761401462008357000,12.981357177734376,0.8496423363685608,-9.333196640014648,-2.7369465827941895
1761401462018437400,12.991437255859376,0.8556278347969055,-9.325939178466797,-2.750114679336548
1761401462028518000,13.001517822265624,0.8675240278244019,-9.304391860961914,-2.768071174621582
1761401462038617900,13.011617919921875,0.824578046798706,-9.287857055664062,-2.758270025253296
1761401462048680000,13.021679931640625,0.8317606449127197,-9.296236038208008,-2.7391912937164307
1761401462058741000,13.031740966796875,0.8259247541427612,-9.326088905334473,-2.7368717193603516
1761401462068842000,13.041842041015625,0.8306383490562439,-9.373823165893555,-2.751311779022217
1761401462078923800,13.051923828125,0.826897382736206,-9.37980842590332,-2.7835588455200195
1761401462088981200,13.061981201171875,0.8352771401405334,-9.349881172180176,-2.791938543319702
1761401462099062000,13.07206201171875,0.8568249344825745,-9.303194046020508,-2.787224769592285
1761401462109143800,13.082143798828126,0.8484452366828918,-9.296086311340332,-2.7871501445770264
1761401462119224300,13.092224365234374,0.8712649345397949,-9.316287994384766,-2.766948938369751
