time,seconds_elapsed,z,y,x
1761315666727179800,0.3511796875,0.6872031688690186,0.4752391576766968,-1.3096565008163452
1761315666746102500,0.3701025390625,0.2596100866794586,-0.2724378705024719,-1.7086161375045776
1761315666765025500,0.389025634765625,-0.2363978922367096,-1.0085088014602661,-2.122159719467163
1761315666783948500,0.407948486328125,-0.5613686442375183,-1.644477128982544,-2.5827386379241943
1761315666802871300,0.426871337890625,-0.5833591222763062,-1.616989016532898,-2.6792523860931396
1761315666821794300,0.445794189453125,-0.41537612676620483,-1.2131426334381104,-2.254713535308838
1761315666840717300,0.46471728515625,-0.28343313932418823,-1.0030112266540527,-1.5369681119918823
1761315666859640000,0.48364013671875,-0.05375456064939499,-0.9339854717254639,-0.893058717250824
1761315666878563000,0.50256298828125,0.14843589067459106,-0.758672297000885,-0.7580614686012268
1761315666897485800,0.52148583984375,0.15393351018428802,-0.6853706240653992,-1.0317209959030151
1761315666916408800,0.540408935546875,0.1557660549879074,-0.5021164417266846,-1.4050250053405762
1761315666935331800,0.559331787109375,0.05986303091049194,-0.1569877415895462,-1.618210792541504
1761315666954254600,0.578254638671875,-0.03787253051996231,0.14110571146011353,-1.6609700918197632
1761315666973177600,0.597177490234375,-0.047646086663007736,0.3897205591201782,-1.5778948068618774
1761315666992100400,0.616100341796875,0.042759306728839874,0.4960079789161682,-1.3995274305343628
1761315667011023400,0.6350234375,-0.018936265259981155,0.5790832042694092,-1.152668833732605
1761315667029946400,0.6539462890625,-0.16004198789596558,0.916270911693573,-0.9804098606109619
1761315667048869000,0.672869140625,-0.27854636311531067,1.3518813848495483,-0.9773555994033813
1761315667067792100,0.691792236328125,-0.3573456406593323,1.5913335084915161,-1.022558331489563
1761315667086715000,0.71071484375,-0.3805578351020813,1.6976208686828613,-1.0323318243026733
1761315667105638000,0.729637939453125,-0.29565006494522095,1.8882052898406982,-0.9181034564971924
1761315667124560600,0.748560546875,-0.2235700935125351,1.918136715888977,-0.7550072073936462
1761315667143483600,0.767483642578125,-0.2211267054080963,1.692123293876648,-0.7006418108940125
1761315667162406700,0.78640673828125,-0.24189551174640656,1.3096565008163452,-0.6890357136726379
1761315667181329400,0.805329345703125,-0.2736595869064331,0.9907942414283752,-0.7177455425262451
1761315667200252400,0.82425244140625,-0.20585553348064423,0.6621584296226501,-0.7971556782722473
1761315667219175200,0.843175048828125,-0.07757759839296341,0.3811686933040619,-0.9229902029037476
1761315667238098200,0.86209814453125,0.03298575058579445,0.16248537600040436,-0.9920159578323364
1761315667257021000,0.88102099609375,0.12888877093791962,0.06352811306715012,-0.9657495021820068
1761315667275944000,0.89994384765625,0.20035789906978607,-0.028098974376916885,-0.8496885299682617
1761315667294867000,0.918866943359375,0.21379654109477997,-0.20463383197784424,-0.6646018028259277
1761315667313789700,0.937789794921875,0.2357870489358902,-0.14110571146011353,-0.5155550837516785
1761315667332712700,0.956712646484375,0.2644968628883362,-0.037261683493852615,-0.39766156673431396
1761315667351635500,0.975635498046875,0.16248537600040436,0.18630841374397278,-0.34635040163993835
1761315667370558500,0.994558349609375,-0.01710372418165207,0.5277720093727112,-0.3017585575580597
1761315667389481500,1.0134814453125,-0.05864133685827255,0.6652126908302307,-0.25472331047058105
1761315667408404200,1.032404296875,-0.014049487188458443,0.6218425035476685,-0.20646637678146362
1761315667427327200,1.0513271484375,0.03237490355968475,0.5381564497947693,-0.16737215220928192
1761315667446250000,1.07025,0.054365407675504684,0.43736663460731506,-0.1569877415895462
1761315667465173000,1.089173095703125,0.04703523963689804,0.2901524603366852,-0.1435490995645523
1761315667484095700,1.108095703125,0.014049487188458443,0.182643324136734,-0.10873081535100937
1761315667503018800,1.127018798828125,-0.0036650835536420345,0.05741964280605316,-0.028098974376916885
1761315667521941500,1.14594140625,-0.03237490355968475,-0.09956810623407364,0.12094775587320328
1761315667540864500,1.164864501953125,-0.11056335270404816,-0.10811996459960938,0.2339545041322708
1761315667559787500,1.18378759765625,-0.16553960740566254,-0.031153209507465363,0.16431790590286255
1761315667578710300,1.202710205078125,-0.11911521852016449,-0.046424392610788345,-0.0006108472589403391
1761315667597633300,1.22163330078125,-0.037261683493852615,-0.15087927877902985,-0.12216944992542267
1761315667616556000,1.24055615234375,0.03176405653357506,-0.23090025782585144,-0.20646637678146362
1761315667635479000,1.25947900390625,0.036039989441633224,-0.3249707520008087,-0.2730487287044525
1761315667654401800,1.27840185546875,-0.0006108472589403391,-0.3567348122596741,-0.20035789906978607
1761315667673324800,1.29732470703125,-0.04825693368911743,-0.3158080279827118,0.05375456064939499
1761315667692247600,1.31624755859375,-0.04886778071522713,-0.2980934679508209,0.2852656841278076
1761315667711170600,1.335170654296875,-0.014049487188458443,-0.33474430441856384,0.3817795515060425
1761315667730093600,1.354093505859375,-0.023823043331503868,-0.2852656841278076,0.39643988013267517
1761315667749016300,1.373016357421875,-0.011606098152697086,-0.19241689145565033,0.16431790590286255
1761315667767939300,1.391939208984375,0.0787992998957634,-0.418430358171463,-0.19180603325366974
1761315667786862000,1.410862060546875,0.1172826737165451,-0.5809157490730286,-0.20341213047504425
1761315667805785000,1.42978515625,0.0653606578707695,-0.6578825116157532,0.11483928561210632
1761315667824707800,1.448707763671875,-0.0018325417768210173,-0.6084038615226746,0.5112791657447815
1761315667843630800,1.467630859375,-0.00916270911693573,-0.3310792148113251,0.5015056133270264
1761315667862553600,1.4865537109375,0.06963659077882767,-0.16737215220928192,0.31092125177383423
1761315667881476600,1.5054765625,0.1563768982887268,0.0018325417768210173,0.01038440316915512
1761315667900399400,1.5243994140625,0.2113531529903412,0.02993151545524597,-0.14782503247261047
1761315667919322400,1.543322265625,0.22662433981895447,0.06841489672660828,-0.16187451779842377
1761315667938245000,1.5622451171875,0.28282228112220764,-0.05986303091049194,-0.15515519678592682
1761315667957168000,1.581168212890625,0.3274141252040863,-0.19363857805728912,-0.20463383197784424
1761315667976091000,1.6000908203125,0.3133646547794342,-0.10262233763933182,-0.21501824259757996
1761315667995014000,1.619013916015625,0.2852656841278076,0.18753011524677277,-0.2498365342617035
1761315668013937000,1.63793701171875,0.21379654109477997,0.4825693368911743,-0.337798535823822
1761315668032859600,1.656859619140625,0.20219044387340546,0.5332696437835693,-0.33535513281822205
1761315668051782700,1.67578271484375,0.22906772792339325,0.4367557764053345,-0.2626643180847168
1761315668070705400,1.694705322265625,0.30908870697021484,0.183865025639534,-0.20341213047504425
1761315668089628400,1.71362841796875,0.34573954343795776,0.0787992998957634,-0.20219044387340546
1761315668108551200,1.73255126953125,0.4080459773540497,-0.009773556143045425,-0.20524467527866364
1761315668127474200,1.75147412109375,0.38544461131095886,0.08490777015686035,-0.25472331047058105
1761315668146397000,1.77039697265625,0.3555130958557129,0.2217375487089157,-0.24617144465446472
1761315668165320000,1.78931982421875,0.26694026589393616,0.32374903559684753,-0.14110571146011353
1761315668184242700,1.80824267578125,-0.24006296694278717,0.16615045070648193,-0.5442649126052856
1761315668203165700,1.827165771484375,-0.13377554714679718,0.4837910234928131,-0.5711421966552734
1761315668222088400,1.84608837890625,0.09956810623407364,0.3561239540576935,-0.12644538283348083
1761315668241011500,1.865011474609375,0.12461283802986145,0.6529957056045532,-0.023823043331503868
1761315668259934200,1.883934326171875,0.09468132257461548,0.8209787011146545,-0.010995250195264816
1761315668278857200,1.902857177734375,0.1178935244679451,0.7678350210189819,-0.07757759839296341
1761315668297780000,1.921780029296875,0.15087927877902985,0.6786513328552246,-0.05803048983216286
1761315668316703000,1.940702880859375,0.11545012891292572,0.5222744345664978,-0.004886778071522713
1761315668335625700,1.959625732421875,0.13988402485847473,0.20280128717422485,-0.05008947476744652
1761315668354548700,1.978548828125,0.1692046970129013,0.07635590434074402,-0.21990501880645752
1761315668373471500,1.997471435546875,0.10262233763933182,0.0390942245721817,-0.45447036623954773
1761315668392394500,2.01639453125,0.39643988013267517,-0.46302223205566406,-0.763559103012085
1761315668411317200,2.035317138671875,0.8014315962791443,-1.0683718919754028,-1.003622055053711
1761315668430240300,2.054240234375,1.334777593612671,-1.9340187311172485,-2.1056668758392334
1761315668449163000,2.0731630859375,1.2546802759170532,-1.8112385272979736,-2.59067964553833
1761315668468086000,2.0920859375,0.05497625470161438,0.6169557571411133,-1.0928057432174683
1761315668487008800,2.1110087890625,-0.6975875496864319,1.5296379327774048,0.21807247400283813
1761315668505931800,2.129931884765625,-0.12400199472904205,0.5454866290092468,-0.031153209507465363
1761315668524854500,2.1488544921875,0.21440738439559937,0.34512871503829956,-0.015271181240677834
1761315668543777500,2.167777587890625,0.3432961702346802,0.5283828973770142,0.1820324808359146
1761315668562700300,2.1867001953125,0.5173876285552979,0.2223484069108963,-0.036039989441633224
1761315668581623300,2.205623291015625,0.660936713218689,-0.1588202863931656,-0.3139754831790924
1761315668600546000,2.224546142578125,0.5723638534545898,0.1301104724407196,-0.17714570462703705
1761315668619469000,2.243468994140625,0.5418215394020081,0.4862344264984131,-0.09468132257461548
1761315668638391800,2.262391845703125,0.24617144465446472,1.0824213027954102,-0.5717530250549316
1761315668657314800,2.281314697265625,-0.1325538605451584,1.254069447517395,-1.4013599157333374
1761315668676237600,2.300237548828125,-0.4471401870250702,1.321873426437378,-1.6328710317611694
1761315668695160600,2.31916064453125,-0.5430431962013245,1.3372210264205933,-1.1954281330108643
1761315668714083300,2.338083251953125,-0.22967857122421265,0.7207997441291809,-0.9407047629356384
1761315668733006300,2.35700634765625,0.05375456064939499,-0.9443698525428772,-0.07207997888326645
1761315668751929000,2.37592919921875,-0.33535513281822205,-0.726908266544342,0.7287407517433167
1761315668770852000,2.39485205078125,-0.32191649079322815,0.24067382514476776,-0.12827792763710022
1761315668789774800,2.41377490234375,-0.03176405653357506,0.21746163070201874,-1.2070342302322388
1761315668808697900,2.43269775390625,0.32069480419158936,-0.3787252902984619,-1.4630554914474487
1761315668827620600,2.45162060546875,0.17836740612983704,-0.6474980711936951,-1.1031901836395264
1761315668846543600,2.470543701171875,-0.4049917459487915,-1.032942771911621,-0.555260181427002
1761315668865466400,2.48946630859375,-0.9407047629356384,-1.1972606182098389,-0.3640649616718292
1761315668884389400,2.508389404296875,-1.8833184242248535,-1.2058124542236328,-0.33352261781692505
1761315668903312100,2.52731201171875,-2.6151134967803955,-1.381201982498169,-0.4605788290500641
1761315668922235100,2.546235107421875,-2.405592918395996,-1.8149036169052124,-0.3017585575580597
1761315668941158000,2.565157958984375,-1.572397232055664,-3.447087526321411,0.37200596928596497
1761315668960081000,2.584080810546875,-0.8105943202972412,-3.1673192977905273,0.42331716418266296
1761315668979003600,2.603003662109375,-0.8448017835617065,-1.5754514932632446,0.4349232614040375
1761315668997926700,2.6219267578125,-1.7165571451187134,-0.11056335270404816,1.2864443063735962
1761315669016849400,2.640849365234375,-1.9651719331741333,0.9950701594352722,1.4416759014129639
1761315669035772400,2.6597724609375,-1.5326920747756958,0.7214106321334839,1.248571753501892
1761315669054695200,2.678695068359375,-1.0958600044250488,-0.39949411153793335,0.7678350210189819
1761315669073618000,2.697617919921875,-0.938872218132019,-1.3023263216018677,0.19058434665203094
1761315669092541000,2.716541015625,-0.8014315962791443,-0.9834640622138977,0.12766708433628082
1761315669111464000,2.7354638671875,-0.6413896083831787,-0.24433889985084534,0.550373375415802
1761315669130386700,2.75438671875,-0.4575245976448059,-0.32313820719718933,0.896723747253418
1761315669149309400,2.773309326171875,-0.3787252902984619,-0.9077190160751343,0.9962918758392334
1761315669168232400,2.792232421875,-0.2345653474330902,-0.7146912813186646,1.3023263216018677
1761315669187155200,2.8111552734375,-0.12033691257238388,0.033596597611904144,1.4367891550064087
1761315669206078200,2.830078125,-0.06352811306715012,0.5815265774726868,1.3108782768249512
1761315669225001000,2.8490009765625,-0.08735115826129913,0.5497625470161438,0.809983491897583
1761315669243924000,2.867924072265625,-0.1716480851173401,0.9064973592758179,-0.4324798583984375
1761315669262846700,2.8868466796875,-0.47585001587867737,1.7599272727966309,-1.3120999336242676
1761315669281769700,2.905769775390625,-1.1074661016464233,1.9608960151672363,-1.5119233131408691
1761315669300692500,2.9246923828125,-2.1838552951812744,1.1642749309539795,-2.688415050506592
1761315669319615500,2.943615478515625,-3.3847811222076416,-0.897334635257721,-2.240053176879883
1761315669338538200,2.962538330078125,-2.578462600708008,-4.251649856567383,-3.224128246307373
1761315669357461200,2.981461181640625,-0.3939964771270752,-3.2058026790618896,-3.739072322845459
1761315669376384000,3.000384033203125,0.03542914241552353,-0.3054236173629761,-2.665813684463501
1761315669395307000,3.01930712890625,-0.261442631483078,0.5027272701263428,-1.7519862651824951
1761315669414229800,3.038229736328125,-0.5558710098266602,0.7824953198432922,-1.4202961921691895
1761315669433152800,3.05715283203125,-0.7525638341903687,0.6817055344581604,-1.3163758516311646
1761315669452075500,3.076075439453125,-0.8307522535324097,-0.38849884271621704,-1.032942771911621
1761315669470998300,3.094998291015625,-0.6927008032798767,-1.9731130599975586,-0.2095206081867218
1761315669489921300,3.11392138671875,-0.5772506594657898,-2.7855398654937744,0.9144383668899536
1761315669508844000,3.132843994140625,-0.5809157490730286,-1.7318283319473267,1.2968287467956543
1761315669527767000,3.15176708984375,-0.17775654792785645,-0.33352261781692505,1.1416735649108887
1761315669546689800,3.170689697265625,0.12461283802986145,0.2980934679508209,0.6688777208328247
1761315669565612800,3.18961279296875,0.16737215220928192,1.6261518001556396,0.6627692580223083
1761315669584535600,3.20853564453125,0.030542362481355667,2.5912904739379883,0.791047215461731
1761315669603458600,3.22745849609375,-0.007941014133393764,2.4562931060791016,0.6908682584762573
1761315669622381300,3.24638134765625,0.07085828483104706,1.3549355268478394,0.3958290219306946
1761315669641304300,3.26530419921875,0.29442837834358215,-0.007941014133393764,-0.0018325417768210173
1761315669660227000,3.28422705078125,0.5625903010368347,-1.220472812652588,0.208298921585083
1761315669679150000,3.303150146484375,0.6096255779266357,-2.856398105621338,1.6792954206466675
1761315669698072800,3.32207275390625,0.2583884000778198,-3.6010210514068604,2.676809072494507
1761315669716995600,3.34099560546875,-0.12400199472904205,-1.2430741786956787,1.863160490989685
1761315669735918600,3.359918701171875,-0.4337015450000763,1.2717839479446411,0.896723747253418
1761315669754841300,3.37884130859375,-0.9187142848968506,1.0146173238754272,1.2876659631729126
1761315669773764400,3.397764404296875,-1.3072131872177124,-0.8380824327468872,0.8313631415367126
1761315669792687000,3.41668701171875,-1.1349542140960693,-3.331026554107666,-0.21196399629116058
1761315669811610000,3.435610107421875,-1.0488247871398926,-4.604719161987305,0.15393351018428802
1761315669830532900,3.454532958984375,-1.0885298252105713,-1.5540717840194702,-0.6694886088371277
1761315669849455900,3.473455810546875,-0.5112791657447815,0.8796200752258301,-1.4111335277557373
1761315669868378600,3.492378662109375,-0.2779355049133301,-0.037261683493852615,-2.19179630279541
1761315669887301600,3.511301513671875,-0.07696675509214401,-1.0671501159667969,-2.5857927799224854
1761315669906224400,3.530224365234375,0.20219044387340546,-1.138619303703308,-2.4245290756225586
1761315669925147100,3.549147216796875,0.3115321099758148,-0.6829272508621216,-2.0855088233947754
1761315669944070100,3.568070068359375,0.25289076566696167,0.4599680006504059,-1.9535658359527588
1761315669962993000,3.586992919921875,0.01832541823387146,1.4893219470977783,-1.9755563735961914
1761315669981916000,3.605916015625,-0.30969956517219543,2.046414613723755,-1.8973679542541504
1761315670000838700,3.624838623046875,-0.5283828973770142,1.7037293910980225,-1.7037293910980225
1761315670019761700,3.64376171875,-0.5137225389480591,0.04886778071522713,-1.138619303703308
1761315670038684400,3.662684326171875,-0.23090025782585144,-2.5772409439086914,0.3817795515060425
1761315670057607400,3.681607421875,-0.37506023049354553,-3.39516544342041,1.405635952949524
1761315670076530200,3.7005302734375,-0.4593571424484253,-2.5595264434814453,1.2882769107818604
1761315670095453000,3.719452880859375,-0.03542914241552353,-1.7880263328552246,1.0537115335464478
1761315670114376000,3.7383759765625,0.3151971995830536,-0.9089407324790955,0.8020424246788025
1761315670133298700,3.757298583984375,0.23823043704032898,0.6878139972686768,0.4196520745754242
1761315670152221700,3.7762216796875,0.02870982140302658,2.457514762878418,0.21440738439559937
1761315670171144400,3.79514453125,-0.045202698558568954,3.559483289718628,0.16859383881092072
1761315670190067500,3.8140673828125,-0.02870982140302658,3.7024216651916504,0.06841489672660828
1761315670208990200,3.832990234375,0.07757759839296341,3.296208143234253,0.09345962852239609
1761315670227913200,3.851913330078125,0.3927747905254364,2.373828887939453,0.5399889945983887
1761315670246836000,3.8708359375,0.8783983588218689,-0.007941014133393764,2.350616693496704
1761315670265759000,3.889759033203125,0.8270871639251709,-1.1331216096878052,3.5875823497772217
1761315670284681700,3.908681640625,0.16737215220928192,0.07207997888326645,2.981010913848877
1761315670303604500,3.9276044921875,-0.8435800671577454,0.36101073026657104,1.637147068977356
1761315670322527500,3.946527587890625,-0.8014315962791443,0.35978904366493225,1.2155860662460327
1761315670341450200,3.9654501953125,-0.09468132257461548,-0.6560499668121338,0.8362498879432678
1761315670360373200,3.984373291015625,-0.42331716418266296,-3.7714474201202393,0.7721109390258789
1761315670379296000,4.0032958984375,-0.7831062078475952,-1.309045672416687,0.9126058220863342
1761315670398218800,4.02221875,0.1435490995645523,3.701810836791992,-0.9400939345359802
1761315670417141800,4.041141845703125,0.28343313932418823,1.2577345371246338,-1.452060341835022
1761315670436064500,4.060064453125,-0.31825143098831177,-2.607783317565918,-2.1985156536102295
1761315670454987500,4.078987548828125,-0.09468132257461548,-4.170406818389893,-2.5198214054107666
1761315670473910300,4.09791015625,0.28037887811660767,-3.0427064895629883,-2.035419464111328
1761315670492833300,4.116833251953125,0.291374146938324,-0.7452336549758911,-1.882096767425537
1761315670511756000,4.135756103515625,0.16126367449760437,0.8557969927787781,-1.6915124654769897
1761315670530679000,4.154678955078125,-0.13682979345321655,1.7739768028259277,-1.5241402387619019
1761315670549601800,4.173601806640625,-0.3787252902984619,2.2858667373657227,-1.4178528785705566
1761315670568524500,4.192524658203125,-0.5430431962013245,1.9749455451965332,-1.1147962808609009
1761315670587447600,4.211447509765625,-0.5803049206733704,0.735460102558136,-0.4367557764053345
1761315670606370300,4.230370361328125,-0.4367557764053345,-0.869846522808075,0.5589252710342407
1761315670625293300,4.249293212890625,-0.35856732726097107,-1.362265706062317,1.1520578861236572
1761315670644216000,4.268216064453125,-0.27121618390083313,-0.9455915689468384,1.0427162647247314
1761315670663138800,4.287138916015625,0.01954711228609085,-0.679872989654541,0.7837170362472534
1761315670682061800,4.306061767578125,0.20768806338310242,-0.416597843170166,0.32191649079322815
1761315670700984600,4.324984619140625,0.183865025639534,0.4049917459487915,-0.1960819661617279
1761315670719907600,4.343907470703125,0.17653486132621765,1.9132499694824219,-0.2632751762866974
1761315670738830300,4.362830322265625,0.1985253542661667,2.7690470218658447,0.05497625470161438
1761315670757753300,4.38175341796875,0.2363978922367096,2.605340003967285,0.4294256269931793
1761315670776676000,4.400676025390625,0.29626092314720154,1.2577345371246338,0.9022213816642761
1761315670795598800,4.419598876953125,0.36284327507019043,-0.5253286361694336,1.654861569404602
1761315670814521900,4.43852197265625,0.29259583353996277,-1.100746750831604,2.3927650451660156
1761315670833444600,4.457444580078125,0.21807247400283813,-0.0647498071193695,3.2662765979766846
1761315670852367600,4.47636767578125,0.012216945178806782,1.6542507410049438,2.7275092601776123
1761315670871290400,4.495290283203125,-0.24189551174640656,1.3328686952590942,1.1923738718032837
1761315670890213000,4.514213134765625,-0.6688777208328247,-0.7611156702041626,2.5167670249938965
1761315670909136100,4.53313623046875,-0.32008397579193115,-1.119683027267456,1.8698798418045044
1761315670928059000,4.552058837890625,0.5051707029342651,0.38422292470932007,0.25533416867256165
1761315670946982000,4.57098193359375,0.790436327457428,1.5785056352615356,-0.9254335761070251
1761315670965904600,4.589904541015625,-0.055587101727724075,-0.5540384650230408,-0.8857285380363464
1761315670984827400,4.608827392578125,-0.3927747905254364,-3.0262136459350586,-0.8790091872215271
1761315671003750400,4.62775048828125,0.03787253051996231,-2.0329761505126953,-1.5271944999694824
1761315671022673200,4.646673095703125,0.43981003761291504,-0.9364288449287415,-2.2931969165802
1761315671041596200,4.66559619140625,0.4428642690181732,-1.248571753501892,-2.5595264434814453
1761315671060519000,4.684518798828125,0.1178935244679451,-1.6768521070480347,-2.495387315750122
1761315671079441700,4.703441650390625,0.08185353130102158,-1.0640959739685059,-2.2278363704681396
1761315671098364700,4.72236474609375,0.13438639044761658,-0.3799470067024231,-1.9761672019958496
1761315671117287400,4.741287353515625,0.020157959312200546,-0.1710372269153595,-1.9163042306900024
1761315671136210400,4.76021044921875,-0.06047387793660164,-0.026877280324697495,-1.7061727046966553
1761315671155133200,4.77913330078125,-0.08735115826129913,-0.2620534598827362,-1.273005723953247
1761315671174056000,4.798055908203125,0.03237490355968475,-0.9614735841751099,-0.3775036036968231
1761315671192979000,4.81697900390625,0.17775654792785645,-1.5192534923553467,0.9284878373146057
1761315671211901700,4.835901611328125,-0.09834641218185425,-1.0671501159667969,1.6481422185897827
1761315671230824700,4.85482470703125,-0.15454435348510742,-0.12888877093791962,1.8045191764831543
1761315671249747500,4.87374755859375,0.11300674080848694,0.5442649126052856,1.6744086742401123
1761315671268670200,4.892670166015625,0.3249707520008087,1.1862653493881226,0.6945333480834961
1761315671287593200,4.91159326171875,0.4062134325504303,2.3744397163391113,-0.5399889945983887
1761315671306516000,4.930515869140625,0.29442837834358215,3.2839913368225098,-0.8857285380363464
1761315671325439000,4.94943896484375,0.12766708433628082,3.4330379962921143,-0.6328377723693848
1761315671344361700,4.96836181640625,0.1569877415895462,2.4990525245666504,0.04092676565051079
1761315671363284500,4.987284423828125,0.45202696323394775,0.8551861643791199,0.70797199010849
1761315671382207500,5.00620751953125,0.6029062271118164,-1.0195040702819824,1.4459518194198608
1761315671401130200,5.025130126953125,0.6096255779266357,-2.8667824268341064,2.654818534851074
1761315671420053200,5.04405322265625,0.2229592502117157,-3.663938283920288,3.8905625343322754
1761315671438976000,5.06297607421875,-0.605960488319397,-0.7678350210189819,2.425139904022217
1761315671457898800,5.081898681640625,-1.0286667346954346,0.5485408306121826,1.566288709640503
1761315671476821800,5.10082177734375,-0.9443698525428772,-0.5961869359016418,2.014650583267212
1761315671495744500,5.11974462890625,0.4422534108161926,-0.16676130890846252,0.6053496599197388
1761315671514667500,5.13866748046875,0.09040539711713791,-0.5387672781944275,0.469741553068161
1761315671533590300,5.15759033203125,0.10323318839073181,-0.6872031688690186,0.8130376935005188
1761315671552513000,5.176512939453125,-0.21623992919921875,1.155722975730896,-0.05131116881966591
1761315671571436000,5.19543603515625,0.2504473626613617,2.2883102893829346,-0.8619054555892944
1761315671590358800,5.21435888671875,-0.18814095854759216,-0.365286648273468,-1.4764941930770874
1761315671609281500,5.233281494140625,-0.390942245721817,-2.350005865097046,-2.133765935897827
1761315671628204500,5.25220458984375,-0.13499724864959717,-2.7513325214385986,-2.390932559967041
1761315671647127300,5.271127197265625,0.14110571146011353,-1.8704906702041626,-2.6474883556365967
1761315671666050000,5.290050048828125,0.1820324808359146,-0.6878139972686768,-2.7537758350372314
1761315671684973000,5.30897314453125,0.24189551174640656,0.3970507085323334,-2.483781337738037
1761315671703895800,5.327895751953125,0.25472331047058105,1.0048437118530273,-2.11666202545166
1761315671722818800,5.34681884765625,0.16248537600040436,1.0488247871398926,-1.8765991926193237
1761315671741741600,5.365741455078125,0.0525328628718853,0.41537612676620483,-1.5119233131408691
1761315671760664300,5.384664306640625,-0.02076880633831024,-1.5223077535629272,-0.291374146938324
1761315671779587300,5.40358740234375,-0.5986303091049194,-2.7311744689941406,1.323706030845642
1761315671798510000,5.422510009765625,-1.0628741979599,-1.909584879875183,2.0128180980682373
1761315671817433000,5.44143310546875,-0.5125008225440979,-1.2290246486663818,2.084287166595459
1761315671836355800,5.46035595703125,0.21379654109477997,-0.6065713167190552,1.2840009927749634
1761315671855278600,5.479278564453125,0.7134696245193481,0.6981984376907349,-0.23334364593029022
1761315671874201600,5.49820166015625,0.7837170362472534,2.0073204040527344,-1.298661231994629
1761315671893124400,5.517124267578125,0.522885262966156,3.5674242973327637,-1.2717839479446411
1761315671912047000,5.536047119140625,0.11117420345544815,4.2217183113098145,-0.6022953987121582
1761315671959354400,5.583354248046875,0.24006296694278717,0.7702783942222595,0.17348061501979828
1761315671978277000,5.602277099609375,0.29565006494522095,0.05070032179355621,0.3524588644504547
1761315671997200100,5.6212001953125,0.3029802441596985,-0.2901524603366852,0.6303943991661072
1761315672016123000,5.640122802734375,-0.024433890357613564,-3.623011350631714,3.2222957611083984
1761315672035045600,5.659045654296875,-1.1361758708953857,-5.380495548248291,6.010889530181885
1761315672053968400,5.677968505859375,-1.7971889972686768,-1.858884572982788,4.263255596160889
1761315672072891400,5.696891357421875,-1.1795459985733032,-0.22906772792339325,1.207645058631897
1761315672091814100,5.715814208984375,0.2877090573310852,2.4941656589508057,1.8900377750396729
1761315672110737200,5.734737060546875,1.3989166021347046,4.587615489959717,0.6181774139404297
1761315672129660000,5.753659912109375,0.707361102104187,1.9993793964385986,0.5216635465621948
1761315672148582700,5.772582763671875,0.28404396772384644,0.2608317732810974,0.18630841374397278
1761315672167505700,5.791505615234375,-0.46302223205566406,-2.2125651836395264,0.12094775587320328
1761315672186428400,5.810428466796875,-0.15087927877902985,-1.2882769107818604,-0.7409577369689941
1761315672205351200,5.82935107421875,0.09040539711713791,-0.9779664874076843,-1.7611490488052368
1761315672224274200,5.848274169921875,0.26632940769195557,-1.2656755447387695,-2.318852663040161
1761315672243197000,5.867197021484375,0.27976804971694946,-1.4948196411132812,-2.5741868019104004
1761315672262119700,5.88611962890625,0.3408527672290802,-1.5742297172546387,-2.7256767749786377
1761315672281042700,5.905042724609375,0.42453885078430176,-1.3781477212905884,-2.671922206878662
1761315672299965400,5.92396533203125,0.49234288930892944,-0.5656445622444153,-2.393986701965332
1761315672318888200,5.94288818359375,0.3970507085323334,0.2101314514875412,-2.228447198867798
1761315672337811200,5.961811279296875,0.17775654792785645,0.577861487865448,-2.130711555480957
1761315672356734000,5.98073388671875,-0.06658235192298889,0.367730051279068,-1.7886371612548828
1761315672375656700,5.99965673828125,-0.28221142292022705,-0.6920899152755737,-1.0072871446609497
1761315672394579700,6.018579833984375,-0.6413896083831787,-1.683571457862854,0.37567105889320374
1761315672413502500,6.03750244140625,-0.888171911239624,-1.2094775438308716,1.3378318548202515
1761315672432425200,6.05642529296875,-0.522885262966156,-0.3970507085323334,1.5748405456542969
1761315672451348200,6.07534814453125,0.023823043331503868,0.3139754831790924,1.4801592826843262
1761315672470271000,6.09427099609375,0.29626092314720154,0.8826742768287659,1.147171139717102
1761315672489193700,6.11319384765625,0.314586341381073,2.179579257965088,0.2895416021347046
1761315672508116700,6.13211669921875,0.2113531529903412,3.762284517288208,-0.5858024954795837
1761315672527039500,6.15103955078125,0.13805148005485535,4.892428398132324,-0.5705313682556152
1761315672545962200,6.169962158203125,0.16248537600040436,4.957178115844727,-0.2217375487089157
1761315672564885200,6.18888525390625,0.24678228795528412,2.900379180908203,0.09284878522157669
1761315672583808000,6.20780810546875,0.4312581717967987,0.3817795515060425,0.2339545041322708
1761315672602730800,6.226730712890625,0.3255815804004669,-1.0072871446609497,0.5796940326690674
1761315672621653800,6.24565380859375,0.24006296694278717,-3.3762290477752686,2.7562191486358643
1761315672640576500,6.264576416015625,-0.1172826737165451,-3.600409984588623,4.6529765129089355
1761315672659499300,6.283499267578125,-0.5442649126052856,-0.33230090141296387,3.9663076400756836
1761315672678422300,6.30242236328125,-0.9694145917892456,-0.9413156509399414,2.5399792194366455
1761315672697345000,6.321344970703125,-1.382423758506775,-3.406160593032837,1.4007490873336792
1761315672716267800,6.340267822265625,0.15087927877902985,0.19424942135810852,0.9052756428718567
1761315672735190800,6.359190673828125,0.2730487287044525,1.1422843933105469,0.8680139780044556
1761315672754113500,6.378113525390625,0.4819584786891937,0.3536805510520935,0.2107423096895218
1761315672773036300,6.397036376953125,-0.042759306728839874,0.14171656966209412,0.6004628539085388
1761315672791959300,6.415959228515625,-0.006108472589403391,0.873511552810669,-0.5943543910980225
1761315672810882000,6.434882080078125,0.2883199155330658,0.12155860662460327,-1.2510151863098145
1761315672829804800,6.4538046875,0.3549022674560547,-1.766035795211792,-1.8026865720748901
1761315672848727800,6.472727783203125,0.4721849262714386,-2.408647060394287,-2.364665985107422
1761315672867650600,6.491650634765625,0.7128587365150452,-2.0024337768554688,-2.7336177825927734
1761315672886573300,6.5105732421875,0.7385143637657166,-1.281557559967041,-2.9303107261657715
1761315672905496300,6.529496337890625,0.6896465420722961,-0.7110261917114258,-2.8472354412078857
1761315672924419000,6.548419189453125,0.5790832042694092,-0.031153209507465363,-2.53509259223938
1761315672943341800,6.567341796875,0.5033381581306458,0.42392799258232117,-2.260822057723999
1761315672962264600,6.5862646484375,0.3939964771270752,0.4734066128730774,-2.150869607925415
1761315672981187600,6.6051875,0.21318569779396057,-0.28343313932418823,-1.9022547006607056
1761315673000110300,6.6241103515625,-0.04886778071522713,-1.8741557598114014,-1.226581335067749
1761315673019033300,6.643033447265625,-0.5607577562332153,-3.1587674617767334,-0.13438639044761658
1761315673037956000,6.6619560546875,-1.0250016450881958,-2.7568299770355225,0.8826742768287659
1761315673056878800,6.68087890625,-1.035386085510254,-1.3903647661209106,1.667689323425293
1761315673075801900,6.6998017578125,-0.5033381581306458,0.10078980028629303,1.723887324333191
1761315673094724600,6.718724609375,-0.02076880633831024,1.364098310470581,1.3512704372406006
1761315673113647400,6.7376474609375,0.08246438205242157,2.5283732414245605,0.9559759497642517
1761315673132570000,6.756570068359375,0.024433890357613564,3.86307430267334,0.4960079789161682
1761315673151493000,6.7754931640625,-0.020157959312200546,4.717726230621338,0.14721418917179108
1761315673170415900,6.794415771484375,-0.11117420345544815,4.970005989074707,0.20035789906978607
1761315673189338600,6.813338623046875,-0.0794101431965828,4.41657829284668,0.4599680006504059
1761315673208261600,6.83226171875,0.022601349279284477,1.8185685873031616,1.4923762083053589
1761315673227184400,6.851184326171875,-0.2773246467113495,-1.5846141576766968,2.6621487140655518
1761315673246107100,6.870107177734375,-0.9107732772827148,-2.4208641052246094,2.8344075679779053
1761315673265030100,6.889030029296875,-0.6902574300765991,-1.7220547199249268,2.908931016921997
1761315673283953000,6.907952880859375,0.12278030067682266,-1.2369656562805176,2.744002342224121
1761315673302875600,6.926875732421875,0.8411366939544678,-1.4294589757919312,1.4062467813491821
1761315673321798700,6.945798583984375,0.12278030067682266,-0.05497625470161438,0.46302223205566406
1761315673340721400,6.964721435546875,-0.6420004963874817,0.1569877415895462,0.8722898960113525
1761315673359644200,6.98364404296875,-0.2235700935125351,-1.3072131872177124,0.29626092314720154
1761315673378567200,7.002567138671875,-0.4844018816947937,-1.4172420501708984,-0.14171656966209412
1761315673397490000,7.021489990234375,0.04153761267662048,1.756262183189392,-0.4049917459487915
1761315673416412700,7.04041259765625,0.6316160559654236,2.474618673324585,-1.465498924255371
1761315673435335400,7.05933544921875,0.577861487865448,0.6389462351799011,-1.936462163925171
1761315673454258400,7.078258544921875,0.4813476502895355,-1.572397232055664,-2.3921542167663574
1761315673473181200,7.09718115234375,0.35917818546295166,-2.7708795070648193,-2.403149366378784
1761315673492104000,7.11610400390625,0.3671191930770874,-2.6242761611938477,-2.084287166595459
1761315673511027000,7.13502685546875,0.4056025743484497,-1.2601778507232666,-1.8778208494186401
1761315673529949700,7.15394970703125,0.4752391576766968,0.0659715011715889,-1.6389795541763306
1761315673548872400,7.17287255859375,0.42881476879119873,0.7886037826538086,-1.4166311025619507
1761315673567795500,7.19179541015625,0.3561239540576935,1.2717839479446411,-1.1862653493881226
1761315673586718200,7.21071826171875,0.1850867122411728,1.2491827011108398,-0.9981244206428528
1761315673605641000,7.229640869140625,-0.017714571207761765,0.4172086715698242,-0.6450546979904175
1761315673624564000,7.24856396484375,-0.16553960740566254,-0.7598940134048462,-0.0922379344701767
1761315673643486700,7.26748681640625,-0.3151971995830536,-1.4013599157333374,0.3793361485004425
1761315673662409500,7.286409423828125,-0.4049917459487915,-1.593776822090149,0.7421793937683105
1761315673681332500,7.30533251953125,-0.288930743932724,-1.5791164636611938,1.0005677938461304
1761315673700255200,7.324255126953125,-0.08918370306491852,-1.1502254009246826,1.161220669746399
1761315673719178000,7.343177978515625,0.05131116881966591,0.2486148327589035,1.0384403467178345
1761315673738100700,7.362100830078125,0.17286977171897888,2.087341547012329,0.4813476502895355
1761315673757023700,7.381023681640625,0.21318569779396057,3.0194942951202393,-0.11117420345544815
1761315673775946500,7.399946533203125,0.11545012891292572,3.4660236835479736,-0.3298575282096863
1761315673794869200,7.418869140625,0.023823043331503868,3.466634511947632,-0.13866232335567474
1761315673813792300,7.437792236328125,0.10262233763933182,2.8637282848358154,0.26632940769195557
1761315673832715000,7.456715087890625,0.13499724864959717,0.7183563709259033,1.5907225608825684
1761315673851637800,7.4756376953125,-0.1948602795600891,-3.0060558319091797,4.582118034362793
1761315673870560800,7.494560791015625,-0.6774296164512634,-1.2559019327163696,3.4593043327331543
1761315673889483500,7.5134833984375,-0.4947862923145294,-0.6432221531867981,1.438010811805725
1761315673908406300,7.53240625,-0.4984513521194458,-2.5870144367218018,2.5595264434814453
1761315673927329300,7.551329345703125,-0.237008735537529,-0.258999228477478,1.3750935792922974
1761315673946252000,7.570251953125,0.04825693368911743,1.0066763162612915,0.2113531529903412
1761315673965174800,7.5891748046875,0.3133646547794342,1.1190721988677979,-0.45508119463920593
1761315673984097800,7.608097900390625,0.023212196305394173,0.1557660549879074,-0.5601469278335571
1761315674003020500,7.6270205078125,0.1979145109653473,-0.5595360994338989,-0.5955760478973389
1761315674021943300,7.645943359375,0.4587462842464447,-0.2217375487089157,-1.4215179681777954
1761315674040866300,7.6648662109375,0.45508119463920593,-0.7140804529190063,-1.9297428131103516
1761315674059789000,7.6837890625,0.5528167486190796,-1.9523441791534424,-2.379937171936035
1761315674078711800,7.7027119140625,0.6713211536407471,-2.665813684463501,-2.5601372718811035
1761315674097634800,7.721634765625,0.6963658928871155,-2.4733970165252686,-2.463012456893921
1761315674116557600,7.7405576171875,0.5760289430618286,-1.404414176940918,-2.142317771911621
1761315674135480300,7.759480224609375,0.4837910234928131,-0.12644538283348083,-1.9431815147399902
1761315674154403000,7.778403076171875,0.38788801431655884,0.7049177289009094,-1.7751984596252441
1761315674173326000,7.797326171875,0.2718270421028137,1.3102673292160034,-1.521696925163269
1761315674192248800,7.816248779296875,0.09712471067905426,1.4716074466705322,-1.3384426832199097
1761315674211171600,7.835171630859375,-0.03237490355968475,1.0042328834533691,-1.0677610635757446
1761315674230094600,7.854094482421875,0.021379653364419937,-0.4477510452270508,-0.025655584409832954
1761315674249017300,7.873017333984375,-0.08979454636573792,-1.474050760269165,0.9645278453826904
1761315674267940000,7.891940185546875,-0.3310792148113251,-1.49848473072052,1.2406307458877563
1761315674286863000,7.910863037109375,-0.288930743932724,-1.1532796621322632,1.0983033180236816
1761315674305785900,7.929785888671875,-0.07207997888326645,-0.70797199010849,0.7580614686012268
1761315674324708600,7.94870849609375,0.05986303091049194,0.09284878522157669,0.22845686972141266
1761315674343631600,7.967631591796875,0.09407047927379608,1.290109395980835,-0.2644968628883362
1761315674362554400,7.986554443359375,0.08246438205242157,2.3426756858825684,-0.4043808877468109
1761315674381477000,8.00547705078125,-0.03237490355968475,2.8728909492492676,-0.1447708010673523
1761315674400400100,8.024400146484375,-0.08735115826129913,2.792870044708252,0.17409147322177887
1761315674419323000,8.043322998046875,0.012827792204916477,1.9718912839889526,0.5906893014907837
1761315674438245600,8.06224560546875,0.17225892841815948,-1.332257866859436,2.9254238605499268
1761315674457168600,8.081168701171874,-0.31886225938796997,-3.441589832305908,5.7005791664123535
1761315674476091400,8.10009130859375,-0.8588512539863586,-0.3017585575580597,4.472776412963867
1761315674495014100,8.11901416015625,-0.6261184215545654,2.390932559967041,0.042759306728839874
1761315674513937200,8.137937255859375,-0.5986303091049194,2.8472354412078857,-0.23945212364196777
1761315674532860000,8.15685986328125,-1.8985896110534668,-0.11117420345544815,4.908310413360596
1761315674551782700,8.17578271484375,-1.175881028175354,-3.0427064895629883,2.5607481002807617
1761315674570705700,8.19470556640625,0,-0.6114581227302551,1.4441193342208862
1761315674589628400,8.21362841796875,0.4220954477787018,2.6383256912231445,-0.6859814524650574
1761315674608551200,8.23255126953125,0.3567348122596741,2.8002002239227295,-1.9755563735961914
1761315674627474200,8.25147412109375,0.5448757410049438,0.7043069005012512,-1.6945666074752808
1761315674646397000,8.27039697265625,0.4984513521194458,-2.1093318462371826,-1.3230952024459839
1761315674665319700,8.289319580078125,0.7452336549758911,-2.1643083095550537,-1.8014649152755737
1761315674684242700,8.30824267578125,1.1532796621322632,-1.530248761177063,-2.0830655097961426
1761315674703165400,8.32716552734375,1.0708152055740356,-1.7037293910980225,-2.321906805038452
1761315674722088200,8.346088134765624,0.8441908955574036,-2.098947525024414,-2.4208641052246094
1761315674741011200,8.36501123046875,0.5430431962013245,-2.455071449279785,-2.1142187118530273
1761315674759934000,8.383933837890625,0.17714570462703705,-1.6200432777404785,-1.5235294103622437
1761315674778856700,8.402856689453126,0.05131116881966591,-0.21501824259757996,-1.446562647819519
1761315674797779700,8.42177978515625,0.018936265259981155,1.1117420196533203,-1.3531030416488647
1761315674816702500,8.440702392578125,-0.010995250195264816,1.7544296979904175,-1.1215155124664307
1761315674835625200,8.459625244140625,0.07757759839296341,1.8564411401748657,-0.7207997441291809
1761315674854548200,8.47854833984375,0.25716668367385864,1.7049510478973389,-0.2980934679508209
1761315674873471000,8.497470947265626,0.37139514088630676,1.3573789596557617,0.12705622613430023
1761315674892393700,8.516393798828124,0.5619794726371765,0.6743753552436829,0.7006418108940125
1761315674911316700,8.535316650390625,0.6804838180541992,-0.3035911023616791,1.2559019327163696
1761315674930239500,8.554239501953125,0.5106683373451233,-0.4569137394428253,1.1795459985733032
1761315674949162200,8.573162353515626,0.13621893525123596,0.5937435626983643,0.4709632396697998
1761315674968085200,8.592085205078124,-0.17348061501979828,1.74709951877594,0.04214845970273018
1761315674987008000,8.611008056640625,-0.18019993603229523,2.426361560821533,-0.03237490355968475
1761315675005930800,8.6299306640625,-0.13377554714679718,2.3341238498687744,0.07024743407964706
1761315675024853800,8.648853759765625,-0.05925218388438225,1.6383687257766724,0.4080459773540497
1761315675043776500,8.667776611328126,0.17714570462703705,0.14049486815929413,1.678073763847351
1761315675062699300,8.68669921875,0.04886778071522713,-1.381201982498169,3.299262285232544
1761315675081622300,8.705622314453125,-0.22967857122421265,-0.7220214605331421,3.7580087184906006
1761315675100545000,8.724544921875,-0.2376195788383484,1.4416759014129639,2.359168529510498
1761315675119467800,8.7434677734375,-0.20157960057258606,2.3237392902374268,0.8032641410827637
1761315675138390800,8.762390869140624,-0.6468872427940369,0.051922015845775604,1.273005723953247
1761315675157313500,8.7813134765625,-2.2455508708953857,-4.0891642570495605,2.2650980949401855
1761315675176236300,8.800236328125,-1.0677610635757446,-1.032942771911621,1.7739768028259277
1761315675195159300,8.8191591796875,0.7806627750396729,-0.2730487287044525,0.05619794875383377
1761315675214082000,8.83808203125,0.6303943991661072,-1.0451596975326538,-0.11911521852016449
1761315675233004800,8.8570048828125,0.03420744836330414,-1.6829605102539062,-0.8020424246788025
1761315675251927800,8.875927734375,0.27060532569885254,-0.9633061289787292,-1.5693429708480835
1761315675270850600,8.8948505859375,0.3573456406593323,-0.49417543411254883,-2.2876992225646973
1761315675289773300,8.913773193359376,0.3426853120326996,-0.8441908955574036,-2.5833494663238525
1761315675308696300,8.9326962890625,0.32069480419158936,-1.0176715850830078,-2.8612849712371826
1761315675327619000,8.951619140625,0.5198310017585754,-0.9107732772827148,-3.0030014514923096
1761315675346541800,8.970541748046875,0.6035171151161194,-0.21746163070201874,-2.8496787548065186
1761315675365464800,8.98946484375,0.5405998229980469,0.4190412163734436,-2.514934539794922
1761315675384387600,9.0083876953125,0.35978904366493225,0.29442837834358215,-2.163086414337158
1761315675403310300,9.027310302734374,0.17225892841815948,0.05741964280605316,-1.733049988746643
1761315675422233300,9.0462333984375,0.051922015845775604,-0.4752391576766968,-1.1636639833450317
1761315675441156000,9.065156005859375,0.03298575058579445,-1.3781477212905884,-0.005497625097632408
1761315675460078800,9.084078857421876,-0.08612946420907974,-1.9480682611465454,1.243685007095337
1761315675479001900,9.103001953125,-0.49112120270729065,-2.171027421951294,2.1117753982543945
1761315675497924600,9.121924560546875,-0.49356457591056824,-1.668911099433899,2.078789472579956
1761315675516847400,9.140847412109375,-0.0647498071193695,-0.13560809195041656,1.1868761777877808
1761315675535770400,9.159770263671875,0.3506263196468353,2.6377148628234863,-0.05008947476744652
1761315675554693000,9.178693115234376,0.33169007301330566,4.795914649963379,-0.9242119193077087
1761315675573615900,9.197615966796874,-0.029320668429136276,5.299863338470459,-1.115407109260559
1761315675592539000,9.216538818359375,-0.34757208824157715,5.098283767700195,-0.5986303091049194
1761315675611461600,9.235461669921875,-0.16676130890846252,3.596745014190674,0.2644968628883362
1761315675630384400,9.25438427734375,0.3164188861846924,1.2907202243804932,0.684148907661438
1761315675649307400,9.273307373046874,0.39766156673431396,0.08429691940546036,0.8747332692146301
1761315675668230100,9.292230224609375,0.22540263831615448,-0.582748293876648,1.1587772369384766
1761315675687153000,9.31115283203125,0.37200596928596497,-2.393986701965332,3.600409984588623
1761315675706076000,9.330075927734375,-0.3823903799057007,-1.6805171966552734,4.999937534332275
1761315675724998700,9.34899853515625,-1.2216944694519043,0.04825693368911743,2.6377148628234863
1761315675743921400,9.36792138671875,-0.8625163435935974,-0.8008207678794861,0.5485408306121826
1761315675762844400,9.386844482421875,0.1973036676645279,-0.6316160559654236,1.086086392402649
1761315675781767200,9.40576708984375,0.624285876750946,1.9731130599975586,0.6499415040016174
1761315675800690000,9.42468994140625,0.4172086715698242,0.9022213816642761,0.3658975064754486
1761315675819613000,9.443613037109374,-0.40254834294319153,-0.45324867963790894,0.790436327457428
1761315675838535700,9.46253564453125,-0.6438329815864563,0.3243598937988281,-0.34451785683631897
1761315675857458400,9.48145849609375,-0.09529217332601547,-0.13744063675403595,-0.7824953198432922
1761315675876381400,9.50038134765625,-0.0018325417768210173,-2.581516981124878,-1.3995274305343628
1761315675895304200,9.51930419921875,-0.1588202863931656,-3.191753387451172,-1.991438388824463
1761315675914227000,9.53822705078125,0.08857285231351852,-2.3781046867370605,-2.3438973426818848
1761315675933150000,9.55714990234375,0.3927747905254364,-1.2968287467956543,-2.659705400466919
1761315675952072700,9.57607275390625,0.4355340898036957,-0.22540263831615448,-2.6413798332214355
1761315675970995500,9.594995361328126,0.43981003761291504,0.7379034757614136,-2.087341547012329
1761315675989918500,9.61391845703125,0.29442837834358215,1.081810474395752,-1.6872364282608032
1761315676008841200,9.63284130859375,0.07269082218408585,1.0708152055740356,-1.49848473072052
1761315676027764000,9.651763916015625,-0.06169557198882103,0.7733326554298401,-1.3512704372406006
1761315676046687000,9.67068701171875,-0.12644538283348083,-0.03420744836330414,-1.0366077423095703
1761315676065609700,9.689609619140626,-0.13316470384597778,-0.893058717250824,-0.4703523814678192
1761315676084532500,9.708532470703124,-0.03237490355968475,-1.3524922132492065,0.12339114397764206
1761315676103455500,9.72745556640625,0.18019993603229523,-1.3500487804412842,0.546097457408905
1761315676122378200,9.746378173828125,0.3530697226524353,-1.243685007095337,0.873511552810669
1761315676141301000,9.765301025390626,0.522885262966156,-1.2125318050384521,1.3469945192337036
1761315676160223700,9.7842236328125,0.5399889945983887,-0.763559103012085,1.7825286388397217
1761315676179146800,9.803146728515625,0.367730051279068,1.2045907974243164,1.2620104551315308
1761315676198069500,9.822069580078125,0.18081079423427582,2.8441812992095947,0.21501824259757996
1761315676216992500,9.840992431640625,0.10017894953489304,3.2351233959198,-0.2638860046863556
1761315676235915300,9.859915283203126,0.1172826737165451,2.9681832790374756,-0.3402419090270996
1761315676254838000,9.878838134765624,0.24556060135364532,2.2217278480529785,-0.07696675509214401
1761315676273761000,9.897760986328125,0.3823903799057007,0.893058717250824,0.9187142848968506
1761315676292683800,9.916683837890625,0.2211267054080963,-0.6927008032798767,2.017704963684082
1761315676311606500,9.9356064453125,-0.12522368133068085,-2.1001691818237305,2.9797892570495605
1761315676330529300,9.954529296875,-0.2919849753379822,-1.5052039623260498,3.268109083175659
1761315676349452300,9.973452392578125,-0.0012216945178806782,-0.20280128717422485,2.078178644180298
1761315676368375000,9.992375,-0.36101073026657104,-0.3762819170951843,2.437356948852539
1761315676387297800,10.0112978515625,-0.7379034757614136,0.393385648727417,2.529594898223877
1761315676406220800,10.030220703125,0.5876350402832031,1.3720393180847168,0.5418215394020081
1761315676425143600,10.0491435546875,1.0030112266540527,1.793523907661438,-0.10017894953489304
1761315676444066300,10.06806640625,0.2113531529903412,0.4031592011451721,-0.7684458494186401
1761315676462989300,10.0869892578125,-0.30786702036857605,-1.3647091388702393,-0.5815265774726868
1761315676481912000,10.105912109375,-0.026877280324697495,-1.3952515125274658,-0.8912261724472046
1761315676500834800,10.124834716796874,0.06291726976633072,-1.1502254009246826,-1.362876534461975
1761315676519757800,10.1437578125,-0.054365407675504684,-1.8197903633117676,-1.7794743776321411
1761315676538680600,10.1626806640625,-0.06169557198882103,-2.422085762023926,-2.222949504852295
1761315676557603300,10.181603271484375,0.01588202826678753,-2.431859254837036,-2.6419906616210938
1761315676576526300,10.2005263671875,-0.00916270911693573,-1.9303536415100098,-2.7562191486358643
1761315676595449000,10.219448974609374,-0.06413896381855011,-0.08857285231351852,-2.5051610469818115
1761315676614371800,10.238371826171875,-0.01832541823387146,1.2070342302322388,-2.249216079711914
1761315676633294600,10.257294677734375,-0.0397050715982914,1.2968287467956543,-2.009152889251709
1761315676652217600,10.276217529296876,-0.1441599577665329,1.178935170173645,-1.682349681854248
1761315676671140400,10.295140380859374,-0.11667182296514511,0.8955020904541016,-1.2216944694519043
1761315676690063400,10.3140634765625,0.03787253051996231,0.12583453953266144,-0.38727715611457825
1761315676708986000,10.332986083984375,0.03176405653357506,-1.0848647356033325,0.9639169573783875
1761315676727908900,10.351908935546875,-0.22723518311977386,-1.9059197902679443,1.8698798418045044
1761315676746831600,10.37083154296875,-0.1692046970129013,-1.5229185819625854,1.6340928077697754
1761315676765754600,10.389754638671874,0.10384403169155121,-0.6371136903762817,0.9883508682250977
1761315676784677400,10.408677490234375,0.18814095854759216,1.1764918565750122,0.2742704153060913
1761315676803600100,10.42760009765625,0.18997350335121155,3.0292680263519287,-0.4575245976448059
1761315676822523100,10.446523193359376,-0.031153209507465363,3.92171573638916,-0.5106683373451233
1761315676841446000,10.46544580078125,-0.1588202863931656,4.024414539337158,-0.06841489672660828
1761315676860368600,10.48436865234375,-0.02504473738372326,3.1074564456939697,0.38849884271621704
1761315676879291600,10.503291748046875,0.237008735537529,1.683571457862854,0.7336275577545166
1761315676898214400,10.52221435546875,0.38544461131095886,0.7440119385719299,1.086086392402649
1761315676917137200,10.54113720703125,0.35978904366493225,-1.3463836908340454,3.0915744304656982
1761315676936060000,10.560059814453124,0.00916270911693573,-1.8924812078475952,4.546689033508301
1761315676954983000,10.57898291015625,-0.3787252902984619,0.7898254990577698,2.8264665603637695
1761315676973905700,10.59790576171875,-0.684759795665741,0.80937260389328,1.054322361946106
1761315676992828400,10.616828369140626,-0.9144383668899536,-0.1172826737165451,2.4935548305511475
1761315677011751400,10.63575146484375,-0.3414636254310608,-0.04581354558467865,2.1624755859375
1761315677030674200,10.654674072265625,0.08429691940546036,0.04153761267662048,1.0738694667816162
1761315677049597000,10.673596923828125,0.0916270911693573,1.2473500967025757,0.2492256760597229
1761315677068519700,10.692519775390625,-0.12339114397764206,0.7684458494186401,-0.22662433981895447
1761315677087442700,10.711442626953126,0.054365407675504684,-0.2229592502117157,-0.3158080279827118
1761315677106365400,10.730365478515624,0.21929416060447693,-0.9962918758392334,-0.4031592011451721
1761315677125288200,10.7492880859375,0.3042019307613373,-0.6768187880516052,-1.0469921827316284
1761315677144211200,10.768211181640625,0.13560809195041656,-1.9407380819320679,-1.4868786334991455
1761315677163134000,10.787134033203126,0.13866232335567474,-2.7721011638641357,-2.000601053237915
1761315677182056700,10.806056640625,0.34818294644355774,-2.9394733905792236,-2.408036231994629
1761315677200979700,10.824979736328125,0.6053496599197388,-2.38482403755188,-2.640158176422119
1761315677219902500,10.84390234375,0.6371136903762817,-1.1257915496826172,-2.637104034423828
1761315677238825200,10.8628251953125,0.49051034450531006,0.337798535823822,-2.3402321338653564
1761315677257748000,10.881748046875,0.3151971995830536,1.2375766038894653,-2.003655433654785
1761315677276671000,10.9006708984375,0.09468132257461548,1.4490060806274414,-1.8240662813186646
1761315677295593700,10.91959375,-0.0787992998957634,1.294385313987732,-1.6768521070480347
1761315677314516500,10.9385166015625,-0.12278030067682266,0.8148702383041382,-1.4410650730133057
1761315677333439500,10.957439453125,-0.005497625097632408,-0.1313321590423584,-0.9413156509399414
1761315677352362200,10.9763623046875,0.23028941452503204,-1.349437952041626,-0.03237490355968475
1761315677371285000,10.995284912109375,0.337798535823822,-2.0855088233947754,0.7647807598114014
1761315677390208000,11.0142080078125,0.15026842057704926,-2.1142187118530273,0.9975135922431946
1761315677409130800,11.033130859375,-0.054365407675504684,-2.130711555480957,1.0274450778961182
1761315677428053500,11.052053466796876,-0.2345653474330902,-1.6298168897628784,1.0488247871398926
1761315677446976300,11.070976318359374,-0.22662433981895447,0.2498365342617035,0.9688037633895874
1761315677465899300,11.089899169921875,-0.06413896381855011,2.683528423309326,0.675597071647644
1761315677484822000,11.108822021484375,0.07024743407964706,3.736629009246826,0.49356457591056824
1761315677503744800,11.127744873046876,0.23151111602783203,3.7958812713623047,0.5320479869842529
1761315677522667800,11.146667724609374,0.3530697226524353,3.136776924133301,0.8289197087287903
1761315677541590500,11.165590576171875,0.37567105889320374,1.4716074466705322,1.8564411401748657
1761315677560513300,11.18451318359375,0.25472331047058105,0.6810947060585022,2.1472043991088867
1761315677579436000,11.20343603515625,0.11667182296514511,0.9559759497642517,1.4435083866119385
1761315677598359000,11.222359130859376,0.12033691257238388,0.8527427911758423,1.0555440187454224
1761315677617281800,11.24128173828125,-0.34512871503829956,0.18875180184841156,2.6407690048217773
1761315677636204500,11.26020458984375,-1.5650670528411865,-2.136820077896118,4.931522846221924
1761315677655127300,11.279127197265625,-1.904698133468628,-4.2852463722229,2.648099184036255
1761315677674050300,11.29805029296875,-0.10811996459960938,2.8148605823516846,0.8906152844429016
1761315677692973000,11.31697314453125,0.6206207871437073,5.520990371704102,-1.1734375953674316
1761315677711895800,11.335895751953124,0.4593571424484253,1.5326920747756958,-1.1178505420684814
1761315677730818800,11.35481884765625,-0.3897205591201782,-2.1691949367523193,-0.15026842057704926
1761315677749741600,11.373741455078125,-0.3280249834060669,-3.493511915206909,-0.7592831254005432
1761315677768664300,11.392664306640626,0.3787252902984619,-2.5943446159362793,-1.9309645891189575
1761315677787587000,11.411587158203124,0.6853706240653992,-1.6829605102539062,-2.660316228866577
1761315677806510000,11.430510009765625,0.8020424246788025,-1.6566941738128662,-3.0555343627929688
1761315677825432800,11.449432861328125,0.7342383861541748,-1.7904696464538574,-3.207024574279785
1761315677844355600,11.46835546875,0.5589252710342407,-1.5192534923553467,-3.0109424591064453
1761315677863278300,11.4872783203125,0.44042086601257324,-0.8301414251327515,-2.7256767749786377
1761315677882201300,11.506201416015625,0.23823043704032898,-0.3946073353290558,-2.5973989963531494
1761315677901124000,11.5251240234375,0.0781884491443634,-0.4752391576766968,-2.324350118637085
1761315677920046800,11.544046875,0.01710372418165207,-1.040272831916809,-1.7916914224624634
1761315677938969900,11.562969970703126,0.014049487188458443,-2.0824546813964844,-0.6981984376907349
1761315677957892600,11.581892578125,-0.14049486815929413,-2.7592735290527344,0.9517000317573547
1761315677976815400,11.6008154296875,-0.5473191738128662,-1.992049217224121,1.6090480089187622
1761315677995738400,11.61973828125,-0.42881476879119873,-1.1532796621322632,1.4123551845550537
1761315678014661000,11.6386611328125,-0.09468132257461548,-0.7214106321334839,1.353713870048523
1761315678033583900,11.657583984375,0.038483377546072006,-0.20768806338310242,1.3316470384597778
1761315678052506600,11.676506591796874,0.09712471067905426,0.7647807598114014,1.0708152055740356
1761315678071429400,11.695429443359375,0.05070032179355621,2.0708484649658203,0.45019441843032837
1761315678090352400,11.714352294921875,-0.03665083646774292,3.2827694416046143,-0.0653606578707695
1761315678109275100,11.733275146484376,-0.054365407675504684,4.278526782989502,-0.10078980028629303
1761315678128198000,11.752197998046874,0.06413896381855011,4.497820854187012,0.10750912129878998
1761315678147121000,11.771120849609375,0.30481278896331787,3.1758713722229004,0.41048935055732727
1761315678166043600,11.790043701171875,0.4709632396697998,0.448361873626709,0.5296045541763306
1761315678184966400,11.80896630859375,0.40987852215766907,-1.2278029918670654,1.2693406343460083
1761315678203889200,11.82788916015625,0.45019441843032837,-1.8173469305038452,2.984065294265747
1761315678222812200,11.846812255859374,0.04092676565051079,-0.9810206890106201,3.262000799179077
1761315678241735000,11.86573486328125,-1.3689850568771362,-0.5937435626983643,3.8368079662323
1761315678260657700,11.88465771484375,-3.637671709060669,-4.5314178466796875,5.126993656158447
1761315678279580400,11.903580322265626,-0.8875610828399658,-2.4068145751953125,2.5741868019104004
1761315678298503400,11.92250341796875,1.3543246984481812,5.3273515701293945,0.08918370306491852
1761315678317426200,11.94142626953125,1.5357463359832764,4.444677352905273,-0.6676560640335083
1761315678336349000,11.960348876953125,0.45508119463920593,1.2778924703598022,-0.2754921019077301
1761315678355271700,11.979271728515625,-0.29442837834358215,-1.3482162952423096,-0.2113531529903412
1761315678374194700,11.998194580078126,-0.4355340898036957,-2.929089069366455,-0.1966928243637085
1761315678393117400,12.017117431640624,0.0653606578707695,-1.4135769605636597,-1.132510781288147
1761315678412040200,12.036040283203125,0.2235700935125351,-0.5161659121513367,-1.8332289457321167
1761315678430963200,12.054963134765625,0.3115321099758148,-1.4868786334991455,-2.1380417346954346
1761315678449886000,12.073885986328126,0.43614494800567627,-2.083676338195801,-2.6731438636779785
1761315678468808700,12.09280859375,0.34573954343795776,-2.110553741455078,-3.163654327392578
1761315678487731500,12.1117314453125,0.20280128717422485,-1.5626236200332642,-3.230236768722534
1761315678506654200,12.130654296875,0.3292466700077057,-0.28221142292022705,-3.0084991455078125
1761315678525577200,12.1495771484375,0.4355340898036957,0.8258655071258545,-2.659705400466919
1761315678544500000,12.1685,0.5363239049911499,0.8087617754936218,-2.3726069927215576
1761315678563422700,12.187422607421874,0.5320479869842529,0.19241689145565033,-1.978610634803772
1761315678582345700,12.206345703125,0.5296045541763306,-0.4752391576766968,-1.192984700202942
1761315678601268500,12.2252685546875,0.46668729186058044,-1.2369656562805176,0.046424392610788345
1761315678620191200,12.244191162109376,0.05070032179355621,-1.5009280443191528,0.8710681796073914
1761315678639114000,12.263114013671874,-0.29626092314720154,-1.0408837795257568,0.8105943202972412
1761315678658037000,12.282037109375,-0.4074351191520691,-0.46302223205566406,0.6224533319473267
1761315678676959700,12.300959716796875,-0.30664533376693726,0.6994200944900513,0.6139014959335327
1761315678695882500,12.319882568359375,-0.129499614238739,1.9779998064041138,0.5686988234519958
1761315678714805200,12.33880517578125,-0.13866232335567474,3.0628645420074463,0.3646758198738098
1761315678733728300,12.357728271484374,-0.08002099394798279,3.6456127166748047,0.21379654109477997
1761315678752651000,12.376651123046875,-0.015271181240677834,3.4837381839752197,0.2754921019077301
1761315678771573800,12.39557373046875,0.05008947476744652,2.8154714107513428,0.4947862923145294
1761315678790496500,12.41449658203125,0.2345653474330902,1.5442981719970703,0.7134696245193481
1761315678809419500,12.43341943359375,0.38666632771492004,0.10201149433851242,1.3989166021347046
1761315678828342300,12.45234228515625,0.042759306728839874,-0.48989951610565186,2.3487839698791504
1761315678847265000,12.47126513671875,-0.20280128717422485,0.5619794726371765,2.047025442123413
1761315678866187800,12.490187744140625,0.03665083646774292,1.7635923624038696,1.91386079788208
1761315678885110800,12.50911083984375,0.13927318155765533,2.1985156536102295,1.4019708633422852
1761315678904033500,12.528033447265624,0.23334364593029022,1.7874153852462769,1.475272536277771
1761315678922956300,12.546956298828125,-0.2742704153060913,-1.9834973812103271,2.604729175567627
1761315678941879000,12.565879150390625,-0.8539644479751587,-3.041484832763672,2.0916173458099365
1761315678960802000,12.584802001953125,0.6762079000473022,1.8142926692962646,2.611448287963867
1761315678979724800,12.603724853515626,0.656660795211792,3.5008420944213867,0.6731536984443665
1761315678998647600,12.6226474609375,0.07207997888326645,2.046414613723755,0.6065713167190552
1761315679017570300,12.6415703125,-0.5442649126052856,-1.0469921827316284,0.237008735537529
1761315679036493300,12.660493408203125,-1.0824213027954102,-3.710362672805786,-0.20341213047504425
1761315679055416000,12.679416015625,-0.4092676639556885,-3.3065924644470215,-0.6804838180541992
1761315679074338800,12.6983388671875,0.6908682584762573,-0.5668662786483765,-2.1239922046661377
1761315679093261600,12.717261474609375,0.9419264793395996,0.00916270911693573,-2.558915615081787
1761315679112184300,12.736184326171875,0.8674030900001526,-1.4062467813491821,-2.544255256652832
1761315679131107300,12.755107421875,0.7965448498725891,-2.700021266937256,-2.7189574241638184
1761315679150030000,12.774030029296876,0.6963658928871155,-3.2656657695770264,-2.920536994934082
1761315679168952800,12.792952880859374,0.3164188861846924,-2.428194284439087,-2.6652028560638428
1761315679187875600,12.81187548828125,0.09468132257461548,-0.3695625960826874,-2.026867628097534
1761315679206798600,12.830798583984375,-0.020157959312200546,0.6548282504081726,-1.6175998449325562
1761315679225721300,12.849721435546876,-0.208298921585083,0.7006418108940125,-1.2143644094467163
1761315679244644000,12.86864404296875,-0.2632751762866974,0.2987042963504791,-0.8942803740501404
1761315679263566800,12.88756689453125,-0.0653606578707695,-0.5467082858085632,-0.3781144618988037
1761315679282489900,12.90648974609375,0.24189551174640656,-1.5235294103622437,0.37689274549484253
1761315679301412600,12.92541259765625,0.4074351191520691,-1.8142926692962646,0.9132166504859924
1761315679320335400,12.94433544921875,0.2510582208633423,-1.5589585304260254,1.0744802951812744
1761315679339258000,12.963258056640624,-0.0390942245721817,-1.1545013189315796,0.8942803740501404
1761315679358181000,12.98218115234375,-0.1844758689403534,-0.061084724962711334,0.3897205591201782
1761315679377104000,13.001103759765625,-0.18997350335121155,1.835672378540039,-0.16309621930122375
1761315679396026600,13.020026611328126,-0.11178504675626755,3.8325321674346924,-0.17409147322177887
1761315679414949400,13.038949462890624,-0.09712471067905426,4.425130367279053,0.02626643143594265
1761315679433872100,13.0578720703125,0.0036650835536420345,3.93820858001709,0.2486148327589035
1761315679452795100,13.076795166015625,0.2101314514875412,2.4037604331970215,0.48806697130203247
1761315679471718000,13.0957177734375,0.45263782143592834,-1.0201148986816406,1.6854039430618286
1761315679490640600,13.114640625,0.5741963982582092,-4.150249004364014,3.7005889415740967
1761315679509563400,13.1335634765625,0.13560809195041656,-4.12825870513916,5.035366535186768
1761315679528486100,13.152486083984375,-0.5027272701263428,0.07085828483104706,3.8154282569885254
1761315679547409200,13.1714091796875,-0.3261924386024475,2.498441696166992,0.45019441843032837
1761315679566332000,13.190331787109375,-0.15943112969398499,3.0744705200195312,0.5100574493408203
1761315679585254700,13.209254638671876,-0.7006418108940125,0.20768806338310242,3.3383567333221436
1761315679604177400,13.228177490234375,0.39888325333595276,-1.4887111186981201,0.888171911239624
1761315679623100400,13.247100341796875,1.0011786222457886,0.8283088803291321,1.1343433856964111
1761315679642023200,13.266023193359375,0.15149012207984924,0.4434750974178314,0.8478559851646423
1761315679660946000,13.28494580078125,-0.860683798789978,-1.3304253816604614,0.7220214605331421
1761315679679868700,13.30386865234375,-0.46668729186058044,-0.2113531529903412,-0.5082249045372009
1761315679698791400,13.32279150390625,-0.129499614238739,0.5772506594657898,-1.696399211883545
1761315679717714400,13.34171435546875,0.05008947476744652,-0.3701734244823456,-2.16552996635437
1761315679736637200,13.36063720703125,-0.11422843486070633,-1.6744086742401123,-2.2736499309539795
1761315679755560000,13.379559814453126,0.16248537600040436,-2.0677943229675293,-2.6059508323669434
1761315679774482700,13.398482666015624,0.6310052275657654,-1.761759877204895,-2.7421696186065674
1761315679793405700,13.41740576171875,0.8020424246788025,-1.4459518194198608,-2.7128491401672363
1761315679812328400,13.436328369140625,0.5088357925415039,-1.0262234210968018,-2.5228755474090576
1761315679831251200,13.455251220703126,0.33413344621658325,-0.07574506103992462,-2.238220691680908
1761315679850174000,13.474174072265624,0.1850867122411728,0.624896764755249,-2.092839002609253
1761315679869096700,13.4930966796875,0.04031591862440109,0.8509102463722229,-1.881485939025879
1761315679888019700,13.512019775390625,-0.020157959312200546,0.6700994372367859,-1.59988534450531
1761315679906942500,13.5309423828125,0.01954711228609085,0.0910162404179573,-1.1147962808609009
1761315679925865200,13.549865234375,0.1832541823387146,-0.8362498879432678,-0.17775654792785645
1761315679944788000,13.5687880859375,0.24617144465446472,-1.450838565826416,0.7049177289009094
1761315679963710700,13.587710693359375,-0.01832541823387146,-1.323706030845642,0.8680139780044556
1761315679982633700,13.6066337890625,-0.11361759155988693,-1.1264023780822754,0.7427902817726135
1761315680001556500,13.625556396484376,0.042759306728839874,-1.1764918565750122,0.8716790676116943
1761315680020479200,13.644479248046874,0.11483928561210632,-0.550373375415802,1.1923738718032837
1761315680039402000,13.663402099609375,-0.07635590434074402,1.3200409412384033,1.2577345371246338
1761315680058324700,13.68232470703125,-0.1844758689403534,3.2167980670928955,0.892447829246521
1761315680077247700,13.701247802734375,-0.031153209507465363,3.880178213119507,0.43981003761291504
1761315680096170500,13.72017041015625,0.11056335270404816,4.036020755767822,0.363454133272171
1761315680115093200,13.73909326171875,0.22906772792339325,3.4330379962921143,0.6945333480834961
1761315680134016000,13.75801611328125,0.3530697226524353,1.6817388534545898,1.723887324333191
1761315680152938800,13.776938720703125,0.17470231652259827,-0.020157959312200546,2.995060443878174
1761315680171861800,13.79586181640625,-0.10750912129878998,-0.1575985997915268,2.5955662727355957
1761315680190784500,13.814784423828126,-0.006108472589403391,-0.16126367449760437,1.8576629161834717
1761315680209707300,13.833707275390625,-0.53143709897995,-2.6041181087493896,3.3872244358062744
1761315680228630000,13.852630126953125,-0.4844018816947937,-2.301748752593994,1.8912594318389893
1761315680247552800,13.871552734375,-0.12400199472904205,-0.16309621930122375,1.2143644094467163
1761315680266475800,13.890475830078126,0.5961869359016418,1.8045191764831543,0.9877400398254395
1761315680285398500,13.9093984375,0.19180603325366974,0.20768806338310242,0.9651386737823486
1761315680304321300,13.9283212890625,0.06841489672660828,0.3042019307613373,0.3805578351020813
1761315680323244000,13.947244140625,-0.1319430023431778,-0.7434011101722717,-0.5436540842056274
1761315680342166800,13.966166748046875,-0.6218425035476685,-0.9614735841751099,-1.4123551845550537
1761315680361089800,13.98508984375,-0.41293275356292725,-1.1447277069091797,-1.8613280057907104
1761315680380012500,14.004012451171874,0.11056335270404816,-1.5088690519332886,-2.1056668758392334
1761315680398935300,14.022935302734375,0.38849884271621704,-1.482602596282959,-2.408647060394287
1761315680417858000,14.041858154296875,0.5351021885871887,-1.0103414058685303,-2.683528423309326
1761315680436780800,14.06078076171875,0.5192201733589172,-0.5644228458404541,-2.6383256912231445
1761315680455703800,14.079703857421874,0.4489727318286896,-0.2870981991291046,-2.4214749336242676
1761315680474626600,14.09862646484375,0.37689274549484253,0.042759306728839874,-2.122159719467163
1761315680493549300,14.11754931640625,0.3292466700077057,0.15210096538066864,-1.9865516424179077
1761315680512472000,14.13647216796875,0.3268032968044281,0.11117420345544815,-1.7623707056045532
1761315680531394800,14.155394775390626,0.3035911023616791,-0.18753011524677277,-1.3738718032836914
1761315680550317800,14.17431787109375,0.3500154912471771,-0.8020424246788025,-0.7171346545219421
1761315680569240600,14.193240478515625,0.40132665634155273,-1.7177788019180298,0.4031592011451721
1761315680588163300,14.212163330078125,0.020157959312200546,-2.2791473865509033,1.2449066638946533
1761315680607086000,14.231086181640626,-0.29748260974884033,-2.047025442123413,1.3017154932022095
1761315680626008800,14.2500087890625,-0.2345653474330902,-1.6786845922470093,1.1691616773605347
1761315680644931800,14.268931884765625,-0.09345962852239609,-0.7452336549758911,1.0335536003112793
1761315680663854600,14.2878544921875,-0.062306419014930725,1.5094798803329468,0.6529957056045532
1761315680682777300,14.30677734375,0.10017894953489304,3.4886250495910645,0.021379653364419937
1761315680701700000,14.3257001953125,0.10384403169155121,4.745825290679932,-0.2877090573310852
1761315680720623000,14.344623046875,-0.07085828483104706,4.8612751960754395,-0.2516690790653229
1761315680739545900,14.3635458984375,-0.031153209507465363,3.681041955947876,0.06658235192298889
1761315680758468600,14.382468505859375,0.10323318839073181,1.835672378540039,0.5870242118835449
1761315680777391400,14.401391357421875,0.16309621930122375,0.258999228477478,1.1856545209884644
1761315680796314000,14.420314208984376,0.24372805655002594,-2.0335869789123535,3.360347032546997
1761315680815236900,14.43923681640625,-0.2864873707294464,-1.5601803064346313,3.19236421585083
1761315680834159900,14.458159912109375,-0.7617265582084656,-1.968837022781372,2.4697318077087402
1761315680853082600,14.47708251953125,-0.8991671800613403,-3.8844540119171143,2.6908586025238037
1761315680872005400,14.49600537109375,-0.05619794875383377,-0.30847787857055664,2.403149366378784
1761315680890928000,14.51492822265625,0.41537612676620483,3.5228323936462402,1.460612177848816
1761315680909851000,14.533850830078125,0.36101073026657104,3.742126703262329,0.37322768568992615
1761315680928774000,14.55277392578125,-0.24556060135364532,1.2864443063735962,0.1832541823387146
1761315680947696600,14.571696533203125,-0.3658975064754486,-1.6340928077697754,-0.3530697226524353
1761315680966619400,14.590619384765626,-0.1575985997915268,-2.558915615081787,-0.7324058413505554
1761315680985542100,14.609542236328124,0.342074453830719,-1.1728267669677734,-1.3989166021347046
1761315681004465000,14.62846484375,0.6621584296226501,-0.8148702383041382,-1.9309645891189575
1761315681023387600,14.6473876953125,0.5882459282875061,-1.3457728624343872,-2.150258779525757
1761315681042310700,14.666310546875,0.3701734244823456,-2.208899974822998,-2.2125651836395264
1761315681061233400,14.6852333984375,0.2987042963504791,-2.627941370010376,-2.211954355239868
1761315681080156200,14.70415625,0.32374903559684753,-2.3512275218963623,-1.9682261943817139
1761315681099079000,14.723078857421875,0.21440738439559937,-1.3476054668426514,-1.780696153640747
1761315681118001700,14.742001708984375,0.15943112969398499,-0.28282228112220764,-1.5870575904846191
1761315681136924400,14.76092431640625,0.129499614238739,0.40132665634155273,-1.3561573028564453
1761315681155847400,14.779847412109374,0.061084724962711334,1.0231691598892212,-1.142895221710205
1761315681174770200,14.798770263671875,0.056808795779943466,1.3482162952423096,-0.9455915689468384
1761315681193693000,14.81769287109375,0.0525328628718853,1.2302464246749878,-0.7165238261222839
1761315681212615700,14.83661572265625,0.21318569779396057,0.5632011890411377,-0.2773246467113495
1761315681231538400,14.855538330078126,0.6004628539085388,-0.5894675850868225,0.5161659121513367
1761315681250461400,14.87446142578125,0.6725428104400635,-1.4282371997833252,0.8154810667037964
1761315681269384200,14.89338427734375,0.3035911023616791,-1.6304277181625366,0.30481278896331787
1761315681288307000,14.912306884765625,0.018936265259981155,-0.8710681796073914,-0.33596599102020264
1761315681307229700,14.931229736328126,-0.27060532569885254,0.8912261724472046,-0.32191649079322815
1761315681326152400,14.95015234375,-0.2596100866794586,2.5448660850524902,0.3518480062484741
1761315681345075500,14.969075439453125,-0.20768806338310242,2.856398105621338,0.9492566585540771
1761315681363998200,14.987998291015625,-0.23884128034114838,2.243107557296753,1.2791141271591187
1761315681382921000,15.0069208984375,-0.2089097648859024,1.1868761777877808,1.7709225416183472
1761315681401843700,15.02584375,-0.2718270421028137,-0.056808795779943466,3.36889910697937
1761315681420766500,15.044766357421874,-0.7427902817726135,-0.016492875292897224,3.15998911857605
1761315681439689200,15.063689208984375,-0.5326588153839111,-0.13438639044761658,1.6701327562332153
1761315681458612200,15.0826123046875,0.28282228112220764,-2.105056047439575,2.520432233810425
1761315681477535000,15.101534912109376,0.24678228795528412,1.0024003982543945,2.7330069541931152
1761315681496457700,15.120457763671874,0.707361102104187,4.737273216247559,0.6768187880516052
1761315681515380500,15.13938037109375,0.6206207871437073,3.5778088569641113,0.09040539711713791
1761315681534303200,15.15830322265625,-0.009773556143045425,0.6584933400154114,0.09468132257461548
1761315681553226000,15.17722607421875,-0.5741963982582092,-1.2027583122253418,0.023212196305394173
1761315681572149000,15.19614892578125,-0.6902574300765991,-2.8783886432647705,-0.39643988013267517
1761315681591071700,15.21507177734375,-0.3500154912471771,-2.957798719406128,-0.8832851648330688
1761315681609994500,15.233994384765625,0.07207997888326645,-1.161220669746399,-1.1685508489608765
1761315681628917200,15.252917236328125,0.12033691257238388,0.03176405653357506,-1.53452467918396
1761315681647840000,15.271840087890626,0.04825693368911743,0.02076880633831024,-1.8967571258544922
1761315681666763000,15.290762939453124,-0.008551862090826035,-0.2498365342617035,-2.161864757537842
1761315681685685800,15.309685791015625,0.07574506103992462,-0.4605788290500641,-2.2657089233398438
1761315681704608500,15.3286083984375,0.14843589067459106,-0.6047387719154358,-2.307246446609497
1761315681723531300,15.34753125,0.045202698558568954,-0.6902574300765991,-2.425750732421875
1761315681742454000,15.3664541015625,-0.17836740612983704,-0.8472451567649841,-2.6358823776245117
1761315681761376800,15.385376708984374,-0.3390202224254608,-0.8319739699363708,-2.752554178237915
1761315681780299800,15.4042998046875,-0.29381752014160156,-0.7513421177864075,-2.625497817993164
1761315681799222500,15.423222412109375,-0.08918370306491852,-0.832584798336029,-2.205235004425049
1761315681818145300,15.442145263671875,0.17958909273147583,-1.1288456916809082,-1.544909119606018
1761315681837068000,15.461068115234376,0.5711421966552734,-1.6621917486190796,-0.6303943991661072
1761315681855990800,15.47999072265625,1.1532796621322632,-2.026256799697876,-0.09529217332601547
1761315681874913500,15.49891357421875,0.9718579649925232,-2.792870044708252,-0.4049917459487915
1761315681893836500,15.51783642578125,0.610236406326294,-3.444643974304199,-0.7043069005012512
1761315681912759300,15.53675927734375,0.1979145109653473,-3.1355552673339844,-0.7794411182403564
1761315681931682000,15.55568212890625,-0.314586341381073,-1.9938818216323853,-0.6169557571411133
1761315681950604800,15.574604736328125,-0.7537854909896851,-0.44103172421455383,0.1185043677687645
1761315681969527600,15.593527587890625,-1.1233481168746948,0.7568397521972656,1.2406307458877563
1761315681988450300,15.6124501953125,-0.6224533319473267,1.4209071397781372,2.2192845344543457
1761315682007373300,15.631373291015626,-0.2498365342617035,2.4330809116363525,2.3945975303649902
1761315682026296000,15.650296142578124,-0.7110261917114258,3.5436012744903564,1.7813069820404053
1761315682045218800,15.66921875,-1.4270155429840088,3.3505735397338867,0.7482879161834717
1761315682064141600,15.6881416015625,-1.0805888175964355,2.376272201538086,0.1453816443681717
1761315682083064300,15.707064208984375,-0.4599680006504059,0.873511552810669,-0.11117420345544815
1761315682101987000,15.725987060546874,0.11911521852016449,-0.1832541823387146,-0.42759308218955994
1761315682120910000,15.74491015625,0.503948986530304,-1.0482138395309448,-0.7018635272979736
1761315682139832800,15.763832763671875,0.739736020565033,-1.687847375869751,-0.836860716342926
1761315682158755600,15.782755615234375,0.9578084945678711,-2.1496479511260986,-0.7751652002334595
1761315682177678300,15.80167822265625,1.2113101482391357,-2.316409111022949,-0.6957550048828125
1761315682196601000,15.82060107421875,-0.41048935055732727,-2.260211229324341,-0.42392799258232117
1761315682215524000,15.839524169921875,-1.1618314981460571,-0.8875610828399658,0.01710372418165207
1761315682234446800,15.85844677734375,0.20463383197784424,0.4056025743484497,-0.008551862090826035
1761315682253369600,15.87736962890625,0.6474980711936951,2.2156193256378174,-0.047646086663007736
1761315682272292400,15.896292236328126,1.395862340927124,3.062253713607788,-0.7342383861541748
1761315682291215000,15.915215087890624,1.1679399013519287,3.028046131134033,-0.6499415040016174
1761315682310137900,15.934137939453125,-0.29503923654556274,1.7220547199249268,0.18936264514923096
1761315682329060900,15.953060791015625,-1.0671501159667969,0.013438640162348747,0.7757760286331177
1761315682347983600,15.971983642578126,-0.8112051486968994,-0.7721109390258789,1.2137534618377686
1761315682376367600,16.00036767578125,-0.4312581717967987,-2.2278363704681396,1.1416735649108887
1761315682395290400,16.019290283203127,-0.12888877093791962,-3.426929473876953,0.8906152844429016
1761315682414213400,16.03821337890625,0.2901524603366852,-3.6364500522613525,0.34573954343795776
1761315682433136000,16.05713623046875,0.1588202863931656,-1.5559042692184448,-0.7293516397476196
1761315682452059000,16.076058837890624,-0.9736905097961426,0.2498365342617035,-0.4227063059806824
1761315682470981600,16.094981689453125,-0.517998456954956,0.8991671800613403,-0.08674030750989914
1761315682489904400,16.113904296875,-0.237008735537529,1.8808751106262207,-0.42331716418266296
1761315682508827100,16.1328271484375,0.042759306728839874,1.404414176940918,-0.7739434838294983
1761315682527750000,16.15175,0.23884128034114838,1.465498924255371,-0.7501204609870911
1761315682546673000,16.1706728515625,0.1313321590423584,1.1117420196533203,-0.291374146938324
1761315682565595600,16.189595703125,-0.05619794875383377,-0.21440738439559937,-0.007330167107284069
1761315682584518400,16.208518310546875,-0.026877280324697495,-0.08307522535324097,0.07269082218408585
1761315682603441200,16.227441162109375,0.010995250195264816,-0.09407047927379608,0.2767138183116913
1761315682622364000,16.246364013671876,0.1441599577665329,0.0910162404179573,0.45324867963790894
1761315682641286700,16.26528662109375,0.21196399629116058,0.5283828973770142,0.503948986530304
1761315682660209700,16.284209716796877,0.17225892841815948,0.06169557198882103,0.6719319820404053
1761315682679132400,16.30313232421875,0.42392799258232117,-0.610236406326294,0.5607577562332153
1761315682698055200,16.32205517578125,0.6865923404693604,-1.2180293798446655,0.18753011524677277
1761315682716978000,16.34097802734375,-0.24006296694278717,-1.0121738910675049,0.5418215394020081
1761315682735900700,16.359900634765626,-0.16737215220928192,-0.15210096538066864,0.2608317732810974
1761315682754823400,16.378823486328123,0.1435490995645523,0.183865025639534,0.14965757727622986
1761315682773746200,16.39774609375,0.19913621246814728,0.17836740612983704,-0.17714570462703705
1761315682792669200,16.416669189453124,-0.03665083646774292,0.5803049206733704,-0.43736663460731506
1761315682811592000,16.435592041015624,0.07330167293548584,1.0891406536102295,-0.037261683493852615
1761315682830514700,16.4545146484375,0.006108472589403391,0.6688777208328247,0.021990500390529633
1761315682849437400,16.4734375,0.11300674080848694,0.6175665855407715,0.4446968138217926
1761315682868360200,16.492360107421874,0.24556060135364532,0.5632011890411377,-0.07696675509214401
1761315682887283000,16.511282958984374,0.21379654109477997,2.4648449420928955,-0.36162158846855164
1761315682906205700,16.530205810546875,0.15210096538066864,5.448299407958984,-0.6920899152755737
1761315682925128400,16.54912841796875,0.11361759155988693,6.791018009185791,-1.2809467315673828
1761315682944051500,16.568051513671875,0.06719319522380829,6.056092262268066,-1.4935978651046753
1761315682962974200,16.58697412109375,0.1850867122411728,4.033576965332031,-1.0366077423095703
1761315682981897000,16.60589697265625,0.8429692387580872,1.3604332208633423,0.2632751762866974
1761315683000819700,16.62481982421875,1.9969360828399658,-0.7342383861541748,2.324350118637085
1761315683019742500,16.643742431640625,2.6267194747924805,0.3249707520008087,2.96024227142334
1761315683038665200,16.662665283203125,3.29376482963562,2.5479202270507812,1.3934189081192017
1761315683057588000,16.681587890625,3.556429147720337,4.2278265953063965,-0.5876350402832031
1761315683076510700,16.7005107421875,4.544856548309326,5.538704872131348,-2.981010913848877
1761315683095433700,16.719433837890627,4.62548828125,3.2827694416046143,-2.8093628883361816
1761315683114356500,16.7383564453125,4.141696929931641,-1.936462163925171,-1.0066763162612915
1761315683133279200,16.757279296875,2.841737747192383,-1.9841082096099854,0.33230090141296387
1761315683152202000,16.776201904296876,1.1618314981460571,0.8570187091827393,0.5204418897628784
1761315683171124700,16.795124755859376,-0.07085828483104706,2.5570828914642334,0.5662553906440735
1761315683190047500,16.814047607421877,-0.9352071285247803,2.393986701965332,0.6157340407371521
1761315683208970200,16.83297021484375,-1.5827815532684326,1.733049988746643,0.9565867781639099
1761315683227893000,16.85189306640625,-2.4966092109680176,0.3958290219306946,1.3989166021347046
1761315683246815700,16.870815673828126,-3.2797152996063232,-1.2009257078170776,1.9211909770965576
1761315683265738800,16.88973876953125,-3.900946855545044,-1.4031925201416016,3.015218496322632
1761315683284661500,16.90866162109375,-4.053735256195068,-1.6102697849273682,3.6211788654327393
1761315683303584300,16.927584228515624,-3.9461495876312256,-2.0427496433258057,3.814206600189209
1761315683322507000,16.946507080078124,-3.8074872493743896,-1.8362832069396973,3.7054758071899414
1761315683341429800,16.9654296875,-3.2998733520507812,-1.2100883722305298,3.1392204761505127
1761315683360352500,16.9843525390625,-2.6291630268096924,-0.3561239540576935,2.5088260173797607
1761315683379275300,17.003275146484373,-1.7580947875976562,0.2730487287044525,2.089784860610962
1761315683398198000,17.022197998046874,-0.8393041491508484,0.4312581717967987,1.8326181173324585
1761315683417121000,17.04112109375,0.13438639044761658,0.46851983666419983,1.5418548583984375
1761315683436043800,17.060043701171875,1.0549331903457642,0.4312581717967987,1.2039799690246582
1761315683454966500,17.078966552734375,1.6817388534545898,0.3915531039237976,1.1416735649108887
1761315683473889300,17.09788916015625,1.6279842853546143,1.1948171854019165,1.6175998449325562
1761315683492812000,17.11681201171875,0.5686988234519958,2.2644870281219482,2.510047674179077
1761315683511734800,17.13573486328125,-0.2608317732810974,0.12705622613430023,3.412269115447998
1761315683530657500,17.154657470703125,-1.0030112266540527,-3.4562501907348633,4.328616619110107
1761315683549580300,17.173580322265625,-1.1496145725250244,-3.686539649963379,4.176515579223633
1761315683568503000,17.1925029296875,-0.7696675658226013,-2.4556822776794434,3.8740696907043457
1761315683587425800,17.21142578125,-0.4043808877468109,-1.0738694667816162,3.845970630645752
1761315683606348500,17.2303486328125,-0.30786702036857605,0.3298575282096863,3.779999256134033
1761315683625271600,17.249271484375,-0.46668729186058044,0.7727217674255371,3.447087526321411
1761315683644194300,17.2681943359375,-0.44103172421455383,0.24617144465446472,2.838683605194092
1761315683663117000,17.287116943359376,-0.07391251623630524,0.10689827054738998,2.052523136138916
1761315683682039800,17.306039794921876,0.08674030750989914,0.7873821258544922,1.295607089996338
1761315683700962600,17.324962646484376,0.06902574002742767,0.9407047629356384,0.966971218585968
1761315683719885300,17.34388525390625,0.046424392610788345,0.6713211536407471,1.156944751739502
1761315683738808000,17.36280810546875,-0.061084724962711334,0.6200099587440491,1.197871446609497
1761315683757730800,17.381730712890626,-0.16859383881092072,0.7708892226219177,0.9779664874076843
1761315683776653600,17.400653564453126,-0.0787992998957634,0.6383354067802429,0.7232431769371033
1761315683795576300,17.419576416015627,0.01038440316915512,0.1850867122411728,0.4831801950931549
1761315683814499300,17.438499267578123,0.02076880633831024,-0.14843589067459106,0.2583884000778198
1761315683833422000,17.457422119140624,-0.036039989441633224,0.0397050715982914,0.20157960057258606
1761315683852344800,17.4763447265625,-0.03176405653357506,0.3292466700077057,0.2773246467113495
1761315683871267600,17.495267578125,-0.06352811306715012,0.37506023049354553,0.3775036036968231
1761315683890190300,17.5141904296875,-0.12461283802986145,0.37200596928596497,0.4599680006504059
1761315683909113000,17.533113037109374,-0.13866232335567474,0.31825143098831177,0.420873761177063
1761315683928035800,17.552035888671874,-0.1050657257437706,0.18081079423427582,0.25533416867256165
1761315683946958600,17.57095849609375,-0.06352811306715012,0.07207997888326645,0.17592400312423706
1761315683965881300,17.58988134765625,-0.025655584409832954,0.07269082218408585,0.14965757727622986
1761315683984804000,17.60880419921875,0.02626643143594265,0.12583453953266144,0.15026842057704926
1761315684003726800,17.627726806640624,0.08490777015686035,0.14660334587097168,0.16553960740566254
1761315684022649900,17.64664990234375,0.10384403169155121,0.09529217332601547,0.20035789906978607
1761315684041572600,17.665572509765624,0.07024743407964706,0.0653606578707695,0.26938363909721375
1761315684060495400,17.684495361328125,0.033596597611904144,0.1441599577665329,0.3665083646774292
1761315684079418000,17.703418212890625,0.0036650835536420345,0.21257483959197998,0.45019441843032837
1761315684098340900,17.7223408203125,-0.016492875292897224,0.3158080279827118,0.5125008225440979
1761315684117263600,17.741263671875,-0.020157959312200546,0.5210527181625366,0.7739434838294983
1761315684136186400,17.760186279296875,0.09040539711713791,0.41415444016456604,0.4294256269931793
1761315684155109000,17.779109130859375,0.15515519678592682,-0.023212196305394173,0.007941014133393764
1761315684174032000,17.798031982421875,0.12094775587320328,-0.1966928243637085,0.03298575058579445
