time,seconds_elapsed,z,y,x
1761314929025152300,0.21715234375,0.0005344913806766272,0.00015271181473508477,-0.00038177953683771193
1761314929044073700,0.23607373046875,0.0005344913806766272,-0.0010689827613532543,-0.0009926267666742206
1761314929062995200,0.2549951171875,0.0005344913806766272,0.00015271181473508477,-0.0009926267666742206
1761314929081916400,0.27391650390625,0.0005344913806766272,-0.0010689827613532543,-0.0009926267666742206
1761314929100838000,0.292837890625,-0.00007635590736754239,0.00015271181473508477,-0.0009926267666742206
1761314929119759400,0.31175927734375,-0.00007635590736754239,-0.0004581354442052543,-0.0009926267666742206
1761314929138680800,0.330680908203125,0.0005344913806766272,-0.0004581354442052543,-0.0009926267666742206
1761314929157602300,0.349602294921875,-0.00007635590736754239,0.0007635590736754239,-0.00038177953683771193
1761314929176523800,0.368523681640625,0.0005344913806766272,-0.0004581354442052543,-0.0009926267666742206
1761314929195445200,0.3874453125,0.0005344913806766272,-0.0004581354442052543,-0.0016034740256145597
1761314929214366700,0.40636669921875,0.0005344913806766272,0.00015271181473508477,-0.0009926267666742206
1761314929233288200,0.4252880859375,-0.000687203137204051,-0.0004581354442052543,-0.00038177953683771193
1761314929252209700,0.444209716796875,0.0005344913806766272,-0.0004581354442052543,-0.0009926267666742206
1761314929271131100,0.463131103515625,-0.00007635590736754239,-0.0004581354442052543,-0.00038177953683771193
1761314929290052600,0.482052490234375,0.0005344913806766272,-0.0004581354442052543,-0.00038177953683771193
1761314929308974000,0.50097412109375,0.0005344913806766272,-0.0010689827613532543,-0.0009926267666742206
1761314929327895600,0.5198955078125,0.0011453386396169662,-0.0004581354442052543,-0.00038177953683771193
1761314929346817000,0.538817138671875,0.0005344913806766272,-0.0004581354442052543,-0.0009926267666742206
1761314929365738500,0.557738525390625,-0.00007635590736754239,-0.0004581354442052543,-0.0009926267666742206
1761314929384660000,0.576659912109375,-0.00007635590736754239,0.00015271181473508477,-0.0009926267666742206
1761314929403581400,0.59558154296875,-0.00007635590736754239,-0.0004581354442052543,-0.00038177953683771193
1761314929422503000,0.6145029296875,0.0005344913806766272,0.00015271181473508477,-0.0009926267666742206
1761314929441424400,0.63342431640625,-0.00007635590736754239,-0.0010689827613532543,-0.0009926267666742206
1761314929460345900,0.652345947265625,0.0005344913806766272,-0.0004581354442052543,-0.0009926267666742206
1761314929479267300,0.671267333984375,-0.00007635590736754239,-0.0004581354442052543,-0.0009926267666742206
1761314929498188800,0.690188720703125,0.0005344913806766272,-0.0004581354442052543,-0.0009926267666742206
1761314929517110300,0.7091103515625,-0.00007635590736754239,-0.0004581354442052543,-0.0009926267666742206
1761314929536031700,0.72803173828125,-0.00007635590736754239,0.00015271181473508477,-0.0009926267666742206
1761314929554953200,0.746953125,0.0005344913806766272,0.00015271181473508477,-0.0009926267666742206
1761314929573874700,0.765874755859375,0.0005344913806766272,-0.0004581354442052543,-0.0009926267666742206
1761314929592796000,0.7847958984375,0.0005344913806766272,-0.0004581354442052543,-0.0009926267666742206
1761314929611717600,0.803717529296875,-0.00007635590736754239,0.00015271181473508477,-0.0016034740256145597
1761314929630639000,0.82263916015625,0.0005344913806766272,0.00015271181473508477,-0.0009926267666742206
1761314929649560300,0.841560302734375,0.0005344913806766272,-0.0004581354442052543,-0.0016034740256145597
1761314929668481800,0.860481689453125,-0.00007635590736754239,-0.0004581354442052543,-0.0009926267666742206
1761314929687403300,0.8794033203125,0.0005344913806766272,0.00015271181473508477,-0.00038177953683771193
1761314929706324700,0.89832470703125,0.0005344913806766272,-0.0004581354442052543,-0.00038177953683771193
1761314929725246200,0.91724609375,0.0005344913806766272,0.00015271181473508477,-0.0009926267666742206
1761314929744167700,0.936167724609375,0.0005344913806766272,0.00015271181473508477,-0.0009926267666742206
1761314929763089200,0.955089111328125,-0.00007635590736754239,-0.0004581354442052543,-0.0009926267666742206
1761314929782010600,0.9740107421875,-0.00007635590736754239,-0.0010689827613532543,-0.0009926267666742206
1761314929800932000,0.99293212890625,0.0005344913806766272,-0.0010689827613532543,-0.0016034740256145597
1761314929819853600,1.011853515625,0.0005344913806766272,-0.0004581354442052543,-0.00038177953683771193
1761314929838775000,1.030775146484375,0.0005344913806766272,-0.0004581354442052543,-0.0009926267666742206
1761314929857696500,1.049696533203125,-0.00007635590736754239,-0.0004581354442052543,-0.00038177953683771193
1761314929876618000,1.068617919921875,0.0005344913806766272,-0.0004581354442052543,-0.0009926267666742206
1761314929895539500,1.08753955078125,0.0005344913806766272,0.00015271181473508477,-0.0009926267666742206
1761314929914461000,1.1064609375,0.0005344913806766272,0.00015271181473508477,-0.0009926267666742206
1761314929933382400,1.12538232421875,0.0005344913806766272,-0.0010689827613532543,-0.0009926267666742206
1761314929952303900,1.144303955078125,-0.00007635590736754239,-0.0004581354442052543,-0.0009926267666742206
1761314929971225300,1.163225341796875,-0.00007635590736754239,-0.0010689827613532543,-0.0009926267666742206
1761314929990146800,1.182146728515625,0.0005344913806766272,-0.0004581354442052543,-0.0009926267666742206
1761314930009068300,1.201068359375,0.0005344913806766272,-0.0004581354442052543,-0.00038177953683771193
1761314930027989800,1.21998974609375,-0.00007635590736754239,0.00015271181473508477,-0.00038177953683771193
1761314930046911200,1.2389111328125,0.0005344913806766272,-0.0010689827613532543,-0.00038177953683771193
1761314930065832700,1.257832763671875,0.0005344913806766272,-0.0010689827613532543,-0.0009926267666742206
1761314930084754200,1.276754150390625,0.0005344913806766272,0.00015271181473508477,-0.0016034740256145597
1761314930103675600,1.295675537109375,0.0005344913806766272,0.0007635590736754239,-0.0016034740256145597
1761314930122597000,1.31459716796875,0.0005344913806766272,-0.0004581354442052543,-0.0016034740256145597
1761314930141518600,1.3335185546875,-0.00007635590736754239,0.00015271181473508477,-0.0009926267666742206
1761314930160439800,1.352439697265625,0.0005344913806766272,0.00015271181473508477,-0.0016034740256145597
1761314930179361300,1.371361328125,0.0011453386396169662,-0.0004581354442052543,-0.0009926267666742206
1761314930198282800,1.39028271484375,0.0005344913806766272,-0.0010689827613532543,-0.0016034740256145597
1761314930217204500,1.40920458984375,0.0005344913806766272,-0.0004581354442052543,-0.0009926267666742206
1761314930236125700,1.428125732421875,0.0005344913806766272,-0.0004581354442052543,-0.0009926267666742206
1761314930255047200,1.447047119140625,0.0005344913806766272,-0.0004581354442052543,-0.00038177953683771193
1761314930273968600,1.46596875,0.0005344913806766272,0.00015271181473508477,-0.0009926267666742206
1761314930292890000,1.48489013671875,0.0005344913806766272,-0.0010689827613532543,-0.00038177953683771193
1761314930311811600,1.5038115234375,0.0005344913806766272,-0.0010689827613532543,-0.0009926267666742206
1761314930330733000,1.522733154296875,0.0005344913806766272,-0.0004581354442052543,-0.0009926267666742206
1761314930349654500,1.541654541015625,0.0005344913806766272,-0.0004581354442052543,-0.0009926267666742206
1761314930368576000,1.560575927734375,-0.00007635590736754239,0.00015271181473508477,-0.00038177953683771193
1761314930387497500,1.57949755859375,-0.00007635590736754239,-0.0010689827613532543,-0.0009926267666742206
1761314930406419000,1.5984189453125,-0.00007635590736754239,-0.0004581354442052543,-0.0009926267666742206
1761314930425340400,1.61734033203125,-0.00007635590736754239,-0.0004581354442052543,-0.0009926267666742206
1761314930444262000,1.636261962890625,0.0005344913806766272,0.00015271181473508477,-0.0009926267666742206
1761314930463183400,1.655183349609375,-0.00007635590736754239,0.00015271181473508477,-0.0009926267666742206
1761314930482104800,1.674104736328125,0.0005344913806766272,-0.0004581354442052543,-0.0009926267666742206
1761314930501026300,1.6930263671875,0.0005344913806766272,-0.0004581354442052543,-0.0009926267666742206
1761314930519947800,1.71194775390625,0.0005344913806766272,-0.0004581354442052543,-0.0009926267666742206
1761314930538869200,1.730869140625,0.0005344913806766272,-0.0004581354442052543,-0.0009926267666742206
1761314930557790700,1.749790771484375,0.0005344913806766272,-0.0004581354442052543,-0.0009926267666742206
1761314930576712200,1.768712158203125,0.0011453386396169662,0.00015271181473508477,-0.0016034740256145597
1761314930595633700,1.787633544921875,-0.00007635590736754239,-0.0004581354442052543,-0.00038177953683771193
1761314930614555100,1.80655517578125,0.0005344913806766272,-0.0004581354442052543,-0.0009926267666742206
1761314930633476600,1.8254765625,0.0005344913806766272,-0.0004581354442052543,-0.00038177953683771193
1761314930652398000,1.844398193359375,-0.00007635590736754239,-0.0004581354442052543,-0.0009926267666742206
1761314930671319600,1.863319580078125,-0.000687203137204051,-0.0010689827613532543,-0.0009926267666742206
1761314930690241000,1.882240966796875,-0.00007635590736754239,0.00015271181473508477,-0.0009926267666742206
1761314930709162500,1.90116259765625,-0.00007635590736754239,-0.0004581354442052543,-0.0009926267666742206
1761314930728084000,1.920083984375,0.0005344913806766272,0.00015271181473508477,-0.00038177953683771193
1761314930747005400,1.93900537109375,-0.000687203137204051,0.030695075169205666,0.010002624243497849
1761314930765927000,1.957927001953125,0.0011453386396169662,-0.04993676394224167,-0.018707197159528732
1761314930784848400,1.976848388671875,0.0005344913806766272,0.029473381116986275,0.010002624243497849
1761314930803769600,1.99576953125,0.0011453386396169662,-0.01572931744158268,-0.0064902519807219505
1761314930822691000,2.014691162109375,-0.00007635590736754239,0.0050394898280501366,0.0008399150101467967
1761314930841612800,2.03361279296875,0.0005344913806766272,0.00015271181473508477,-0.00038177953683771193
1761314930860534300,2.0525341796875,0.0005344913806766272,-0.005344913341104984,-0.0028251686599105597
1761314930879455500,2.07145556640625,-0.00007635590736754239,0.004428642801940441,0.0008399150101467967
1761314930898377000,2.090376953125,-0.00007635590736754239,-0.0065666078589856625,-0.0028251686599105597
1761314930917298400,2.10929833984375,-0.00007635590736754239,0.0038177953101694584,0.0008399150101467967
1761314930936220000,2.128219970703125,0.0005344913806766272,-0.004734066314995289,-0.0028251686599105597
1761314930955141400,2.147141357421875,0.0005344913806766272,0.00259610079228878,0.00022906772210262716
1761314930974062800,2.166062744140625,0.0005344913806766272,-0.0022906772792339325,-0.0016034740256145597
1761314930992984300,2.184984375,0.0005344913806766272,0.0007635590736754239,-0.00038177953683771193
1761314931011905800,2.20390576171875,0.0005344913806766272,-0.0016798300202935934,-0.0016034740256145597
1761314931030827300,2.2228271484375,0.0005344913806766272,0.0007635590736754239,-0.0009926267666742206
1761314931049748700,2.241748779296875,-0.00007635590736754239,-0.0004581354442052543,-0.0009926267666742206
1761314931068670200,2.260670166015625,0.0005344913806766272,0.00015271181473508477,-0.0009926267666742206
1761314931087591700,2.279591796875,0.0011453386396169662,-0.0010689827613532543,-0.0009926267666742206
1761314931106513200,2.29851318359375,-0.00007635590736754239,-0.0010689827613532543,-0.0009926267666742206
1761314931125434600,2.3174345703125,0.0005344913806766272,-0.0004581354442052543,-0.0009926267666742206
1761314931144356000,2.336356201171875,0.0005344913806766272,-0.0004581354442052543,-0.0016034740256145597
1761314931163277600,2.355277587890625,-0.00007635590736754239,0.00015271181473508477,-0.0016034740256145597
1761314931182199000,2.374198974609375,0.0005344913806766272,-0.0010689827613532543,-0.00038177953683771193
1761314931201120500,2.39312060546875,0.0005344913806766272,-0.0004581354442052543,-0.00038177953683771193
1761314931220042000,2.4120419921875,-0.00007635590736754239,-0.0004581354442052543,-0.0009926267666742206
1761314931238963500,2.43096337890625,0.0005344913806766272,0.00015271181473508477,-0.0009926267666742206
1761314931257885000,2.449885009765625,0.0005344913806766272,-0.0004581354442052543,-0.00038177953683771193
1761314931276806400,2.468806396484375,-0.00007635590736754239,-0.0004581354442052543,-0.0009926267666742206
1761314931295727900,2.487727783203125,-0.00007635590736754239,-0.0004581354442052543,-0.0016034740256145597
1761314931314649300,2.5066494140625,0.0005344913806766272,0.00015271181473508477,-0.0009926267666742206
1761314931333570800,2.52557080078125,-0.00007635590736754239,-0.0004581354442052543,-0.0016034740256145597
1761314931352492300,2.5444921875,0.0005344913806766272,-0.0004581354442052543,-0.0009926267666742206
1761314931371413800,2.563413818359375,-0.00007635590736754239,-0.0010689827613532543,-0.0009926267666742206
1761314931390335200,2.582335205078125,0.0005344913806766272,0.00015271181473508477,-0.0022143214009702206
1761314931409256700,2.601256591796875,0.0011453386396169662,-0.0004581354442052543,-0.0016034740256145597
1761314931428178200,2.62017822265625,0.0005344913806766272,0.00015271181473508477,-0.00038177953683771193
1761314931447099600,2.639099609375,0.0005344913806766272,-0.0004581354442052543,-0.0009926267666742206
1761314931466021000,2.658021240234375,-0.00007635590736754239,0.00015271181473508477,-0.0009926267666742206
1761314931484942600,2.676942626953125,-0.00007635590736754239,-0.0004581354442052543,-0.0009926267666742206
1761314931503864000,2.695864013671875,0.0005344913806766272,-0.0004581354442052543,-0.00038177953683771193
1761314931522785500,2.71478564453125,-0.00007635590736754239,0.00015271181473508477,-0.0009926267666742206
1761314931541707000,2.73370703125,-0.00007635590736754239,-0.0004581354442052543,-0.0009926267666742206
1761314931560628500,2.75262841796875,0.0005344913806766272,-0.0004581354442052543,-0.0009926267666742206
1761314931579549700,2.7715498046875,0.0011453386396169662,-0.0004581354442052543,-0.00038177953683771193
1761314931598471200,2.79047119140625,-0.00007635590736754239,0.00015271181473508477,-0.0009926267666742206
1761314931617393000,2.809392822265625,0.0005344913806766272,-0.0004581354442052543,-0.0016034740256145597
1761314931636314400,2.828314453125,-0.00007635590736754239,0.00015271181473508477,-0.00038177953683771193
1761314931655235600,2.847235595703125,0.0005344913806766272,0.00015271181473508477,-0.00038177953683771193
1761314931674157000,2.866156982421875,-0.000687203137204051,0.00015271181473508477,-0.0009926267666742206
1761314931693078500,2.88507861328125,-0.00007635590736754239,-0.0004581354442052543,-0.0009926267666742206
1761314931712000000,2.904,0.0005344913806766272,-0.0004581354442052543,-0.0016034740256145597
1761314931730921500,2.92292138671875,0.0005344913806766272,-0.0004581354442052543,-0.00038177953683771193
1761314931749843000,2.941843017578125,0.0005344913806766272,-0.0004581354442052543,-0.0009926267666742206
1761314931768764400,2.960764404296875,-0.00007635590736754239,-0.0010689827613532543,-0.00038177953683771193
1761314931787686000,2.979685791015625,0.0005344913806766272,-0.0004581354442052543,-0.0016034740256145597
1761314931806607400,2.998607421875,-0.00007635590736754239,-0.0004581354442052543,-0.0009926267666742206
1761314931825528800,3.01752880859375,0.0005344913806766272,0.00015271181473508477,-0.0009926267666742206
1761314931844450300,3.0364501953125,-0.00007635590736754239,-0.0004581354442052543,-0.0009926267666742206
1761314931863371800,3.055371826171875,-0.00007635590736754239,-0.0004581354442052543,-0.0009926267666742206
1761314931882293200,3.074293212890625,0.0005344913806766272,-0.0004581354442052543,-0.00038177953683771193
1761314931901214700,3.093214599609375,-0.00007635590736754239,0.0007635590736754239,-0.0009926267666742206
1761314931920136200,3.11213623046875,0.0005344913806766272,0.00015271181473508477,-0.00038177953683771193
1761314931939057700,3.1310576171875,-0.00007635590736754239,-0.0010689827613532543,-0.00038177953683771193
1761314931957979100,3.149979248046875,-0.00007635590736754239,-0.0010689827613532543,-0.0009926267666742206
1761314931976900600,3.168900634765625,-0.00007635590736754239,-0.0004581354442052543,-0.0009926267666742206
1761314931995822000,3.187822021484375,0.0011453386396169662,-0.0004581354442052543,-0.0016034740256145597
1761314932014743600,3.20674365234375,0.0005344913806766272,-0.0004581354442052543,-0.0009926267666742206
1761314932033665000,3.2256650390625,0.0005344913806766272,-0.0004581354442052543,-0.00038177953683771193
1761314932052586500,3.24458642578125,-0.00007635590736754239,-0.0004581354442052543,-0.0009926267666742206
1761314932071508000,3.263508056640625,0.0005344913806766272,-0.0010689827613532543,-0.0016034740256145597
1761314932090429400,3.282429443359375,0.0005344913806766272,-0.0004581354442052543,-0.0009926267666742206
1761314932109351000,3.301350830078125,0.0005344913806766272,-0.0004581354442052543,-0.0009926267666742206
1761314932128272400,3.3202724609375,0.0005344913806766272,-0.0004581354442052543,-0.0009926267666742206
1761314932147193900,3.33919384765625,-0.00007635590736754239,0.00015271181473508477,-0.0009926267666742206
1761314932166115300,3.358115234375,-0.00007635590736754239,-0.0010689827613532543,-0.0009926267666742206
1761314932185036800,3.377036865234375,-0.00007635590736754239,-0.0010689827613532543,-0.0009926267666742206
1761314932203958300,3.395958251953125,0.0005344913806766272,0.00015271181473508477,-0.0009926267666742206
1761314932222879700,3.414879638671875,0.0005344913806766272,0.00015271181473508477,-0.0016034740256145597
1761314932241801200,3.43380126953125,0.0005344913806766272,-0.0004581354442052543,-0.00038177953683771193
1761314932260722700,3.45272265625,0.0005344913806766272,-0.0004581354442052543,-0.0009926267666742206
1761314932279644200,3.47164404296875,-0.00007635590736754239,-0.0004581354442052543,-0.0009926267666742206
1761314932298565600,3.490565673828125,0.0005344913806766272,0.00015271181473508477,-0.0016034740256145597
1761314932317487000,3.509487060546875,-0.00007635590736754239,0.00015271181473508477,-0.0009926267666742206
1761314932336408600,3.52840869140625,0.0005344913806766272,-0.0004581354442052543,-0.0009926267666742206
1761314932355330000,3.547330078125,0.0011453386396169662,-0.0004581354442052543,-0.0009926267666742206
1761314932374251500,3.56625146484375,0.0005344913806766272,0.00015271181473508477,-0.00038177953683771193
1761314932393173000,3.585173095703125,0.0005344913806766272,-0.0004581354442052543,-0.00038177953683771193
1761314932412094500,3.604094482421875,-0.00007635590736754239,0.00015271181473508477,-0.0009926267666742206
1761314932431016000,3.623015869140625,0.0005344913806766272,-0.0010689827613532543,-0.00038177953683771193
1761314932449937200,3.641937255859375,-0.00007635590736754239,-0.0010689827613532543,-0.0009926267666742206
1761314932468859000,3.66085888671875,-0.00007635590736754239,-0.0004581354442052543,-0.0016034740256145597
1761314932487780400,3.6797802734375,0.0005344913806766272,-0.0004581354442052543,-0.0016034740256145597
1761314932506701800,3.698701904296875,0.0005344913806766272,-0.0004581354442052543,-0.0009926267666742206
1761314932525623000,3.717623046875,0.0005344913806766272,0.00015271181473508477,-0.0016034740256145597
1761314932544544500,3.73654443359375,0.0005344913806766272,-0.0010689827613532543,-0.0009926267666742206
1761314932563466000,3.755466064453125,0.0011453386396169662,-0.0004581354442052543,-0.0009926267666742206
1761314932582387500,3.774387451171875,0.0011453386396169662,-0.0004581354442052543,-0.0009926267666742206
1761314932601309000,3.793308837890625,-0.00007635590736754239,-0.0004581354442052543,-0.0009926267666742206
1761314932620230400,3.81223046875,-0.00007635590736754239,-0.0004581354442052543,-0.0009926267666742206
1761314932639151900,3.83115185546875,-0.00007635590736754239,-0.0004581354442052543,-0.0009926267666742206
1761314932658073300,3.8500732421875,0.0005344913806766272,-0.0004581354442052543,-0.0009926267666742206
1761314932676994800,3.868994873046875,0.0005344913806766272,0.00015271181473508477,-0.0009926267666742206
1761314932695916300,3.887916259765625,0.0005344913806766272,-0.0004581354442052543,-0.0009926267666742206
1761314932714837800,3.906837646484375,0.0005344913806766272,0.00015271181473508477,-0.0009926267666742206
1761314932733759200,3.92575927734375,-0.00007635590736754239,-0.0004581354442052543,-0.0009926267666742206
1761314932752680700,3.9446806640625,0.0005344913806766272,-0.0010689827613532543,-0.0009926267666742206
1761314932771602200,3.963602294921875,-0.000687203137204051,-0.0010689827613532543,-0.00038177953683771193
1761314932790523600,3.982523681640625,-0.00007635590736754239,-0.0004581354442052543,-0.0009926267666742206
1761314932809445000,4.001445068359375,-0.00007635590736754239,-0.0004581354442052543,-0.0009926267666742206
1761314932828366600,4.02036669921875,0.0005344913806766272,-0.0010689827613532543,-0.0016034740256145597
1761314932847288000,4.0392880859375,0.0005344913806766272,-0.0004581354442052543,-0.00038177953683771193
1761314932866209500,4.05820947265625,-0.00007635590736754239,-0.0004581354442052543,-0.00038177953683771193
1761314932885131000,4.077131103515625,0.0005344913806766272,-0.0004581354442052543,-0.00038177953683771193
1761314932904052500,4.096052490234375,0.0005344913806766272,-0.0004581354442052543,-0.00038177953683771193
1761314932922974000,4.114973876953125,-0.00007635590736754239,0.00015271181473508477,-0.0016034740256145597
1761314932941895400,4.1338955078125,-0.00007635590736754239,-0.0010689827613532543,-0.0009926267666742206
1761314932960817000,4.15281689453125,-0.00007635590736754239,0.0007635590736754239,-0.0009926267666742206
1761314932979738400,4.17173828125,-0.00007635590736754239,0.00015271181473508477,-0.0009926267666742206
1761314932998659800,4.190659912109375,-0.00007635590736754239,0.00015271181473508477,-0.0009926267666742206
1761314933017581300,4.209581298828125,0.0005344913806766272,-0.0004581354442052543,-0.0016034740256145597
1761314933036502800,4.228502685546875,0.0005344913806766272,-0.0010689827613532543,-0.0009926267666742206
1761314933055424300,4.24742431640625,-0.00007635590736754239,-0.0004581354442052543,-0.00038177953683771193
1761314933074345700,4.266345703125,0.0005344913806766272,0.00015271181473508477,-0.0009926267666742206
1761314933093267200,4.28526708984375,0.0005344913806766272,-0.0004581354442052543,-0.0016034740256145597
1761314933112188700,4.304188720703125,0.0005344913806766272,-0.0004581354442052543,-0.0009926267666742206
1761314933131110100,4.323110107421875,0.0005344913806766272,-0.0004581354442052543,-0.0009926267666742206
1761314933150031600,4.342031494140625,0.0005344913806766272,-0.0010689827613532543,-0.00038177953683771193
1761314933168953000,4.360953125,0.0005344913806766272,-0.0004581354442052543,-0.0009926267666742206
1761314933187874600,4.37987451171875,-0.00007635590736754239,-0.0004581354442052543,-0.00038177953683771193
1761314933206796000,4.398796142578125,0.0005344913806766272,-0.0010689827613532543,-0.0009926267666742206
1761314933225717500,4.417717529296875,0.0005344913806766272,-0.0004581354442052543,-0.0009926267666742206
1761314933244639000,4.436638916015625,0.0005344913806766272,-0.0010689827613532543,-0.0009926267666742206
1761314933263560400,4.455560546875,0.0005344913806766272,-0.0004581354442052543,-0.0009926267666742206
1761314933282482000,4.47448193359375,-0.00007635590736754239,0.00015271181473508477,-0.0009926267666742206
1761314933301403400,4.4934033203125,0.0005344913806766272,-0.0004581354442052543,-0.0009926267666742206
1761314933320324900,4.512324951171875,0.0005344913806766272,-0.0004581354442052543,-0.0009926267666742206
1761314933339246300,4.531246337890625,0.0005344913806766272,-0.0010689827613532543,-0.00038177953683771193
1761314933358167800,4.550167724609375,0.0005344913806766272,-0.0004581354442052543,-0.00038177953683771193
1761314933377089300,4.56908935546875,0.0005344913806766272,-0.0004581354442052543,-0.0009926267666742206
1761314933396010800,4.5880107421875,-0.00007635590736754239,-0.0004581354442052543,-0.0009926267666742206
1761314933414932200,4.60693212890625,-0.00007635590736754239,-0.0004581354442052543,-0.00038177953683771193
1761314933433853700,4.625853759765625,0.0005344913806766272,0.00015271181473508477,-0.00038177953683771193
1761314933452775000,4.64477490234375,0.0005344913806766272,-0.0004581354442052543,-0.00038177953683771193
1761314933471696400,4.6636962890625,0.0005344913806766272,-0.0004581354442052543,-0.0016034740256145597
1761314933490618000,4.6826181640625,0.0005344913806766272,-0.0004581354442052543,-0.0016034740256145597
1761314933509539600,4.70153955078125,-0.00007635590736754239,0.00015271181473508477,-0.0016034740256145597
1761314933528460800,4.720460693359375,-0.00007635590736754239,-0.0004581354442052543,-0.0009926267666742206
1761314933547382300,4.73938232421875,0.0005344913806766272,0.0007635590736754239,-0.0009926267666742206
1761314933566303700,4.7583037109375,0.0005344913806766272,-0.0004581354442052543,-0.00038177953683771193
1761314933585225200,4.77722509765625,0.0005344913806766272,-0.0004581354442052543,-0.0016034740256145597
1761314933604146700,4.796146728515625,0.0005344913806766272,-0.0004581354442052543,-0.00038177953683771193
1761314933623068200,4.815068115234375,-0.00007635590736754239,-0.0004581354442052543,-0.0009926267666742206
1761314933641989600,4.83398974609375,-0.00007635590736754239,0.00015271181473508477,-0.0009926267666742206
1761314933660911000,4.8529111328125,-0.00007635590736754239,0.00015271181473508477,-0.0009926267666742206
1761314933679832600,4.87183251953125,0.0005344913806766272,-0.0010689827613532543,-0.0009926267666742206
1761314933698754000,4.890754150390625,0.0005344913806766272,-0.0004581354442052543,-0.0009926267666742206
1761314933717675500,4.909675537109375,0.0005344913806766272,-0.0004581354442052543,-0.00038177953683771193
1761314933736597000,4.928596923828125,0.0005344913806766272,-0.0004581354442052543,-0.00038177953683771193
1761314933755518500,4.9475185546875,0.0005344913806766272,0.00015271181473508477,-0.0016034740256145597
1761314933774440000,4.96643994140625,0.0005344913806766272,-0.0004581354442052543,-0.0009926267666742206
1761314933793361400,4.985361328125,-0.00007635590736754239,-0.0004581354442052543,-0.0009926267666742206
1761314933812283000,5.004282958984375,0.0005344913806766272,0.00015271181473508477,-0.0016034740256145597
1761314933831204400,5.023204345703125,-0.00007635590736754239,-0.0010689827613532543,-0.00038177953683771193
1761314933850125800,5.042125732421875,0.0005344913806766272,-0.0010689827613532543,-0.0009926267666742206
1761314933869047300,5.06104736328125,-0.00007635590736754239,0.00015271181473508477,-0.0009926267666742206
1761314933887968800,5.07996875,0.0005344913806766272,-0.0010689827613532543,-0.0009926267666742206
1761314933906890200,5.09889013671875,0.0005344913806766272,-0.0004581354442052543,-0.00038177953683771193
1761314933925811700,5.117811767578125,0.0011453386396169662,-0.0010689827613532543,-0.0009926267666742206
1761314933944733200,5.136733154296875,-0.00007635590736754239,-0.0004581354442052543,-0.0009926267666742206
1761314933963654700,5.155654541015625,-0.00007635590736754239,-0.0010689827613532543,-0.0009926267666742206
1761314933982576000,5.174576171875,0.0005344913806766272,0.00015271181473508477,-0.0009926267666742206
1761314934001497600,5.19349755859375,0.0005344913806766272,-0.0004581354442052543,-0.0009926267666742206
1761314934020419000,5.212419189453125,0.0005344913806766272,-0.0004581354442052543,-0.0009926267666742206
1761314934039340500,5.231340576171875,-0.00007635590736754239,-0.0010689827613532543,-0.0009926267666742206
1761314934058262000,5.250261962890625,-0.00007635590736754239,-0.0010689827613532543,-0.0009926267666742206
1761314934077183500,5.26918359375,0.0005344913806766272,0.00015271181473508477,-0.00038177953683771193
1761314934096105000,5.28810498046875,-0.00007635590736754239,-0.0010689827613532543,-0.0009926267666742206
1761314934115026400,5.3070263671875,-0.00007635590736754239,0.00015271181473508477,-0.0009926267666742206
1761314934133948000,5.325947998046875,0.0005344913806766272,-0.0004581354442052543,-0.0016034740256145597
1761314934152869400,5.344869384765625,0.0005344913806766272,-0.0004581354442052543,-0.00038177953683771193
1761314934171790800,5.363790771484375,0.0005344913806766272,-0.0004581354442052543,-0.00038177953683771193
1761314934190712300,5.38271240234375,0.0005344913806766272,-0.0004581354442052543,-0.0009926267666742206
1761314934209633800,5.4016337890625,0.0005344913806766272,0.00015271181473508477,-0.0009926267666742206
1761314934228555300,5.42055517578125,0.0005344913806766272,0.00015271181473508477,-0.0009926267666742206
1761314934247476700,5.439476806640625,-0.00007635590736754239,-0.0010689827613532543,-0.0009926267666742206
1761314934266398200,5.458398193359375,0.0005344913806766272,0.00015271181473508477,-0.0009926267666742206
1761314934285319700,5.477319580078125,0.0005344913806766272,0.00015271181473508477,-0.00038177953683771193
1761314934304241200,5.4962412109375,-0.00007635590736754239,0.00015271181473508477,-0.0009926267666742206
1761314934323162600,5.51516259765625,0.0005344913806766272,-0.0010689827613532543,-0.0016034740256145597
1761314934342084000,5.534083984375,-0.00007635590736754239,-0.0004581354442052543,-0.0009926267666742206
1761314934361005600,5.553005615234375,-0.00007635590736754239,-0.0004581354442052543,-0.00038177953683771193
1761314934379927000,5.571927001953125,0.0005344913806766272,0.00015271181473508477,-0.0009926267666742206
1761314934398848500,5.5908486328125,0.0005344913806766272,-0.0004581354442052543,-0.0009926267666742206
1761314934417770000,5.60977001953125,-0.00007635590736754239,-0.0004581354442052543,-0.0009926267666742206
1761314934436691500,5.62869140625,-0.00007635590736754239,-0.0010689827613532543,-0.0009926267666742206
1761314934455613000,5.647613037109375,0.0011453386396169662,0.00015271181473508477,-0.00038177953683771193
1761314934474534400,5.666534423828125,0.0005344913806766272,0.00015271181473508477,-0.00038177953683771193
1761314934493456000,5.685455810546875,0.0005344913806766272,0.00015271181473508477,-0.00038177953683771193
1761314934512377300,5.70437744140625,-0.00007635590736754239,-0.0004581354442052543,-0.0016034740256145597
1761314934531298800,5.723298828125,0.0005344913806766272,-0.0004581354442052543,-0.0016034740256145597
1761314934550220300,5.74222021484375,0.0005344913806766272,-0.0004581354442052543,-0.00038177953683771193
1761314934569141800,5.761141845703125,0.0005344913806766272,-0.0004581354442052543,-0.0009926267666742206
1761314934588063200,5.780063232421875,-0.00007635590736754239,-0.0004581354442052543,-0.0016034740256145597
1761314934606984700,5.798984619140625,0.0005344913806766272,0.00015271181473508477,-0.00038177953683771193
1761314934625906200,5.81790625,0.0011453386396169662,-0.0004581354442052543,-0.00038177953683771193
1761314934644827600,5.83682763671875,-0.00007635590736754239,-0.0004581354442052543,-0.0009926267666742206
1761314934663749000,5.8557490234375,-0.00007635590736754239,-0.0004581354442052543,-0.0009926267666742206
1761314934682670600,5.874670654296875,0.0005344913806766272,-0.0004581354442052543,0.00022906772210262716
1761314934701592000,5.893592041015625,-0.00007635590736754239,-0.0004581354442052543,-0.0009926267666742206
1761314934720513500,5.912513427734375,0.0005344913806766272,-0.0010689827613532543,-0.0009926267666742206
1761314934739435000,5.93143505859375,0.0005344913806766272,0.00015271181473508477,-0.0009926267666742206
1761314934758356500,5.9503564453125,0.0005344913806766272,-0.0004581354442052543,-0.0009926267666742206
1761314934777278000,5.96927783203125,-0.000687203137204051,-0.0004581354442052543,-0.00038177953683771193
1761314934796199700,5.98819970703125,-0.00007635590736754239,0.00015271181473508477,-0.0009926267666742206
1761314934815121000,6.007120849609375,0.0005344913806766272,-0.0004581354442052543,-0.00038177953683771193
1761314934834042400,6.02604248046875,0.0005344913806766272,-0.0004581354442052543,-0.00038177953683771193
1761314934852964000,6.044964111328125,-0.00007635590736754239,0.00015271181473508477,-0.0009926267666742206
1761314934871885600,6.063885498046875,0.0005344913806766272,0.00015271181473508477,-0.00038177953683771193
1761314934890806800,6.082806884765625,0.0005344913806766272,-0.0010689827613532543,-0.0009926267666742206
1761314934909728300,6.101728271484375,0.0005344913806766272,-0.0004581354442052543,-0.00038177953683771193
1761314934928650000,6.12064990234375,0.0005344913806766272,0.00015271181473508477,-0.0009926267666742206
1761314934947571500,6.139571533203125,0.0005344913806766272,-0.0004581354442052543,-0.0009926267666742206
1761314934966493000,6.158492919921875,0.0005344913806766272,0.00015271181473508477,-0.00038177953683771193
1761314934985414400,6.177414306640625,0.0005344913806766272,-0.0010689827613532543,-0.0009926267666742206
1761314935004335900,6.1963359375,-0.00007635590736754239,0.00015271181473508477,-0.0009926267666742206
1761314935023257300,6.21525732421875,0.0005344913806766272,-0.0004581354442052543,-0.0009926267666742206
1761314935042178800,6.2341787109375,-0.00007635590736754239,-0.0010689827613532543,-0.0009926267666742206
1761314935061100300,6.253100341796875,-0.00007635590736754239,0.00015271181473508477,-0.0009926267666742206
1761314935080021800,6.272021728515625,0.0005344913806766272,-0.0004581354442052543,-0.0009926267666742206
1761314935098943200,6.290943115234375,0.0005344913806766272,-0.0004581354442052543,-0.0009926267666742206
1761314935117864700,6.30986474609375,0.0005344913806766272,-0.0010689827613532543,-0.0009926267666742206
1761314935136786200,6.3287861328125,-0.00007635590736754239,-0.0004581354442052543,-0.0009926267666742206
1761314935155707600,6.347707763671875,0.0005344913806766272,-0.0004581354442052543,-0.0009926267666742206
1761314935174629000,6.366629150390625,0.0011453386396169662,0.00015271181473508477,-0.0009926267666742206
1761314935193550600,6.385550537109375,-0.00007635590736754239,0.00015271181473508477,-0.0009926267666742206
1761314935212472000,6.40447216796875,0.0005344913806766272,-0.0004581354442052543,-0.0009926267666742206
1761314935231393500,6.4233935546875,0.0005344913806766272,-0.0004581354442052543,-0.0009926267666742206
1761314935250315000,6.44231494140625,0.0005344913806766272,0.00015271181473508477,-0.00038177953683771193
1761314935269236500,6.461236572265625,-0.00007635590736754239,-0.0004581354442052543,-0.0009926267666742206
1761314935288158000,6.480157958984375,0.0005344913806766272,-0.0004581354442052543,-0.00038177953683771193
1761314935307079400,6.499079345703125,-0.00007635590736754239,-0.0004581354442052543,-0.0009926267666742206
1761314935326001000,6.5180009765625,0.0005344913806766272,-0.0004581354442052543,-0.0009926267666742206
1761314935344922400,6.53692236328125,0.0005344913806766272,-0.0004581354442052543,-0.0016034740256145597
1761314935363843800,6.55584375,0.0005344913806766272,0.00015271181473508477,-0.0009926267666742206
1761314935382765300,6.574765380859375,0.0005344913806766272,-0.0004581354442052543,-0.00038177953683771193
1761314935401686800,6.593686767578125,0.0005344913806766272,0.00015271181473508477,-0.00038177953683771193
1761314935420608300,6.612608154296875,0.0005344913806766272,0.00015271181473508477,-0.0009926267666742206
1761314935439529700,6.63152978515625,0.0011453386396169662,-0.0004581354442052543,-0.0009926267666742206
1761314935458451200,6.650451171875,0.0005344913806766272,0.00015271181473508477,-0.0016034740256145597
1761314935477372700,6.66937255859375,0.0005344913806766272,-0.0004581354442052543,-0.0009926267666742206
1761314935496294100,6.688294189453125,-0.00007635590736754239,-0.0010689827613532543,-0.00038177953683771193
1761314935515215600,6.707215576171875,0.0011453386396169662,-0.0004581354442052543,-0.0009926267666742206
1761314935534137000,6.72613720703125,0.0005344913806766272,-0.0004581354442052543,-0.00038177953683771193
1761314935553058600,6.74505859375,0.0011453386396169662,-0.0010689827613532543,-0.0009926267666742206
1761314935571980000,6.76397998046875,0.0005344913806766272,0.00015271181473508477,-0.0009926267666742206
1761314935590901500,6.782901611328125,0.0005344913806766272,-0.0010689827613532543,-0.0009926267666742206
1761314935609823000,6.801822998046875,0.0005344913806766272,-0.0004581354442052543,-0.0016034740256145597
1761314935628744400,6.820744384765625,0.0005344913806766272,0.00015271181473508477,-0.0009926267666742206
1761314935647666000,6.839666015625,0.0005344913806766272,-0.0004581354442052543,-0.0016034740256145597
1761314935666587400,6.85858740234375,0.0005344913806766272,0.00015271181473508477,-0.0009926267666742206
1761314935685508900,6.8775087890625,0.0005344913806766272,-0.0004581354442052543,-0.0009926267666742206
1761314935704430300,6.896430419921875,-0.00007635590736754239,-0.0004581354442052543,-0.0016034740256145597
1761314935723351800,6.915351806640625,0.0005344913806766272,0.00015271181473508477,-0.0009926267666742206
1761314935742273300,6.934273193359375,-0.00007635590736754239,-0.0010689827613532543,-0.0009926267666742206
1761314935761194800,6.95319482421875,0.0005344913806766272,-0.0004581354442052543,-0.0009926267666742206
1761314935780116200,6.9721162109375,-0.00007635590736754239,-0.0004581354442052543,-0.00038177953683771193
1761314935799037700,6.99103759765625,0.0005344913806766272,-0.0004581354442052543,-0.0016034740256145597
1761314935817959200,7.009959228515625,-0.00007635590736754239,-0.0004581354442052543,-0.00038177953683771193
1761314935836880600,7.028880615234375,-0.00007635590736754239,-0.0004581354442052543,-0.0009926267666742206
1761314935855802000,7.047802001953125,0.0005344913806766272,0.00015271181473508477,-0.0009926267666742206
1761314935874723600,7.0667236328125,-0.00007635590736754239,-0.0004581354442052543,-0.0009926267666742206
1761314935893645300,7.085645263671875,0.0005344913806766272,-0.0004581354442052543,-0.00038177953683771193
1761314935912566500,7.10456640625,0.0005344913806766272,-0.0004581354442052543,-0.0009926267666742206
1761314935931488000,7.123488037109375,0.0005344913806766272,0.00015271181473508477,-0.0016034740256145597
1761314935950409700,7.14240966796875,0.0005344913806766272,-0.0004581354442052543,-0.00038177953683771193
1761314935969331200,7.161331298828125,0.0005344913806766272,-0.0004581354442052543,-0.0009926267666742206
1761314935988252700,7.180252685546875,0.0011453386396169662,-0.0010689827613532543,-0.0009926267666742206
1761314936007174100,7.199174072265625,0.0005344913806766272,-0.0004581354442052543,-0.0009926267666742206
1761314936026095600,7.218095703125,-0.00007635590736754239,-0.0004581354442052543,-0.0009926267666742206
1761314936045017000,7.23701708984375,-0.00007635590736754239,-0.0010689827613532543,-0.0009926267666742206
1761314936063938600,7.2559384765625,0.0005344913806766272,0.00015271181473508477,-0.00038177953683771193
1761314936082860000,7.274860107421875,0.0005344913806766272,-0.0004581354442052543,-0.0022143214009702206
1761314936101781500,7.293781494140625,-0.00007635590736754239,-0.0004581354442052543,-0.0009926267666742206
1761314936120703000,7.312702880859375,-0.00007635590736754239,-0.0004581354442052543,-0.0009926267666742206
1761314936139624400,7.33162451171875,0.0005344913806766272,-0.0004581354442052543,-0.0009926267666742206
1761314936158546000,7.3505458984375,0.0005344913806766272,-0.0010689827613532543,-0.0016034740256145597
1761314936177467400,7.36946728515625,0.0005344913806766272,0.00015271181473508477,-0.0009926267666742206
1761314936196388900,7.388388916015625,-0.00007635590736754239,-0.0004581354442052543,-0.00038177953683771193
1761314936215310300,7.407310302734375,-0.00007635590736754239,-0.0004581354442052543,-0.00038177953683771193
1761314936234231800,7.426231689453125,-0.00007635590736754239,-0.0004581354442052543,-0.0009926267666742206
1761314936253153300,7.4451533203125,-0.00007635590736754239,-0.0010689827613532543,-0.0016034740256145597
1761314936272074800,7.46407470703125,0.0011453386396169662,-0.0004581354442052543,-0.0016034740256145597
1761314936290996200,7.482996337890625,0.0011453386396169662,-0.0010689827613532543,-0.0009926267666742206
1761314936309917700,7.501917724609375,-0.00007635590736754239,-0.0004581354442052543,-0.0009926267666742206
1761314936328839200,7.520839111328125,0.0005344913806766272,-0.0004581354442052543,-0.0009926267666742206
1761314936347760600,7.5397607421875,0.0005344913806766272,-0.0004581354442052543,-0.0009926267666742206
1761314936366682000,7.55868212890625,-0.00007635590736754239,-0.0010689827613532543,-0.00038177953683771193
1761314936385603600,7.577603515625,-0.00007635590736754239,-0.0004581354442052543,-0.0009926267666742206
1761314936404525000,7.596525146484375,-0.00007635590736754239,-0.0004581354442052543,-0.00038177953683771193
1761314936423446500,7.615446533203125,0.0005344913806766272,0.00015271181473508477,-0.0009926267666742206
1761314936442368000,7.634367919921875,0.0005344913806766272,-0.0004581354442052543,-0.00038177953683771193
1761314936461289500,7.65328955078125,-0.00007635590736754239,-0.0004581354442052543,-0.0016034740256145597
1761314936480211000,7.6722109375,0.0005344913806766272,-0.0004581354442052543,-0.0009926267666742206
1761314936499132400,7.69113232421875,0.0005344913806766272,0.00015271181473508477,-0.0009926267666742206
1761314936518054000,7.710053955078125,0.0005344913806766272,-0.0004581354442052543,-0.0009926267666742206
1761314936536975400,7.728975341796875,0.0005344913806766272,-0.0004581354442052543,-0.00038177953683771193
1761314936555896800,7.747896728515625,0.0005344913806766272,0.00015271181473508477,-0.0016034740256145597
1761314936574818300,7.766818359375,0.0005344913806766272,-0.0004581354442052543,-0.0009926267666742206
1761314936593739800,7.78573974609375,0.0005344913806766272,-0.0004581354442052543,-0.00038177953683771193
1761314936612661200,7.8046611328125,-0.00007635590736754239,0.00015271181473508477,-0.00038177953683771193
1761314936631582700,7.823582763671875,0.0005344913806766272,-0.0004581354442052543,-0.00038177953683771193
1761314936650504200,7.842504150390625,0.0005344913806766272,0.00015271181473508477,-0.00038177953683771193
1761314936669425700,7.86142578125,0.0005344913806766272,-0.0010689827613532543,-0.0009926267666742206
1761314936688347100,7.88034716796875,0.0011453386396169662,-0.0004581354442052543,-0.00038177953683771193
1761314936707268600,7.8992685546875,-0.00007635590736754239,-0.0004581354442052543,-0.0009926267666742206
1761314936726190000,7.918190185546875,0.0005344913806766272,-0.0004581354442052543,-0.0009926267666742206
1761314936745111600,7.937111572265625,-0.00007635590736754239,-0.0004581354442052543,-0.00038177953683771193
1761314936764033000,7.956032958984375,-0.00007635590736754239,-0.0010689827613532543,-0.0009926267666742206
1761314936782954500,7.97495458984375,0.0011453386396169662,0.00015271181473508477,-0.0009926267666742206
1761314936801876000,7.9938759765625,0.0005344913806766272,-0.0004581354442052543,-0.00038177953683771193
1761314936820797400,8.01279736328125,0.0005344913806766272,-0.0004581354442052543,-0.0016034740256145597
1761314936839719000,8.031718994140626,-0.00007635590736754239,-0.0004581354442052543,-0.0009926267666742206
1761314936858640400,8.050640380859376,-0.00007635590736754239,-0.0004581354442052543,-0.00038177953683771193
1761314936877561900,8.069561767578126,0.0005344913806766272,0.00015271181473508477,-0.0009926267666742206
1761314936896483300,8.0884833984375,-0.00007635590736754239,-0.0004581354442052543,-0.0016034740256145597
1761314936915404800,8.10740478515625,0.0005344913806766272,0.00015271181473508477,-0.00038177953683771193
1761314936934326300,8.126326171875,0.0005344913806766272,0.00015271181473508477,-0.0009926267666742206
1761314936953247700,8.145247802734374,-0.00007635590736754239,-0.0004581354442052543,-0.0016034740256145597
1761314936972169500,8.16416943359375,0.0005344913806766272,-0.0004581354442052543,-0.0009926267666742206
1761314936991090700,8.183090576171875,-0.00007635590736754239,-0.0004581354442052543,-0.0009926267666742206
1761314937010012200,8.20201220703125,0.0005344913806766272,0.00015271181473508477,-0.0009926267666742206
1761314937028934000,8.220933837890625,0.0005344913806766272,0.00015271181473508477,-0.00038177953683771193
1761314937047855400,8.23985546875,0.0005344913806766272,-0.0004581354442052543,-0.0009926267666742206
1761314937066776600,8.258776611328125,0.0005344913806766272,0.00015271181473508477,-0.0009926267666742206
1761314937085698300,8.2776982421875,0.0005344913806766272,-0.0004581354442052543,-0.0009926267666742206
1761314937104619800,8.296619873046875,0.0005344913806766272,-0.0004581354442052543,-0.0016034740256145597
1761314937123541200,8.315541259765626,-0.00007635590736754239,-0.0010689827613532543,-0.0009926267666742206
1761314937142462700,8.334462646484376,0.0005344913806766272,-0.0004581354442052543,-0.0009926267666742206
1761314937161384200,8.35338427734375,0.0011453386396169662,0.00015271181473508477,-0.0009926267666742206
1761314937180305700,8.3723056640625,0.0005344913806766272,-0.0004581354442052543,-0.0009926267666742206
1761314937199227100,8.39122705078125,-0.00007635590736754239,-0.0004581354442052543,-0.00038177953683771193
1761314937218148600,8.410148681640624,-0.00007635590736754239,-0.0004581354442052543,-0.0009926267666742206
1761314937237070000,8.429070068359374,0.0005344913806766272,-0.0004581354442052543,-0.00038177953683771193
1761314937255991600,8.447991455078125,0.0005344913806766272,-0.0004581354442052543,-0.0009926267666742206
1761314937274913000,8.4669130859375,0.0005344913806766272,-0.0004581354442052543,-0.0009926267666742206
1761314937293834500,8.48583447265625,-0.00007635590736754239,0.00015271181473508477,-0.0009926267666742206
1761314937312756000,8.504755859375,0.0005344913806766272,-0.0004581354442052543,-0.0009926267666742206
1761314937331677400,8.523677490234375,0.0005344913806766272,0.00015271181473508477,-0.0009926267666742206
1761314937350599000,8.542598876953125,0.0005344913806766272,-0.0004581354442052543,-0.00038177953683771193
1761314937369520400,8.561520263671875,-0.00007635590736754239,-0.0010689827613532543,-0.0009926267666742206
1761314937388441900,8.58044189453125,0.0005344913806766272,-0.0004581354442052543,-0.00038177953683771193
1761314937407363300,8.59936328125,0.0005344913806766272,-0.0010689827613532543,-0.00038177953683771193
1761314937426284800,8.618284912109376,0.0005344913806766272,0.00015271181473508477,-0.0009926267666742206
1761314937445206300,8.637206298828126,0.0005344913806766272,-0.0004581354442052543,-0.00038177953683771193
1761314937464127700,8.656127685546876,0.0005344913806766272,0.00015271181473508477,-0.00038177953683771193
1761314937483049200,8.67504931640625,-0.00007635590736754239,-0.0004581354442052543,0.00022906772210262716
1761314937501970700,8.693970703125,-0.00007635590736754239,-0.0004581354442052543,-0.0009926267666742206
1761314937520892200,8.71289208984375,-0.00007635590736754239,0.00015271181473508477,-0.00038177953683771193
1761314937539813600,8.731813720703125,0.0005344913806766272,0.00015271181473508477,-0.0009926267666742206
1761314937558735000,8.750735107421875,0.0005344913806766272,-0.0004581354442052543,-0.0009926267666742206
1761314937577656600,8.769656494140625,-0.000687203137204051,0.00015271181473508477,-0.0009926267666742206
1761314937596578000,8.788578125,0.0005344913806766272,0.00015271181473508477,-0.00038177953683771193
1761314937615499500,8.80749951171875,0.0005344913806766272,-0.0004581354442052543,-0.0009926267666742206
1761314937634421000,8.8264208984375,-0.00007635590736754239,-0.0004581354442052543,-0.00038177953683771193
1761314937653342500,8.845342529296875,-0.00007635590736754239,-0.0004581354442052543,-0.0009926267666742206
1761314937672264000,8.864263916015625,0.0005344913806766272,-0.0004581354442052543,-0.0009926267666742206
1761314937691185400,8.883185302734375,-0.00007635590736754239,-0.0004581354442052543,-0.0009926267666742206
1761314937710107000,8.90210693359375,0.0005344913806766272,-0.0004581354442052543,-0.00038177953683771193
1761314937729028400,8.9210283203125,0.0005344913806766272,-0.0004581354442052543,-0.0009926267666742206
1761314937747949800,8.93994970703125,0.0005344913806766272,-0.0004581354442052543,-0.0009926267666742206
1761314937766871300,8.958871337890624,-0.00007635590736754239,-0.0010689827613532543,-0.0009926267666742206
1761314937785792800,8.977792724609374,0.0005344913806766272,-0.0004581354442052543,-0.0009926267666742206
1761314937804714200,8.99671435546875,0.0005344913806766272,0.00015271181473508477,-0.00038177953683771193
1761314937823635700,9.0156357421875,0.0005344913806766272,-0.0004581354442052543,-0.0009926267666742206
1761314937842557200,9.03455712890625,-0.00007635590736754239,-0.0010689827613532543,-0.0009926267666742206
1761314937861478700,9.053478759765625,0.0005344913806766272,-0.0004581354442052543,-0.0009926267666742206
1761314937880400100,9.072400146484375,-0.00007635590736754239,-0.0004581354442052543,-0.0009926267666742206
1761314937899321600,9.091321533203125,-0.00007635590736754239,-0.0010689827613532543,-0.0009926267666742206
1761314937918243000,9.1102431640625,0.0005344913806766272,-0.0004581354442052543,-0.0009926267666742206
1761314937937164500,9.12916455078125,-0.00007635590736754239,-0.0004581354442052543,-0.0009926267666742206
1761314937956086000,9.1480859375,-0.00007635590736754239,-0.0004581354442052543,-0.0009926267666742206
1761314937975007500,9.167007568359375,0.0005344913806766272,-0.0010689827613532543,-0.00038177953683771193
1761314937993929000,9.185928955078126,0.0005344913806766272,-0.0004581354442052543,-0.0009926267666742206
1761314938012850400,9.204850341796876,-0.00007635590736754239,-0.0004581354442052543,-0.0009926267666742206
1761314938031772000,9.22377197265625,0.0005344913806766272,-0.0004581354442052543,-0.0009926267666742206
1761314938050693400,9.242693359375,-0.00007635590736754239,-0.0004581354442052543,-0.0009926267666742206
1761314938069614800,9.26161474609375,0.0005344913806766272,0.0007635590736754239,-0.0009926267666742206
1761314938088536300,9.280536376953124,0.0005344913806766272,-0.0004581354442052543,-0.0009926267666742206
1761314938107457800,9.299457763671874,0.0005344913806766272,-0.0004581354442052543,-0.0009926267666742206
1761314938126379300,9.318379150390625,0.0005344913806766272,-0.0004581354442052543,-0.0009926267666742206
1761314938145300700,9.33730078125,0.0005344913806766272,-0.0004581354442052543,-0.0009926267666742206
1761314938164222200,9.35622216796875,0.0005344913806766272,-0.0010689827613532543,-0.0009926267666742206
1761314938183143700,9.375143798828125,-0.00007635590736754239,-0.0016798300202935934,-0.0009926267666742206
1761314938202065200,9.394065185546875,0.0005344913806766272,-0.0004581354442052543,-0.0009926267666742206
1761314938220986600,9.412986572265625,-0.00007635590736754239,0.00015271181473508477,-0.0009926267666742206
1761314938239908000,9.431908203125,-0.00007635590736754239,0.00015271181473508477,-0.0009926267666742206
1761314938258829600,9.45082958984375,-0.00007635590736754239,-0.0004581354442052543,-0.0009926267666742206
1761314938277751000,9.4697509765625,-0.00007635590736754239,-0.0010689827613532543,-0.0009926267666742206
1761314938296672500,9.488672607421876,0.0005344913806766272,-0.0004581354442052543,-0.00038177953683771193
1761314938315594000,9.507593994140626,-0.00007635590736754239,0.00015271181473508477,-0.0009926267666742206
1761314938334515500,9.526515380859376,0.0005344913806766272,-0.0004581354442052543,-0.0016034740256145597
1761314938353437000,9.54543701171875,-0.00007635590736754239,-0.0004581354442052543,-0.0009926267666742206
1761314938372358400,9.5643583984375,0.0005344913806766272,-0.0004581354442052543,-0.0016034740256145597
1761314938391279900,9.58327978515625,0.0005344913806766272,-0.0004581354442052543,-0.0009926267666742206
1761314938410201300,9.602201416015625,0.0005344913806766272,-0.0004581354442052543,0.00022906772210262716
1761314938429122800,9.621122802734375,0.0005344913806766272,-0.0004581354442052543,-0.0009926267666742206
1761314938448044300,9.640044189453125,-0.00007635590736754239,0.00015271181473508477,-0.0009926267666742206
1761314938466965800,9.6589658203125,0.0005344913806766272,-0.0004581354442052543,-0.0016034740256145597
1761314938485887200,9.67788720703125,0.0011453386396169662,-0.0004581354442052543,-0.0009926267666742206
1761314938504808700,9.69680859375,-0.00007635590736754239,-0.0004581354442052543,-0.0009926267666742206
1761314938523730200,9.715730224609375,0.0005344913806766272,-0.0004581354442052543,-0.0009926267666742206
1761314938542651600,9.734651611328125,0.0005344913806766272,-0.0004581354442052543,-0.00038177953683771193
1761314938561573000,9.753572998046875,-0.00007635590736754239,-0.0004581354442052543,-0.0009926267666742206
1761314938580494600,9.77249462890625,-0.00007635590736754239,-0.0004581354442052543,-0.00038177953683771193
1761314938599416000,9.791416015625,0.0005344913806766272,-0.0004581354442052543,-0.0009926267666742206
1761314938618337500,9.810337646484374,0.0005344913806766272,0.00015271181473508477,-0.00038177953683771193
1761314938637259000,9.829259033203124,-0.00007635590736754239,0.00015271181473508477,-0.00038177953683771193
1761314938656180500,9.848180419921874,-0.00007635590736754239,-0.0004581354442052543,-0.00038177953683771193
1761314938675102000,9.86710205078125,0.0005344913806766272,-0.0010689827613532543,-0.0009926267666742206
1761314938694023400,9.8860234375,0.0005344913806766272,-0.0010689827613532543,-0.0009926267666742206
1761314938712945000,9.90494482421875,-0.00007635590736754239,-0.0004581354442052543,-0.0009926267666742206
1761314938731866400,9.923866455078125,-0.00007635590736754239,-0.0004581354442052543,-0.0009926267666742206
1761314938750787800,9.942787841796875,-0.00007635590736754239,-0.0004581354442052543,-0.0016034740256145597
1761314938769709300,9.961709228515625,0.0005344913806766272,-0.0004581354442052543,-0.0009926267666742206
1761314938788630800,9.980630859375,0.0005344913806766272,0.00015271181473508477,-0.0009926267666742206
1761314938807552300,9.99955224609375,0.0005344913806766272,-0.0004581354442052543,-0.00038177953683771193
1761314938826473700,10.0184736328125,0.0005344913806766272,-0.0010689827613532543,-0.0009926267666742206
1761314938845395200,10.037395263671876,0.0005344913806766272,-0.0004581354442052543,-0.00038177953683771193
1761314938864316700,10.056316650390626,0.0005344913806766272,-0.0004581354442052543,-0.0009926267666742206
1761314938883238100,10.075238037109376,0.0005344913806766272,-0.0004581354442052543,-0.0009926267666742206
1761314938902159600,10.09415966796875,0.0005344913806766272,-0.0010689827613532543,-0.0016034740256145597
1761314938921081000,10.1130810546875,0.0005344913806766272,-0.0004581354442052543,-0.00038177953683771193
1761314938940002600,10.13200244140625,0.0005344913806766272,-0.0004581354442052543,-0.0009926267666742206
1761314938958924000,10.150924072265624,-0.00007635590736754239,0.00015271181473508477,-0.00038177953683771193
1761314938977845500,10.169845458984375,0.0005344913806766272,-0.0004581354442052543,-0.0009926267666742206
1761314938996767000,10.18876708984375,-0.00007635590736754239,0.00015271181473508477,-0.0016034740256145597
1761314939015688400,10.2076884765625,0.0005344913806766272,-0.0004581354442052543,-0.0009926267666742206
1761314939034610000,10.22660986328125,-0.00007635590736754239,-0.0004581354442052543,-0.00038177953683771193
1761314939053531400,10.245531494140625,0.0005344913806766272,0.00015271181473508477,-0.0016034740256145597
1761314939072452900,10.264452880859375,-0.00007635590736754239,-0.0004581354442052543,-0.00038177953683771193
1761314939091374300,10.283374267578125,-0.00007635590736754239,-0.0004581354442052543,0.00022906772210262716
1761314939110295800,10.3022958984375,0.0005344913806766272,-0.0010689827613532543,-0.0016034740256145597
1761314939129217300,10.32121728515625,-0.00007635590736754239,-0.0004581354442052543,-0.0009926267666742206
1761314939148138800,10.340138671875,-0.00007635590736754239,-0.0004581354442052543,-0.0009926267666742206
1761314939167060200,10.359060302734376,-0.00007635590736754239,0.00015271181473508477,-0.00038177953683771193
1761314939185981700,10.377981689453126,0.0011453386396169662,-0.0004581354442052543,-0.0009926267666742206
1761314939204903200,10.396903076171874,0.0005344913806766272,-0.0004581354442052543,-0.0009926267666742206
1761314939223824600,10.41582470703125,0.0005344913806766272,-0.0004581354442052543,-0.00038177953683771193
1761314939242746000,10.43474609375,0.0005344913806766272,-0.0010689827613532543,-0.0009926267666742206
1761314939261667600,10.45366748046875,-0.00007635590736754239,-0.0004581354442052543,-0.0009926267666742206
1761314939280589000,10.472589111328125,0.0005344913806766272,-0.0010689827613532543,-0.0016034740256145597
1761314939299510500,10.491510498046875,-0.00007635590736754239,-0.0004581354442052543,-0.0009926267666742206
1761314939318432000,10.510431884765625,-0.00007635590736754239,0.00015271181473508477,-0.0009926267666742206
1761314939337353500,10.529353515625,0.0005344913806766272,0.00015271181473508477,-0.0009926267666742206
1761314939356275000,10.54827490234375,0.0005344913806766272,0.00015271181473508477,-0.0009926267666742206
1761314939375196400,10.567196533203125,0.0005344913806766272,-0.0010689827613532543,-0.0009926267666742206
1761314939394118000,10.586117919921875,0.0011453386396169662,-0.0004581354442052543,-0.0009926267666742206
1761314939413039400,10.605039306640625,0.0011453386396169662,-0.0010689827613532543,-0.0016034740256145597
1761314939431960800,10.6239609375,-0.00007635590736754239,-0.0004581354442052543,-0.0009926267666742206
1761314939450882000,10.642882080078126,0.0005344913806766272,-0.0010689827613532543,-0.0009926267666742206
1761314939469803500,10.661803466796876,0.0005344913806766272,0.00015271181473508477,-0.0009926267666742206
1761314939488725200,10.680725341796874,-0.00007635590736754239,-0.0004581354442052543,-0.00038177953683771193
1761314939507646700,10.699646728515624,0.0005344913806766272,-0.0004581354442052543,-0.0009926267666742206
1761314939526568000,10.71856787109375,0.0005344913806766272,0.00015271181473508477,-0.0009926267666742206
1761314939545489400,10.737489501953124,-0.00007635590736754239,0.00015271181473508477,-0.0009926267666742206
1761314939564411000,10.756410888671875,0.0005344913806766272,-0.0004581354442052543,-0.0009926267666742206
1761314939583332400,10.775332275390625,0.0005344913806766272,0.00015271181473508477,-0.0009926267666742206
1761314939602253800,10.79425390625,0.0005344913806766272,-0.0010689827613532543,-0.0009926267666742206
1761314939621175300,10.81317529296875,-0.00007635590736754239,0.00015271181473508477,-0.0009926267666742206
1761314939640096800,10.8320966796875,0.0005344913806766272,-0.0004581354442052543,-0.0016034740256145597
1761314939659018200,10.851018310546875,0.0005344913806766272,0.00015271181473508477,-0.0016034740256145597
1761314939677939700,10.869939697265625,-0.00007635590736754239,-0.0004581354442052543,-0.0009926267666742206
1761314939696861200,10.888861083984375,0.0005344913806766272,-0.0004581354442052543,-0.0009926267666742206
1761314939715782700,10.90778271484375,-0.00007635590736754239,0.00015271181473508477,-0.0009926267666742206
1761314939734704000,10.9267041015625,-0.00007635590736754239,-0.0004581354442052543,-0.00038177953683771193
1761314939753625600,10.94562548828125,0.0005344913806766272,-0.0004581354442052543,-0.00038177953683771193
1761314939772547000,10.964547119140626,0.0005344913806766272,-0.0004581354442052543,-0.0016034740256145597
1761314939791468500,10.983468505859374,0.0005344913806766272,-0.0010689827613532543,-0.0009926267666742206
1761314939810390000,11.00239013671875,0.0005344913806766272,0.00015271181473508477,-0.00038177953683771193
1761314939829311500,11.0213115234375,-0.00007635590736754239,-0.0010689827613532543,-0.0009926267666742206
1761314939848233000,11.04023291015625,0.0005344913806766272,-0.0010689827613532543,-0.0009926267666742206
1761314939867154400,11.059154541015625,-0.00007635590736754239,-0.0004581354442052543,-0.0016034740256145597
1761314939886076000,11.078075927734375,-0.00007635590736754239,-0.0004581354442052543,-0.0009926267666742206
1761314939904997400,11.096997314453125,0.0005344913806766272,0.00015271181473508477,-0.0009926267666742206
1761314939923918800,11.1159189453125,-0.00007635590736754239,-0.0010689827613532543,-0.0016034740256145597
1761314939942840300,11.13484033203125,0.0005344913806766272,-0.0004581354442052543,-0.0009926267666742206
1761314939961761800,11.15376171875,0.0005344913806766272,-0.0004581354442052543,-0.00038177953683771193
1761314939980683300,11.172683349609375,0.0005344913806766272,-0.0004581354442052543,-0.00038177953683771193
1761314939999604700,11.191604736328125,-0.00007635590736754239,0.00015271181473508477,-0.0009926267666742206
1761314940018526200,11.210526123046876,0.0005344913806766272,-0.0004581354442052543,-0.0009926267666742206
1761314940037447700,11.22944775390625,0.0005344913806766272,0.00015271181473508477,-0.0009926267666742206
1761314940056369200,11.248369140625,0.0005344913806766272,0.00015271181473508477,-0.0009926267666742206
1761314940075290600,11.26729052734375,0.0005344913806766272,-0.0004581354442052543,-0.0009926267666742206
1761314940094212000,11.286212158203124,0.0005344913806766272,0.00015271181473508477,-0.0009926267666742206
1761314940113133600,11.305133544921874,0.0005344913806766272,-0.0010689827613532543,-0.0009926267666742206
1761314940132055000,11.324054931640624,0.0005344913806766272,-0.0010689827613532543,-0.00038177953683771193
1761314940150976500,11.3429765625,0.0005344913806766272,-0.0004581354442052543,-0.0009926267666742206
1761314940169898000,11.36189794921875,0.0005344913806766272,-0.0004581354442052543,-0.0009926267666742206
1761314940188819500,11.3808193359375,0.0005344913806766272,-0.0004581354442052543,-0.0016034740256145597
1761314940207741000,11.399740966796875,-0.00007635590736754239,-0.0004581354442052543,-0.0009926267666742206
1761314940226662100,11.418662109375,0.0005344913806766272,-0.0004581354442052543,-0.0009926267666742206
1761314940245584000,11.437583984375,-0.00007635590736754239,-0.0010689827613532543,-0.0009926267666742206
1761314940264505300,11.45650537109375,-0.00007635590736754239,-0.0004581354442052543,-0.0009926267666742206
1761314940283426800,11.4754267578125,-0.00007635590736754239,-0.0004581354442052543,-0.00038177953683771193
1761314940302348000,11.49434814453125,-0.00007635590736754239,-0.0010689827613532543,-0.0016034740256145597
1761314940321269500,11.51326953125,0.0005344913806766272,-0.0004581354442052543,-0.00038177953683771193
1761314940340191000,11.53219091796875,0.0005344913806766272,-0.0004581354442052543,-0.0009926267666742206
1761314940359112400,11.551112548828126,0.0005344913806766272,-0.0004581354442052543,-0.0016034740256145597
1761314940378034000,11.570033935546874,0.0005344913806766272,-0.0004581354442052543,-0.0009926267666742206
1761314940396955400,11.588955322265624,-0.00007635590736754239,-0.0010689827613532543,-0.0009926267666742206
1761314940415876900,11.607876953125,0.0005344913806766272,-0.0010689827613532543,-0.0016034740256145597
1761314940434798300,11.62679833984375,0.0005344913806766272,-0.0004581354442052543,-0.0016034740256145597
1761314940453719800,11.6457197265625,-0.00007635590736754239,0.00015271181473508477,-0.0009926267666742206
1761314940472641300,11.664641357421875,-0.00007635590736754239,-0.0004581354442052543,-0.0009926267666742206
1761314940491562800,11.683562744140625,-0.00007635590736754239,-0.0004581354442052543,-0.0009926267666742206
1761314940510484200,11.702484130859375,0.0005344913806766272,-0.0004581354442052543,-0.00038177953683771193
1761314940529405700,11.72140576171875,-0.00007635590736754239,-0.0010689827613532543,-0.0016034740256145597
1761314940548327200,11.7403271484375,-0.00007635590736754239,0.00015271181473508477,-0.0009926267666742206
1761314940567248600,11.75924853515625,0.0005344913806766272,-0.0010689827613532543,-0.0009926267666742206
1761314940586170000,11.778170166015625,-0.00007635590736754239,0.00015271181473508477,-0.0016034740256145597
1761314940605091600,11.797091552734376,0.0005344913806766272,0.00015271181473508477,-0.0009926267666742206
1761314940624013000,11.816012939453126,-0.00007635590736754239,-0.0004581354442052543,-0.0009926267666742206
1761314940642934500,11.8349345703125,-0.00007635590736754239,0.00015271181473508477,-0.0016034740256145597
1761314940661856000,11.85385595703125,0.0005344913806766272,-0.0004581354442052543,-0.0009926267666742206
1761314940680777500,11.872777587890624,0.0005344913806766272,-0.0010689827613532543,-0.0009926267666742206
1761314940699699000,11.891698974609374,0.0005344913806766272,-0.0004581354442052543,-0.0009926267666742206
1761314940718620400,11.910620361328125,-0.00007635590736754239,-0.0010689827613532543,-0.0009926267666742206
1761314940737542000,11.9295419921875,0.0005344913806766272,-0.0004581354442052543,-0.00038177953683771193
1761314940756463400,11.94846337890625,0.0005344913806766272,-0.0010689827613532543,-0.0009926267666742206
1761314940775384800,11.967384765625,0.0005344913806766272,-0.0004581354442052543,-0.0009926267666742206
1761314940794306000,11.98630615234375,-0.00007635590736754239,-0.0004581354442052543,-0.0009926267666742206
1761314940813227500,12.0052275390625,-0.000687203137204051,0.00015271181473508477,-0.0016034740256145597
1761314940832149000,12.02414892578125,0.0005344913806766272,-0.0004581354442052543,-0.0009926267666742206
1761314940851070500,12.043070556640625,-0.00007635590736754239,0.00015271181473508477,-0.0009926267666742206
1761314940869992000,12.061991943359375,-0.00007635590736754239,-0.0004581354442052543,-0.00038177953683771193
1761314940888913400,12.080913330078126,-0.00007635590736754239,-0.0004581354442052543,-0.0009926267666742206
1761314940907835000,12.0998349609375,0.0005344913806766272,-0.0004581354442052543,-0.0009926267666742206
1761314940926756400,12.11875634765625,-0.00007635590736754239,-0.0010689827613532543,-0.0009926267666742206
1761314940945677800,12.137677734375,-0.00007635590736754239,0.00015271181473508477,-0.0009926267666742206
1761314940964599300,12.156599365234374,0.0005344913806766272,-0.0004581354442052543,-0.0009926267666742206
1761314940983520800,12.175520751953124,-0.00007635590736754239,-0.0004581354442052543,-0.0009926267666742206
1761314941002442200,12.194442138671874,-0.00007635590736754239,-0.0004581354442052543,-0.00038177953683771193
1761314941021363700,12.21336376953125,0.0005344913806766272,-0.0004581354442052543,-0.0009926267666742206
1761314941040285200,12.23228515625,0.0005344913806766272,0.00015271181473508477,-0.0009926267666742206
1761314941059206700,12.25120654296875,0.0005344913806766272,-0.0004581354442052543,-0.0009926267666742206
1761314941078128000,12.270128173828125,-0.00007635590736754239,-0.0004581354442052543,-0.0009926267666742206
1761314941097049600,12.289049560546875,0.0005344913806766272,-0.0004581354442052543,-0.0009926267666742206
1761314941115971000,12.30797119140625,0.0005344913806766272,0.00015271181473508477,-0.00038177953683771193
1761314941134892500,12.326892578125,0.0005344913806766272,0.00015271181473508477,-0.0016034740256145597
1761314941153814000,12.34581396484375,-0.00007635590736754239,0.00015271181473508477,-0.0009926267666742206
1761314941172735500,12.364735595703126,0.0005344913806766272,-0.0004581354442052543,-0.0009926267666742206
1761314941191657000,12.383656982421876,-0.00007635590736754239,-0.0004581354442052543,-0.0009926267666742206
1761314941210578400,12.402578369140626,-0.00007635590736754239,-0.0004581354442052543,-0.0009926267666742206
1761314941229499600,12.421499755859376,0.0005344913806766272,-0.0010689827613532543,-0.0009926267666742206
1761314941248421000,12.440421142578124,0.0005344913806766272,-0.0004581354442052543,-0.0009926267666742206
1761314941267342600,12.459342529296874,0.0005344913806766272,0.00015271181473508477,-0.00038177953683771193
1761314941286264000,12.47826416015625,-0.00007635590736754239,0.00015271181473508477,-0.0009926267666742206
1761314941305185500,12.497185546875,0.0011453386396169662,-0.0010689827613532543,-0.0009926267666742206
1761314941324107000,12.51610693359375,0.0005344913806766272,0.00015271181473508477,-0.00038177953683771193
1761314941343028500,12.535028564453125,-0.00007635590736754239,-0.0004581354442052543,-0.0009926267666742206
1761314941361950000,12.553949951171875,0.0011453386396169662,0.00015271181473508477,-0.0009926267666742206
1761314941380871400,12.572871337890625,-0.00007635590736754239,-0.0004581354442052543,-0.0009926267666742206
1761314941399793000,12.59179296875,0.0005344913806766272,-0.0004581354442052543,-0.00038177953683771193
1761314941418714400,12.61071435546875,-0.00007635590736754239,-0.0004581354442052543,-0.0009926267666742206
1761314941437635800,12.6296357421875,-0.00007635590736754239,-0.0004581354442052543,-0.0009926267666742206
1761314941456557300,12.648557373046875,-0.00007635590736754239,0.00015271181473508477,-0.0009926267666742206
1761314941475478800,12.667478759765626,-0.00007635590736754239,-0.0004581354442052543,-0.0009926267666742206
1761314941494400300,12.686400146484376,-0.00007635590736754239,-0.0004581354442052543,-0.0009926267666742206
1761314941513321700,12.70532177734375,0.0005344913806766272,-0.0004581354442052543,-0.00038177953683771193
1761314941532243200,12.7242431640625,-0.00007635590736754239,-0.0004581354442052543,-0.0009926267666742206
1761314941551164700,12.74316455078125,-0.00007635590736754239,-0.0004581354442052543,-0.0009926267666742206
1761314941570086100,12.762086181640624,-0.00007635590736754239,-0.0004581354442052543,-0.0009926267666742206
1761314941589007400,12.78100732421875,0.0005344913806766272,-0.0010689827613532543,0.00022906772210262716
1761314941607928800,12.7999287109375,-0.00007635590736754239,-0.0004581354442052543,-0.0009926267666742206
1761314941626850300,12.818850341796875,-0.00007635590736754239,0.00015271181473508477,-0.0009926267666742206
1761314941645771800,12.837771728515625,0.0005344913806766272,-0.0004581354442052543,-0.00038177953683771193
1761314941664693200,12.856693359375,0.0005344913806766272,-0.0010689827613532543,-0.00038177953683771193
1761314941683614700,12.87561474609375,-0.00007635590736754239,-0.0010689827613532543,-0.0009926267666742206
1761314941702536200,12.8945361328125,-0.000687203137204051,-0.0004581354442052543,-0.0016034740256145597
1761314941721457700,12.913457763671875,0.0005344913806766272,-0.0010689827613532543,-0.0016034740256145597
1761314941740379100,12.932379150390625,-0.00007635590736754239,-0.0004581354442052543,-0.0009926267666742206
1761314941759300600,12.951300537109375,-0.00007635590736754239,-0.0004581354442052543,-0.00038177953683771193
1761314941778222000,12.97022216796875,0.0005344913806766272,-0.0004581354442052543,-0.0009926267666742206
1761314941797143600,12.9891435546875,0.0005344913806766272,-0.0004581354442052543,-0.0009926267666742206
1761314941816065000,13.00806494140625,0.0005344913806766272,0.00015271181473508477,-0.00038177953683771193
1761314941834986500,13.026986572265624,0.0005344913806766272,-0.0004581354442052543,-0.0009926267666742206
1761314941853908000,13.045907958984374,-0.00007635590736754239,-0.0004581354442052543,-0.0009926267666742206
1761314941872829400,13.064829345703124,-0.00007635590736754239,0.00015271181473508477,-0.0009926267666742206
1761314941891750700,13.083750732421874,0.0005344913806766272,-0.0004581354442052543,-0.0009926267666742206
1761314941910672100,13.102672119140625,0.0005344913806766272,-0.0010689827613532543,-0.0009926267666742206
1761314941929593600,13.121593505859375,0.0005344913806766272,-0.0004581354442052543,-0.0016034740256145597
1761314941948515000,13.14051513671875,-0.00007635590736754239,-0.0016798300202935934,-0.0009926267666742206
1761314941967436500,13.1594365234375,-0.00007635590736754239,-0.0010689827613532543,-0.0009926267666742206
1761314941986358000,13.17835791015625,-0.00007635590736754239,-0.0010689827613532543,-0.00038177953683771193
1761314942005279500,13.197279541015625,0.0005344913806766272,0.00015271181473508477,-0.0009926267666742206
1761314942024201000,13.216200927734375,-0.00007635590736754239,0.00015271181473508477,-0.00038177953683771193
1761314942043122400,13.235122314453125,0.0005344913806766272,-0.0004581354442052543,-0.0009926267666742206
1761314942062044000,13.2540439453125,0.0005344913806766272,-0.0004581354442052543,-0.0009926267666742206
1761314942080965400,13.27296533203125,-0.00007635590736754239,-0.0004581354442052543,-0.00038177953683771193
1761314942099886800,13.291886962890626,0.0005344913806766272,0.00015271181473508477,-0.0016034740256145597
1761314942118808300,13.310808349609376,0.0005344913806766272,-0.0004581354442052543,-0.0009926267666742206
1761314942137729800,13.329729736328124,-0.00007635590736754239,-0.0004581354442052543,-0.0009926267666742206
1761314942156651300,13.3486513671875,0.0005344913806766272,-0.0004581354442052543,-0.0009926267666742206
1761314942175572700,13.36757275390625,0.0005344913806766272,-0.0004581354442052543,-0.00038177953683771193
1761314942194494000,13.386493896484374,0.0005344913806766272,0.00015271181473508477,-0.0016034740256145597
1761314942213415400,13.40541552734375,-0.00007635590736754239,-0.0004581354442052543,-0.00038177953683771193
1761314942232337000,13.4243369140625,0.0005344913806766272,0.00015271181473508477,-0.0016034740256145597
1761314942251258400,13.44325830078125,0.0005344913806766272,0.00015271181473508477,-0.0009926267666742206
1761314942270179800,13.462179931640625,-0.00007635590736754239,-0.0004581354442052543,-0.0009926267666742206
1761314942289101300,13.481101318359375,0.0005344913806766272,0.00015271181473508477,-0.0009926267666742206
1761314942308022800,13.500022705078125,-0.00007635590736754239,-0.0004581354442052543,-0.0016034740256145597
1761314942326944300,13.5189443359375,-0.00007635590736754239,0.00015271181473508477,-0.0016034740256145597
1761314942345865700,13.53786572265625,0.0005344913806766272,-0.0004581354442052543,-0.0009926267666742206
1761314942374248000,13.566248046875,-0.00007635590736754239,-0.0010689827613532543,-0.00038177953683771193
1761314942393169400,13.58516943359375,0.0005344913806766272,0.0007635590736754239,-0.0016034740256145597
1761314942412091000,13.6040908203125,0.0005344913806766272,-0.0010689827613532543,-0.0009926267666742206
1761314942431012000,13.62301220703125,0.0005344913806766272,0.00015271181473508477,-0.0016034740256145597
1761314942449933600,13.64193359375,0.0005344913806766272,-0.0004581354442052543,-0.0009926267666742206
1761314942468855000,13.66085498046875,0.0005344913806766272,-0.0010689827613532543,-0.0009926267666742206
1761314942487776500,13.679776611328125,-0.00007635590736754239,-0.0010689827613532543,-0.0009926267666742206
1761314942506698000,13.698697998046875,0.0005344913806766272,-0.0004581354442052543,-0.00038177953683771193
1761314942525619500,13.717619384765625,0.0005344913806766272,-0.0010689827613532543,-0.00038177953683771193
1761314942544541000,13.736541015625,0.0005344913806766272,0.00015271181473508477,-0.0009926267666742206
1761314942563462400,13.75546240234375,-0.00007635590736754239,-0.0004581354442052543,-0.0009926267666742206
1761314942582383900,13.7743837890625,-0.00007635590736754239,0.00015271181473508477,-0.0009926267666742206
1761314942601305300,13.793305419921875,0.0005344913806766272,0.00015271181473508477,-0.0009926267666742206
1761314942620226800,13.812226806640625,0.0005344913806766272,-0.0004581354442052543,-0.0009926267666742206
1761314942639148300,13.831148193359375,0.0005344913806766272,0.00015271181473508477,-0.00038177953683771193
1761314942658069800,13.85006982421875,-0.00007635590736754239,-0.0004581354442052543,-0.0009926267666742206
1761314942676991200,13.8689912109375,0.0005344913806766272,-0.0010689827613532543,-0.00038177953683771193
1761314942695912700,13.88791259765625,0.0005344913806766272,-0.0004581354442052543,-0.0009926267666742206
1761314942714834000,13.906833984375,0.0005344913806766272,-0.0004581354442052543,-0.0009926267666742206
1761314942733755400,13.92575537109375,-0.000687203137204051,-0.0004581354442052543,-0.0009926267666742206
1761314942752676900,13.9446767578125,0.0005344913806766272,-0.0010689827613532543,-0.00038177953683771193
1761314942771598300,13.963598388671874,0.0005344913806766272,-0.0004581354442052543,-0.00038177953683771193
1761314942790519800,13.982519775390625,0.0005344913806766272,-0.0004581354442052543,-0.00038177953683771193
1761314942809441300,14.001441162109375,0.0005344913806766272,-0.0010689827613532543,-0.0016034740256145597
1761314942828362800,14.02036279296875,0.0005344913806766272,-0.0004581354442052543,-0.0009926267666742206
1761314942847284200,14.0392841796875,-0.00007635590736754239,-0.0004581354442052543,-0.0016034740256145597
1761314942866205700,14.058205810546875,0.0005344913806766272,0.00015271181473508477,-0.0009926267666742206
1761314942885127200,14.077127197265625,-0.00007635590736754239,-0.0004581354442052543,-0.00038177953683771193
1761314942904048600,14.096048583984375,0.0005344913806766272,0.0007635590736754239,-0.00038177953683771193
1761314942922969900,14.114969970703125,-0.004963133949786425,0.19806721806526184,0.07169819623231888
1761314942941891300,14.133891357421875,0.0029778804164379835,-0.06154286116361618,-0.024815669283270836
1761314942960812800,14.152812744140626,0.0011453386396169662,-0.03771981969475746,-0.015042114071547985
1761314942979734300,14.171734375,0.0029778804164379835,-0.11529742181301117,-0.04130854457616806
1761314942998655700,14.19065576171875,-0.000687203137204051,0.045355409383773804,0.014278554357588291
