time,seconds_elapsed,z,y,x
1761316345056563000,0.20656298828125,2.871387243270874,-7.5637125968933105,-5.907878875732422
1761316345084946400,0.234946533203125,2.909672260284424,-7.434499740600586,-5.737988471984863
1761316345103869000,0.253868896484375,2.8929226398468018,-7.377072334289551,-5.886343479156494
1761316345122791200,0.272791259765625,2.8522446155548096,-7.434499740600586,-5.972485542297363
1761316345141713700,0.291713623046875,2.854637384414673,-7.429714202880859,-5.910272121429443
1761316345160636000,0.310635986328125,3.022135019302368,-7.341179847717285,-5.929414749145508
1761316345179558400,0.329558349609375,2.7254250049591064,-6.9583282470703125,-6.5252275466918945
1761316345198480600,0.348480712890625,3.1417760848999023,-7.70967435836792,-6.324230194091797
1761316345217403100,0.367403076171875,3.115455150604248,-7.934599876403809,-5.7858452796936035
1761316345236325400,0.386325439453125,2.981456995010376,-8.104490280151367,-5.051248550415039
1761316345255248000,0.405247802734375,3.053241729736328,-7.8388872146606445,-5.426921844482422
1761316345274170400,0.42417041015625,3.043670415878296,-7.482356548309326,-5.8097734451293945
1761316345293092600,0.443092529296875,2.9838497638702393,-8.324629783630371,-6.2189459800720215
1761316345312015000,0.46201513671875,2.9455647468566895,-9.107083320617676,-6.238088607788086
1761316345330937300,0.480937255859375,2.7278177738189697,-8.293522834777832,-6.3840508460998535
1761316345349859800,0.49985986328125,2.7661030292510986,-8.190631866455078,-6.111268997192383
1761316345368782000,0.518781982421875,3.0077781677246094,-7.7838521003723145,-5.960521221160889
1761316345387704600,0.53770458984375,3.1417760848999023,-7.458428382873535,-5.467599868774414
1761316345406626800,0.556626708984375,3.177668571472168,-7.085147857666016,-5.608776092529297
1761316345425549300,0.57554931640625,3.091526746749878,-6.398407936096191,-6.051448345184326
1761316345444471800,0.594471923828125,2.9766714572906494,-5.917450428009033,-6.111268997192383
1761316345463394000,0.61339404296875,2.9551360607147217,-5.31685209274292,-5.793023586273193
1761316345482316500,0.632316650390625,2.9551360607147217,-4.914857864379883,-5.661418437957764
1761316345501238800,0.65123876953125,3.0317063331604004,-7.037291526794434,-5.752345561981201
1761316345520161300,0.670161376953125,3.16331148147583,-7.087540626525879,-5.807380676269531
1761316345539083500,0.68908349609375,3.187239646911621,-7.427321434020996,-6.0610198974609375
1761316345558006000,0.708006103515625,3.0891339778900146,-7.372286796569824,-6.245266914367676
1761316345576928500,0.726928466796875,3.074777126312256,-7.379465103149414,-6.2668023109436035
1761316345595850800,0.745850830078125,3.249453067779541,-7.288537979125977,-6.156732559204102
1761316345614773200,0.764773193359375,3.321237802505493,-7.015756130218506,-6.147161483764648
1761316345633695500,0.783695556640625,3.108276605606079,-7.082755088806152,-6.455835342407227
1761316345652618000,0.802617919921875,3.290131092071533,-7.214360237121582,-6.38883638381958
1761316345671540200,0.821540283203125,3.0939197540283203,-7.192824840545654,-6.034698486328125
1761316345690462700,0.840462646484375,3.0580272674560547,-7.015756130218506,-5.905486106872559
1761316345709385000,0.859385009765625,3.050848960876465,-6.946363925933838,-6.099305152893066
1761316345728307500,0.878307373046875,2.744567632675171,-7.03489875793457,-6.350551128387451
1761316345747230000,0.89722998046875,3.541377544403076,-7.171289443969727,-6.3601226806640625
1761316345766152200,0.916152099609375,3.105883836746216,-7.061219692230225,-6.295516490936279
1761316345785074700,0.93507470703125,3.1728827953338623,-7.101897716522217,-6.324230194091797
1761316345803997000,0.953996826171875,3.105883836746216,-7.128218650817871,-6.120840549468994
1761316345822919400,0.97291943359375,2.7014968395233154,-7.2095746994018555,-6.104090690612793
1761316345841841700,0.991841552734375,2.816352367401123,-7.302894592285156,-6.273981094360352
1761316345860764200,1.01076416015625,2.967100143432617,-7.221538543701172,-6.118447303771973
1761316345879686400,1.029686279296875,3.036491870880127,-7.240681171417236,-6.029912948608398
1761316345898609000,1.04860888671875,3.046063184738159,-7.156932353973389,-5.996413707733154
1761316345917531100,1.06753125,2.957528829574585,-7.061219692230225,-5.917450428009033
1761316345936453600,1.08645361328125,3.081955671310425,-7.18086051940918,-6.027520179748535
1761316345955376000,1.105376220703125,2.9001009464263916,-7.384250640869141,-6.118447303771973
1761316345974298400,1.12429833984375,2.806781053543091,-7.4225358963012695,-6.154339790344238
1761316345993220900,1.143220947265625,2.6703901290893555,-7.168896675109863,-5.972485542297363
1761316346012143000,1.16214306640625,2.469393014907837,-7.537391185760498,-5.907878875732422
1761316346031065600,1.181065673828125,2.337787628173828,-7.676175117492676,-5.927021503448486
1761316346049987800,1.19998779296875,2.390429735183716,-7.637889862060547,-5.931807518005371
1761316346068910300,1.218910400390625,2.280359983444214,-7.312466144561768,-5.879165172576904
1761316346087832800,1.237832763671875,1.6079767942428589,-6.754938125610352,-6.156732559204102
1761316346106755000,1.256755126953125,1.4787644147872925,-6.704689025878906,-6.3361945152282715
1761316346125677600,1.275677490234375,1.4476577043533325,-7.003791809082031,-6.305087566375732
1761316346144599800,1.294599853515625,1.5672988891601562,-7.915457248687744,-6.44387149810791
1761316346163522300,1.313522216796875,1.770688772201538,-8.00638484954834,-5.979663848876953
1761316346182444500,1.332444580078125,1.1653046607971191,-6.45822811126709,-6.080162525177002
1761316346201367000,1.351366943359375,1.2658032178878784,-5.816951751708984,-6.666403770446777
1761316346220289300,1.370289306640625,1.5984054803848267,-6.52044153213501,-7.250252723693848
1761316346239211800,1.389211669921875,1.7826528549194336,-7.9250288009643555,-7.130611419677734
1761316346258134000,1.408134033203125,1.9956140518188477,-9.525827407836914,-6.872186660766602
1761316346277056500,1.427056396484375,2.3545374870300293,-8.413164138793945,-5.917450428009033
1761316346295979000,1.44597900390625,2.256431818008423,-7.762316703796387,-6.424728870391846
1761316346314901200,1.4649013671875,2.0410776138305664,-7.70967435836792,-6.31944465637207
1761316346333823700,1.48382373046875,1.5672988891601562,-7.355536937713623,-6.891329288482666
1761316346352746000,1.50274609375,1.4644074440002441,-7.319644451141357,-6.960721015930176
1761316346371668500,1.52166845703125,1.730010747909546,-7.11146879196167,-6.821937561035156
1761316346390590700,1.5405908203125,1.6031911373138428,-7.044469833374023,-6.463014125823975
1761316346409513200,1.55951318359375,1.5337992906570435,-7.080362319946289,-6.221338748931885
1761316346428435700,1.578435791015625,1.3615161180496216,-7.089933395385742,-6.32662296295166
1761316346447358000,1.59735791015625,1.0959128141403198,-7.10429048538208,-6.45822811126709
1761316346466280400,1.616280517578125,0.9379864931106567,-7.245467185974121,-6.427121639251709
1761316346485202700,1.63520263671875,0.7585247755050659,-7.350750923156738,-5.697310924530029
1761316346504125200,1.654125244140625,0.8183453679084778,-7.3675007820129395,-5.647061347961426
1761316346523047400,1.67304736328125,0.851844847202301,-7.1856465339660645,-5.994020938873291
1761316346541970000,1.691969970703125,0.8614161610603333,-7.159325122833252,-6.259624004364014
1761316346560892200,1.71089208984375,0.8638089895248413,-7.302894592285156,-5.740381717681885
1761316346579814700,1.729814697265625,1.1629117727279663,-7.264609336853027,-5.625525951385498
1761316346598737000,1.74873681640625,1.3878371715545654,-7.020541667938232,-5.900700569152832
1761316346617659400,1.767659423828125,1.3040883541107178,-6.9104719161987305,-6.321837425231934
1761316346636581600,1.78658154296875,0.8997012972831726,-7.142575740814209,-6.623332977294922
1761316346655504100,1.805504150390625,0.6532405614852905,-7.314858913421631,-6.999006271362305
1761316346674426600,1.824426513671875,0.7561319470405579,-7.355536937713623,-7.2430739402771
1761316346693348900,1.843348876953125,0.8925228714942932,-7.477570533752441,-7.144968509674072
1761316346712271400,1.862271240234375,1.0815558433532715,-7.843672752380371,-6.4079790115356445
1761316346731193600,1.881193603515625,1.2921242713928223,-7.683353424072266,-5.998806476593018
1761316346750116000,1.9001162109375,1.0671988725662231,-8.248059272766113,-5.840879917144775
1761316346769038300,1.919038330078125,1.1078768968582153,-9.121439933776855,-6.984649181365967
1761316346787960800,1.9379609375,0.8159525394439697,-9.097511291503906,-8.305487632751465
1761316346806883000,1.956883056640625,0.7489534616470337,-8.207381248474121,-9.272188186645508
1761316346825805600,1.9758056640625,0.7561319470405579,-8.008777618408203,-9.714859962463379
1761316346844727800,1.994727783203125,-0.914058268070221,-8.059026718139648,-9.951749801635742
1761316346863650300,2.013650390625,-1.7419748306274414,-8.647661209106445,-9.497113227844238
1761316346882572800,2.03257275390625,-0.8662018179893494,-10.183853149414062,-8.719446182250977
1761316346901495000,2.0514951171875,0.5718846321105957,-12.227323532104492,-6.0849480628967285
1761316346920417500,2.07041748046875,2.5842485427856445,-13.055240631103516,-4.108476638793945
1761316346939339800,2.08933984375,2.407179594039917,-12.897314071655273,-2.541177749633789
1761316346958262300,2.10826220703125,0.6221339106559753,-11.152946472167969,-2.0961127281188965
1761316346977184500,2.1271845703125,1.0217353105545044,-8.662017822265625,-3.053241729736328
1761316346996107000,2.14610693359375,2.124826431274414,-8.63330364227295,-6.427121639251709
1761316347015029500,2.165029541015625,1.301695466041565,-8.915657043457031,-8.015955924987793
1761316347033951700,2.18395166015625,1.466800332069397,-8.461020469665527,-7.802994728088379
1761316347052874200,2.202874267578125,1.0719845294952393,-8.02791976928711,-6.967899322509766
1761316347071796500,2.22179638671875,0.2847459018230438,-8.063812255859375,-6.1950178146362305
1761316347090719000,2.240718994140625,0.6317051649093628,-7.999206066131592,-5.024927616119385
1761316347109641200,2.25964111328125,1.2873386144638062,-8.14516830444336,-4.34536600112915
1761316347128563700,2.278563720703125,2.1846470832824707,-7.929814338684082,-3.8285162448883057
1761316347147486000,2.29748583984375,1.9453648328781128,-7.252645492553711,-3.8356947898864746
1761316347166408400,2.316408447265625,2.392822742462158,-6.2189459800720215,-3.2685956954956055
1761316347185330700,2.33533056640625,2.100898265838623,-5.292923450469971,-2.9288148880004883
1761316347204253200,2.354253173828125,1.7922241687774658,-4.7712883949279785,-2.775674343109131
1761316347223175400,2.373175537109375,1.734796404838562,-4.548755645751953,-2.6536402702331543
1761316347242098000,2.392097900390625,1.9022940397262573,-4.326223373413086,-2.723032236099243
1761316347261020400,2.4110205078125,2.282752752304077,-4.287938117980957,-3.019742250442505
1761316347279942700,2.429942626953125,2.825923442840576,-3.895515203475952,-3.3690943717956543
1761316347298865200,2.448865234375,3.4719855785369873,-3.177668571472168,-3.9314076900482178
1761316347317787400,2.467787353515625,4.644468784332275,-2.9072794914245605,-4.886143684387207
1761316347336710000,2.4867099609375,6.276373863220215,-3.5198421478271484,-6.410371780395508
1761316347355632000,2.505632080078125,7.726424217224121,-4.948357105255127,-9.55214786529541
1761316347374554600,2.5245546875,9.131011009216309,-6.795616149902344,-11.842079162597656
1761316347393477000,2.54347705078125,8.547162055969238,-8.551948547363281,-11.119446754455566
1761316347412399400,2.5623994140625,7.908278942108154,-7.848458290100098,-9.138189315795898
1761316347431321900,2.58132177734375,7.0683979988098145,-5.769095420837402,-6.697510719299316
1761316347450244000,2.600244140625,5.989234924316406,-3.675375461578369,-5.300102233886719
1761316347469166600,2.61916650390625,5.233103275299072,-1.4021940231323242,-4.627718925476074
1761316347488088800,2.6380888671875,4.675575256347656,-1.698904037475586,-5.2977094650268555
1761316347507011300,2.65701123046875,2.5220351219177246,-6.912864685058594,-6.008377552032471
1761316347525933600,2.67593359375,6.20219612121582,-11.796615600585938,-5.649454116821289
1761316347544856000,2.69485595703125,9.09990406036377,-19.216758728027344,-7.941778182983398
1761316347563778300,2.7137783203125,2.100898265838623,-19.95374870300293,-8.827122688293457
1761316347582700800,2.73270068359375,-0.10289137065410614,-11.059626579284668,-0.8183453679084778
1761316347601623000,2.751623046875,-1.954936146736145,-6.652047157287598,0.7058826684951782
1761316347620545500,2.770545654296875,-4.357329845428467,-3.900300979614258,-3.421736478805542
1761316347639468000,2.789468017578125,-5.934200286865234,-7.080362319946289,-5.795416355133057
1761316347658390300,2.808390380859375,-5.6207404136657715,-10.470992088317871,-7.489534854888916
1761316347677312800,2.827312744140625,-1.0671988725662231,-10.906485557556152,-9.265008926391602
1761316347696235000,2.846235107421875,-1.1772687435150146,-10.095318794250488,-10.370492935180664
1761316347715157500,2.865157470703125,2.5148565769195557,-10.097711563110352,-6.434299945831299
1761316347734079700,2.884079833984375,1.923829436302185,-9.176474571228027,-5.355136871337891
1761316347753002200,2.903002197265625,2.383251428604126,-8.018348693847656,-4.685146808624268
1761316347771924500,2.921924560546875,1.9573289155960083,-6.7692952156066895,-5.017749309539795
1761316347790847000,2.940846923828125,1.5146567821502686,-6.075376510620117,-5.970092296600342
1761316347809769200,2.959769287109375,0.33020952343940735,-5.927021503448486,-6.537191390991211
1761316347828691700,2.978691650390625,-0.4833501875400543,-5.979663848876953,-7.161718368530273
1761316347847614200,2.9976142578125,-0.22492532432079315,-6.5180487632751465,-6.819544315338135
1761316347866536400,3.016536376953125,-0.11485548317432404,-6.850651264190674,-5.934200286865234
1761316347885459000,3.035458984375,0.5072783827781677,-6.8243303298950195,-5.168497085571289
1761316347904381200,3.054381103515625,0.9690931439399719,-6.8865437507629395,-4.634897232055664
1761316347923303700,3.0733037109375,1.2418749332427979,-6.996613502502441,-4.845465660095215
1761316347942226000,3.092225830078125,1.4428720474243164,-7.0683979988098145,-5.453242778778076
1761316347961148400,3.1111484375,1.6079767942428589,-6.941578388214111,-5.879165172576904
1761316347980071000,3.13007080078125,0.5264210104942322,-6.6831536293029785,-5.886343479156494
1761316347998993200,3.1489931640625,-0.4211367964744568,-6.695117950439453,-6.056233882904053
1761316348017915600,3.16791552734375,-0.3397808074951172,-7.372286796569824,-6.403193473815918
1761316348036838000,3.186837890625,0.39481574296951294,-8.02074146270752,-6.7070817947387695
1761316348055760400,3.205760498046875,0.8279166221618652,-8.303094863891602,-7.549355506896973
1761316348074682600,3.2246826171875,0.6747759580612183,-7.901100158691406,-8.403593063354492
1761316348093605000,3.243605224609375,0.10049854964017868,-7.424928665161133,-8.554341316223145
1761316348112527400,3.26252734375,0.2632105052471161,-7.149754047393799,-8.054241180419922
1761316348131449900,3.281449951171875,1.5984054803848267,-7.037291526794434,-7.941778182983398
1761316348150372000,3.3003720703125,2.6177480220794678,-7.178467750549316,-8.982656478881836
1761316348169294600,3.319294677734375,2.4741785526275635,-7.369893550872803,-9.726823806762695
1761316348188216800,3.338216796875,2.878565549850464,-8.188239097595215,-9.76989459991455
1761316348207139300,3.357139404296875,1.1150553226470947,-10.372885704040527,-10.724631309509277
1761316348226061800,3.376061767578125,-0.08614161610603333,-12.715459823608398,-9.968499183654785
1761316348244984000,3.394984130859375,0.11964113265275955,-14.548361778259277,-6.539584159851074
1761316348263906600,3.413906494140625,1.5026925802230835,-15.663416862487793,-5.61116886138916
1761316348282828800,3.432828857421875,2.342573404312134,-14.141581535339355,-4.831109046936035
1761316348301751300,3.451751220703125,2.667997360229492,-11.897113800048828,-4.730610370635986
1761316348320673500,3.470673583984375,2.8187451362609863,-11.351551055908203,-6.879364967346191
1761316348339596000,3.489595947265625,3.2374889850616455,-9.30329418182373,-7.944170951843262
1761316348358518300,3.508518310546875,1.950150489807129,-7.735995769500732,-8.34138011932373
1761316348377440800,3.527440673828125,0.2799602448940277,-6.781259536743164,-7.020541667938232
1761316348396363300,3.54636328125,-0.7465606927871704,-6.25723123550415,-5.819344520568848
1761316348415285500,3.565285400390625,-0.672383189201355,-5.855237007141113,-4.486542224884033
1761316348434208000,3.5842080078125,-0.21296121180057526,-6.082555294036865,-3.7112679481506348
1761316348453130200,3.603130126953125,0.349352091550827,-6.0370917320251465,-3.081955671310425
1761316348472052700,3.622052734375,1.1724830865859985,-5.374279499053955,-2.5531418323516846
1761316348490975000,3.64097509765625,0.9236295223236084,-5.26181697845459,-1.5290136337280273
1761316348509897500,3.6598974609375,1.0145567655563354,-4.979464054107666,-0.5814558863639832
1761316348528819700,3.67881982421875,1.0959128141403198,-5.056034088134766,-0.23210379481315613
1761316348547742200,3.6977421875,1.4979069232940674,-5.560919761657715,-1.184447169303894
1761316348566664400,3.71666455078125,2.526820659637451,-5.577669620513916,-2.1846470832824707
1761316348585587000,3.7355869140625,3.589233875274658,-5.465207099914551,-2.6727828979492188
1761316348604509400,3.754509521484375,4.922036170959473,-4.9531426429748535,-3.531806230545044
1761316348623431700,3.773431640625,6.7621169090271,-4.457828521728516,-5.20678186416626
1761316348642354200,3.792354248046875,8.50169849395752,-4.984249591827393,-6.833901405334473
1761316348661276400,3.8112763671875,9.260223388671875,-5.441278457641602,-9.707681655883789
1761316348680199000,3.830198974609375,8.140382766723633,-4.651647090911865,-12.268001556396484
1761316348699121200,3.84912109375,6.733402729034424,-4.95074987411499,-11.7056884765625
1761316348718043600,3.868043701171875,7.83410120010376,-5.161318302154541,-8.764909744262695
1761316348736966000,3.8869658203125,8.23848819732666,-5.6446685791015625,-6.2428741455078125
1761316348755888400,3.905888427734375,7.101897716522217,-7.106683254241943,-5.201996326446533
1761316348774810600,3.924810546875,7.712067604064941,-8.927620887756348,-7.152146816253662
1761316348793733000,3.943733154296875,7.987242221832275,-13.619946479797363,-9.511469841003418
1761316348812655400,3.9626552734375,6.118447303771973,-15.091532707214355,-9.650253295898438
1761316348831577900,3.981577880859375,0.5934200286865234,-9.518648147583008,-6.530013084411621
1761316348850500400,4.000500244140625,-0.23210379481315613,-4.570291042327881,0.3278166949748993
1761316348869422600,4.019422607421875,-1.7682958841323853,-4.1970109939575195,2.3808584213256836
1761316348888345000,4.038344970703125,-3.9672999382019043,-3.232703447341919,-2.282752752304077
1761316348907267300,4.057267333984375,-5.166104316711426,-7.219145774841309,-7.17368221282959
1761316348926189800,4.07618994140625,-2.8426733016967773,-10.415956497192383,-8.11406135559082
1761316348945112000,4.095112060546875,2.3712873458862305,-11.665010452270508,-10.021141052246094
1761316348964034600,4.11403466796875,1.459621787071228,-10.937592506408691,-6.994220733642578
1761316348982956800,4.132956787109375,3.3020951747894287,-9.745966911315918,-5.474778175354004
1761316349001879300,4.15187939453125,1.4835500717163086,-8.061419486999512,-5.2977094650268555
1761316349020801800,4.1708017578125,1.0815558433532715,-6.4319071769714355,-5.340780258178711
1761316349039724000,4.18972412109375,0.6747759580612183,-5.723631858825684,-5.824130535125732
1761316349058646500,4.208646484375,0.46899324655532837,-5.965306758880615,-6.577869415283203
1761316349077568800,4.22756884765625,0.18903298676013947,-6.577869415283203,-7.013363361358643
1761316349096491300,4.2464912109375,0.849452018737793,-6.955935478210449,-7.073183536529541
1761316349115413500,4.26541357421875,0.7992027401924133,-7.3292155265808105,-6.259624004364014
1761316349134336000,4.2843359375,1.6079767942428589,-7.35314416885376,-5.6590256690979
1761316349153258200,4.30325830078125,1.8424733877182007,-6.845865726470947,-5.828916072845459
1761316349172180700,4.3221806640625,1.7252250909805298,-6.57547664642334,-5.816951751708984
1761316349191103000,4.34110302734375,1.6630117893218994,-6.546762943267822,-5.888736724853516
1761316349210025500,4.360025390625,1.215553879737854,-6.774080753326416,-5.4867424964904785
1761316349228947700,4.37894775390625,0.6364908218383789,-6.7070817947387695,-5.123033046722412
1761316349247870200,4.3978701171875,0.26081767678260803,-6.553941249847412,-5.391029357910156
1761316349266792700,4.416792724609375,-0.41874396800994873,-6.692724704742432,-5.752345561981201
1761316349285715000,4.43571484375,-0.6508477330207825,-7.094718933105469,-6.472585201263428
1761316349304637400,4.454637451171875,0.11006984114646912,-7.271788120269775,-6.9104719161987305
1761316349323559700,4.4735595703125,0.2153540402650833,-7.1162543296813965,-6.809973239898682
1761316349342482200,4.492482177734375,-0.3278166949748993,-7.144968509674072,-7.013363361358643
1761316349361404400,4.511404296875,-0.5383850932121277,-7.037291526794434,-7.255038261413574
1761316349380327000,4.530326904296875,-0.6245267391204834,-7.479963779449463,-7.8077802658081055
1761316349399249200,4.549249267578125,0.23688943684101105,-7.800601959228516,-9.006584167480469
1761316349418171600,4.568171630859375,1.3806586265563965,-8.523234367370605,-9.66221809387207
1761316349437094100,4.58709423828125,2.1439690589904785,-10.15753173828125,-9.315258979797363
1761316349456016400,4.606016357421875,3.146561861038208,-10.782058715820312,-9.456435203552246
1761316349474939000,4.62493896484375,2.720639228820801,-10.459028244018555,-9.298508644104004
1761316349493861000,4.643861083984375,1.3782658576965332,-11.040483474731445,-8.511270523071289
1761316349512783600,4.66278369140625,0.2871387302875519,-12.55274772644043,-6.7070817947387695
1761316349531705900,4.681705810546875,1.222732424736023,-13.588839530944824,-5.280959606170654
1761316349550628400,4.70062841796875,3.115455150604248,-13.210773468017578,-4.498506546020508
1761316349569550600,4.719550537109375,3.6323046684265137,-11.607583045959473,-4.945964336395264
1761316349588473000,4.73847314453125,3.8524444103240967,-10.679167747497559,-7.200003147125244
1761316349607395300,4.757395263671875,2.641676187515259,-9.492327690124512,-8.135597229003906
1761316349626317800,4.77631787109375,1.0671988725662231,-7.654639720916748,-7.915457248687744
1761316349645240000,4.795239990234375,0.729810893535614,-6.214160442352295,-7.137789726257324
1761316349664162600,4.81416259765625,-0.6364908218383789,-5.072783946990967,-6.321837425231934
1761316349683084800,4.833084716796875,0.038285162299871445,-4.730610370635986,-5.414957523345947
1761316349702007300,4.85200732421875,0.6436693072319031,-5.1804609298706055,-4.706682205200195
1761316349720929500,4.870929443359375,1.435693621635437,-4.95074987411499,-3.4241292476654053
1761316349739852000,4.88985205078125,1.7252250909805298,-4.285545349121094,-2.7732813358306885
1761316349758774500,4.9087744140625,1.703689694404602,-3.5748770236968994,-2.321038007736206
1761316349777696800,4.92769677734375,1.8376877307891846,-3.5820555686950684,-1.820937991142273
1761316349796619300,4.946619384765625,1.6462619304656982,-4.4650068283081055,-1.8113667964935303
1761316349815541500,4.96554150390625,2.053041934967041,-4.835894584655762,-2.038684844970703
1761316349834464000,4.984464111328125,2.950350284576416,-4.924428939819336,-2.3186452388763428
1761316349853386200,5.00338623046875,4.400400638580322,-4.792823791503906,-3.098705291748047
1761316349872308700,5.022308837890625,5.938985824584961,-4.42193603515625,-4.058227062225342
1761316349891231000,5.04123095703125,7.6737823486328125,-4.570291042327881,-5.436492919921875
1761316349910153500,5.060153564453125,8.841479301452637,-4.924428939819336,-7.884350776672363
1761316349929076000,5.079075927734375,10.037891387939453,-6.233303070068359,-10.023533821105957
1761316349947998200,5.097998291015625,8.846264839172363,-8.664410591125488,-10.837093353271484
1761316349966920700,5.116920654296875,7.738388538360596,-8.934800148010254,-8.568697929382324
1761316349985843000,5.135843017578125,7.140182971954346,-5.989234924316406,-6.563512325286865
1761316350004765400,5.154765380859375,6.331408500671387,-3.239881753921509,-3.8883368968963623
1761316350023687700,5.173687744140625,5.912664890289307,-3.208775281906128,-2.1511476039886475
1761316350042610200,5.192610107421875,6.20219612121582,-7.712067604064941,-4.675575256347656
1761316350061532400,5.211532470703125,8.128418922424316,-13.25862979888916,-6.798008918762207
1761316350080455000,5.230454833984375,9.463613510131836,-17.96770477294922,-10.920842170715332
1761316350099377200,5.249377197265625,0.7657032608985901,-13.555339813232422,-10.13599681854248
1761316350118299600,5.268299560546875,-4.761716842651367,-7.436892986297607,-1.5314065217971802
1761316350137222000,5.287221923828125,-1.2681959867477417,-3.845266103744507,-1.373480200767517
1761316350156144400,5.306144287109375,-3.6634113788604736,-2.4191436767578125,-4.151547431945801
1761316350175066600,5.325066650390625,-6.537191390991211,-6.884150981903076,-5.391029357910156
1761316350193989000,5.343989013671875,-4.6061835289001465,-10.006784439086914,-9.083154678344727
1761316350212911400,5.362911376953125,-0.5288137793540955,-10.863414764404297,-10.669595718383789
1761316350231833900,5.381833740234375,1.031306505203247,-10.526026725769043,-8.934800148010254
1761316350250756000,5.400756103515625,3.1824541091918945,-10.037891387939453,-6.778866767883301
1761316350269678600,5.4196787109375,2.7397818565368652,-8.970691680908203,-6.125626087188721
1761316350288601000,5.43860107421875,2.014756679534912,-8.281558990478516,-4.395615100860596
1761316350307523300,5.4575234375,0.8901300430297852,-7.439285755157471,-4.8191447257995605
1761316350326445800,5.47644580078125,-0.32542386651039124,-6.898507595062256,-5.446064472198486
1761316350345368000,5.4953681640625,-1.1078768968582153,-6.63051176071167,-5.776273727416992
1761316350364290600,5.51429052734375,-1.25144624710083,-7.0995049476623535,-5.594419479370117
1761316350383212800,5.533212890625,0.10289137065410614,-7.22871732711792,-5.661418437957764
1761316350402135300,5.55213525390625,1.1174482107162476,-7.231110095977783,-5.3312087059021
1761316350421057500,5.5710576171875,1.6079767942428589,-6.86261510848999,-5.024927616119385
1761316350439980000,5.58997998046875,1.5625132322311401,-6.419943332672119,-4.862215518951416
1761316350458902300,5.60890234375,0.8638089895248413,-6.147161483764648,-5.024927616119385
1761316350477824800,5.62782470703125,0.38763725757598877,-6.369693756103516,-5.594419479370117
1761316350496747300,5.646747314453125,0.6293123364448547,-6.900900363922119,-6.496513366699219
1761316350515669500,5.66566943359375,0.33738797903060913,-6.922435760498047,-7.295716285705566
1761316350534592000,5.684592041015625,0.19142581522464752,-7.001399040222168,-7.70967435836792
1761316350553514200,5.70351416015625,0.851844847202301,-7.582854747772217,-7.128218650817871
1761316350572436700,5.722436767578125,0.40677985548973083,-8.01356315612793,-6.929614543914795
1761316350591359000,5.74135888671875,-0.0526420995593071,-8.482556343078613,-7.537391185760498
1761316350610281500,5.760281494140625,-0.09810572862625122,-8.286344528198242,-8.47298526763916
1761316350629203700,5.77920361328125,0.5168496966362,-7.645068168640137,-8.621339797973633
1761316350648126200,5.798126220703125,1.2035897970199585,-8.276773452758789,-8.606983184814453
1761316350667048400,5.81704833984375,1.789831280708313,-8.037490844726562,-8.554341316223145
1761316350685971000,5.835970947265625,1.4787644147872925,-7.156932353973389,-8.784051895141602
1761316350704893200,5.85489306640625,2.0817556381225586,-7.781459331512451,-9.253045082092285
1761316350723815700,5.873815673828125,2.060220241546631,-10.535597801208496,-8.504091262817383
1761316350742738000,5.892738037109375,-0.2847459018230438,-13.605589866638184,-6.52044153213501
1761316350761660400,5.911660400390625,-1.4333007335662842,-15.328421592712402,-6.38883638381958
1761316350780582700,5.930582763671875,-0.1866401731967926,-15.0484619140625,-6.0370917320251465
1761316350799505200,5.949505126953125,3.0388846397399902,-12.277572631835938,-6.118447303771973
1761316350818427400,5.968427490234375,4.744967460632324,-12.861421585083008,-6.247660160064697
1761316350837350000,5.987349853515625,4.022335052490234,-12.100503921508789,-6.214160442352295
1761316350856272100,6.006272216796875,2.59621262550354,-8.934800148010254,-6.5874409675598145
1761316350875194600,6.025194580078125,0.7872386574745178,-7.513463020324707,-6.963113784790039
1761316350894116900,6.044116943359375,-0.3732803463935852,-6.999006271362305,-6.929614543914795
1761316350913039400,6.063039306640625,-0.7657032608985901,-6.766902446746826,-5.998806476593018
1761316350931961900,6.0819619140625,-0.8207381963729858,-6.57547664642334,-4.914857864379883
1761316350950884000,6.100884033203125,0.6317051649093628,-6.44387149810791,-3.7663028240203857
1761316350969806600,6.119806640625,0.6795616149902344,-5.994020938873291,-3.0245277881622314
1761316350988728800,6.138728759765625,0.8039883971214294,-5.13021183013916,-2.400001049041748
1761316351007651300,6.1576513671875,1.0336993932724,-4.101297855377197,-1.6295121908187866
1761316351026573600,6.176573486328125,1.2634103298187256,-3.9744784832000732,-1.2275179624557495
1761316351045496000,6.19549609375,1.3902299404144287,-4.417150497436523,-1.3519448041915894
1761316351064418300,6.214418212890625,1.801795482635498,-5.087141036987305,-2.1367905139923096
1761316351083340800,6.2333408203125,3.005385160446167,-5.053641319274902,-3.2279176712036133
1761316351102263000,6.252262939453125,4.029513359069824,-4.6995038986206055,-3.8261234760284424
1761316351121185500,6.271185546875,5.840879917144775,-4.213760852813721,-4.548755645751953
1761316351140107800,6.290107666015625,7.628318786621094,-4.3310089111328125,-5.558526992797852
1761316351159030300,6.3090302734375,8.520841598510742,-4.852644443511963,-7.381857872009277
1761316351177952500,6.327952392578125,8.85344409942627,-5.874379634857178,-9.702896118164062
1761316351196875000,6.346875,7.941778182983398,-7.829315662384033,-11.521441459655762
1761316351215797200,6.36579736328125,7.3986077308654785,-9.305686950683594,-10.394421577453613
1761316351234719700,6.3847197265625,7.221538543701172,-7.688138961791992,-7.992027759552002
1761316351253642000,6.40364208984375,6.671189308166504,-3.902693748474121,-4.792823791503906
1761316351272564500,6.422564453125,6.051448345184326,-1.4859428405761719,-2.2229323387145996
1761316351291486700,6.44148681640625,5.213960647583008,-4.46979284286499,-3.0005996227264404
1761316351319870500,6.469870361328125,7.300501823425293,-13.691731452941895,-7.288537979125977
1761316351338792700,6.488792724609375,7.113861560821533,-16.816757202148438,-10.473384857177734
1761316351357715200,6.507715087890625,1.34476637840271,-12.246466636657715,-8.58066177368164
1761316351376637400,6.526637451171875,-1.2562319040298462,-6.329015731811523,-3.352344512939453
1761316351395560000,6.545559814453125,0.2991028428077698,-5.749952793121338,-0.48813581466674805
1761316351414482200,6.564482177734375,-2.902493953704834,-5.249852657318115,-2.045863389968872
1761316351433404700,6.58340478515625,-4.46979284286499,-7.357929706573486,-3.981656789779663
1761316351452327000,6.602326904296875,-3.988835334777832,-9.942177772521973,-5.994020938873291
1761316351471249400,6.62124951171875,-1.7826528549194336,-10.571490287780762,-7.372286796569824
1761316351490172000,6.640171875,-1.3758729696273804,-10.03549861907959,-6.623332977294922
1761316351509094100,6.65909423828125,1.153340458869934,-9.592825889587402,-5.694917678833008
1761316351528016600,6.6780166015625,1.210768222808838,-9.075976371765137,-5.517848968505859
1761316351546939000,6.69693896484375,1.215553879737854,-7.609176158905029,-6.116054534912109
1761316351565861400,6.715861328125,1.2849457263946533,-6.501298904418945,-6.324230194091797
1761316351584783600,6.73478369140625,0.9882357716560364,-6.216553211212158,-5.907878875732422
1761316351603706000,6.7537060546875,1.3495519161224365,-6.546762943267822,-6.214160442352295
1761316351622628400,6.77262841796875,0.48813581466674805,-6.948757171630859,-6.082555294036865
1761316351641550800,6.79155078125,0.5886343717575073,-7.405786037445068,-5.9509501457214355
1761316351660473000,6.81047314453125,0.41156548261642456,-7.628318786621094,-5.690132141113281
1761316351679395600,6.8293955078125,1.1437692642211914,-7.472784996032715,-5.613562107086182
1761316351698317800,6.84831787109375,1.4500504732131958,-7.216753005981445,-5.551348686218262
1761316351717240300,6.867240234375,1.332802176475525,-7.082755088806152,-5.723631858825684
1761316351736162600,6.88616259765625,1.526620864868164,-6.829115867614746,-6.094519138336182
1761316351755085000,6.9050849609375,1.674975872039795,-6.448657035827637,-6.288337707519531
1761316351774007300,6.92400732421875,1.2179467678070068,-6.305087566375732,-6.709474563598633
1761316351792929800,6.9429296875,0.035892341285943985,-6.2428741455078125,-7.200003147125244
1761316351811852000,6.96185205078125,-0.8733802437782288,-6.429514408111572,-7.6977105140686035
1761316351830774500,6.9807744140625,-0.33020952343940735,-7.3052873611450195,-7.611568927764893
1761316351849696800,6.99969677734375,0.6245267391204834,-8.008777618408203,-7.037291526794434
1761316351868619300,7.018619384765625,0.43549370765686035,-8.575876235961914,-7.314858913421631
1761316351887541500,7.03754150390625,-0.009571290574967861,-8.956335067749023,-7.592426300048828
1761316351906464000,7.056464111328125,-0.035892341285943985,-9.154939651489258,-7.326822757720947
1761316351925386200,7.07538623046875,0.31345975399017334,-9.358329772949219,-7.192824840545654
1761316351944308700,7.094308837890625,0.5670989751815796,-9.535398483276367,-8.01356315612793
1761316351963231000,7.11323095703125,1.1413763761520386,-9.164510726928711,-9.001798629760742
1761316351982153500,7.132153564453125,1.4811571836471558,-8.516056060791016,-8.949156761169434
1761316352001075700,7.15107568359375,1.8305093050003052,-8.008777618408203,-7.903493404388428
1761316352019998200,7.169998291015625,3.373879909515381,-7.8077802658081055,-7.886743545532227
1761316352038920400,7.18892041015625,2.287538528442383,-8.008777618408203,-7.606783390045166
1761316352057843000,7.207843017578125,-1.5840486288070679,-10.12881851196289,-6.63769006729126
1761316352076765200,7.22676513671875,-1.3663017749786377,-13.447663307189941,-5.974878311157227
1761316352095687700,7.245687744140625,-0.18424734473228455,-14.7206449508667,-5.044070243835449
1761316352114610000,7.26460986328125,2.6392834186553955,-12.1866455078125,-4.704289436340332
1761316352133532400,7.283532470703125,4.319045066833496,-11.662617683410645,-5.941378593444824
1761316352152454700,7.30245458984375,3.7256247997283936,-11.58126163482666,-6.783652305603027
1761316352171377200,7.321377197265625,2.861815929412842,-9.647860527038574,-7.080362319946289
1761316352190299400,7.34029931640625,0.9595218896865845,-8.21695327758789,-7.3986077308654785
1761316352209222000,7.359221923828125,-0.7657032608985901,-6.716653347015381,-7.070790767669678
1761316352228144000,7.37814404296875,-0.9379864931106567,-5.931807518005371,-6.017949104309082
1761316352247066600,7.397066650390625,-0.6795616149902344,-6.472585201263428,-5.115854740142822
1761316352265988900,7.41598876953125,0.3158525824546814,-6.7621169090271,-4.106083869934082
1761316352284911400,7.434911376953125,1.2059825658798218,-6.738188743591309,-3.1680972576141357
1761316352303833600,7.45383349609375,1.8903298377990723,-5.67338228225708,-2.775674343109131
1761316352322756000,7.472756103515625,1.8185452222824097,-4.618147850036621,-2.400001049041748
1761316352341678300,7.49167822265625,1.6869399547576904,-4.118047714233398,-1.7778671979904175
1761316352360600800,7.510600830078125,1.3758729696273804,-4.524827480316162,-1.5649060010910034
1761316352379523000,7.529523193359375,1.7994025945663452,-4.938786029815674,-1.5936198234558105
1761316352398445600,7.548445556640625,3.0029923915863037,-4.615755081176758,-2.304288148880005
1761316352417367800,7.567367919921875,4.254438877105713,-4.132404804229736,-3.314059257507324
1761316352436290300,7.586290283203125,5.788238048553467,-3.6873397827148438,-4.567898273468018
1761316352455212500,7.605212646484375,7.685746192932129,-3.8045880794525146,-6.142375946044922
1761316352474135000,7.624135009765625,8.839086532592773,-4.8574299812316895,-7.719245910644531
1761316352493057300,7.643057373046875,9.231510162353516,-6.063412666320801,-9.635896682739258
1761316352511979800,7.661979736328125,8.769695281982422,-7.549355506896973,-10.923234939575195
1761316352530902000,7.680902099609375,8.513663291931152,-8.520841598510742,-9.473184585571289
1761316352549824500,7.699824462890625,8.886942863464355,-7.037291526794434,-7.331608772277832
1761316352568746800,7.718746826171875,8.671588897705078,-3.627519130706787,-3.924229145050049
1761316352587669200,7.737669189453125,7.10429048538208,-3.469592809677124,-3.2374889850616455
1761316352606591500,7.756591552734375,6.656832695007324,-9.114261627197266,-5.804987907409668
1761316352625514000,7.775513916015625,5.718846321105957,-15.05564022064209,-8.82951545715332
1761316352644436200,7.794436279296875,4.548755645751953,-16.84068489074707,-9.401400566101074
1761316352663358700,7.813358642578125,0.064606212079525,-11.554940223693848,-7.271788120269775
1761316352682281000,7.832281005859375,-0.32303106784820557,-6.0849480628967285,-1.892722725868225
1761316352701203500,7.851203369140625,0.21296121180057526,-4.687539577484131,1.5290136337280273
1761316352720125700,7.870125732421875,-3.88594388961792,-3.153740167617798,0.885344386100769
1761316352739048200,7.889048095703125,-4.146761417388916,-5.398207664489746,-3.572484254837036
1761316352757970400,7.907970458984375,-3.5509488582611084,-9.07119083404541,-6.912864685058594
1761316352776893000,7.926892822265625,-0.26081767678260803,-11.119446754455566,-9.523433685302734
1761316352795815200,7.945815185546875,0.672383189201355,-10.459028244018555,-7.554141044616699
1761316352814737700,7.964737548828125,3.1728827953338623,-8.681160926818848,-6.671189308166504
1761316352833660000,7.983659912109375,1.6941183805465698,-7.183253765106201,-6.185446739196777
1761316352852582400,8.00258251953125,1.3351950645446777,-6.025127410888672,-5.874379634857178
1761316352871504600,8.021504638671875,0.7226324677467346,-6.230910301208496,-5.972485542297363
1761316352890427000,8.040427001953125,0.035892341285943985,-6.671189308166504,-5.496313571929932
1761316352909349400,8.059349365234375,-0.12921242415905,-7.238288402557373,-5.699703693389893
1761316352928271600,8.078271728515626,-0.20817556977272034,-7.623532772064209,-5.804987907409668
1761316352947194000,8.097194091796876,0.8087740540504456,-7.891529083251953,-5.594419479370117
1761316352966116400,8.116116455078124,1.4428720474243164,-8.181060791015625,-5.460421085357666
1761316352985038800,8.135038818359375,1.4979069232940674,-8.085348129272461,-5.556134223937988
1761316353003961000,8.153961181640625,1.2705888748168945,-7.735995769500732,-5.276174068450928
1761316353022883600,8.172883544921875,0.6652047038078308,-7.606783390045166,-5.927021503448486
1761316353041805800,8.191805908203126,0.12681959569454193,-7.587640762329102,-5.929414749145508
1761316353060728300,8.210728271484374,0.3732803463935852,-7.23589563369751,-6.484549522399902
1761316353079650800,8.22965087890625,1.3040883541107178,-6.826723098754883,-7.436892986297607
1761316353098573000,8.248572998046875,1.7874385118484497,-6.903293132781982,-8.09970474243164
1761316353117495600,8.26749560546875,1.8711873292922974,-7.470392227172852,-7.994420528411865
1761316353136417800,8.286417724609375,0.9882357716560364,-8.13798999786377,-8.075776100158691
1761316353155340300,8.30534033203125,0.05742774158716202,-9.042476654052734,-8.709874153137207
1761316353174262500,8.324262451171874,-0.016749758273363113,-9.698110580444336,-9.109476089477539
1761316353193184800,8.343184814453124,0.5383850932121277,-9.475577354431152,-9.066405296325684
1761316353212107300,8.362107177734375,-0.12203395366668701,-9.229117393493652,-9.212367057800293
1761316353231029500,8.381029541015625,0.6484549641609192,-8.731410026550293,-9.032905578613281
1761316353249952000,8.399951904296875,0.27756741642951965,-8.851051330566406,-9.023334503173828
1761316353268874200,8.418874267578126,1.1653046607971191,-9.554540634155273,-9.985248565673828
1761316353287796700,8.437796630859374,2.967100143432617,-10.05703353881836,-8.13081169128418
1761316353306719000,8.456718994140624,2.50289249420166,-10.652846336364746,-6.343372821807861
1761316353325641500,8.475641357421875,0.20817556977272034,-11.535798072814941,-4.285545349121094
1761316353344563700,8.494563720703125,-0.2727817893028259,-12.5144624710083,-4.627718925476074
1761316353363486200,8.513486328125,0.16031911969184875,-11.181660652160645,-4.381258487701416
1761316353382408400,8.532408447265626,2.3090739250183105,-9.824930191040039,-5.0464630126953125
1761316353401331000,8.5513310546875,3.8572301864624023,-9.891928672790527,-6.620940208435059
1761316353420253200,8.570253173828124,1.794616937637329,-8.755337715148926,-6.668796539306641
1761316353439175700,8.58917578125,1.3495519161224365,-7.743174076080322,-5.800201892852783
1761316353458098000,8.608097900390625,0.2105683982372284,-6.874579429626465,-5.469992637634277
1761316353477020400,8.6270205078125,-0.30628129839897156,-5.998806476593018,-5.3455657958984375
1761316353495942700,8.645942626953126,0.2584248483181,-5.78345251083374,-4.5822553634643555
1761316353514865200,8.664865234375,1.1413763761520386,-6.211767673492432,-4.187439441680908
1761316353533787400,8.683787353515624,1.8735800981521606,-6.484549522399902,-3.730410575866699
1761316353552710000,8.7027099609375,1.7874385118484497,-6.029912948608398,-3.9122650623321533
1761316353571632000,8.721632080078125,2.359323024749756,-5.221138954162598,-3.82373046875
1761316353590554600,8.7405546875,2.0817556381225586,-4.2209391593933105,-3.294916868209839
1761316353609476900,8.759476806640626,2.0003998279571533,-3.7902309894561768,-2.754138946533203
1761316353628399400,8.7783994140625,1.9286150932312012,-4.302295207977295,-2.227717876434326
1761316353647321600,8.797321533203124,2.2923240661621094,-4.78803825378418,-2.1032910346984863
1761316353666244000,8.816244140625,2.902493953704834,-4.704289436340332,-2.7278177738189697
1761316353685166300,8.835166259765625,3.8524444103240967,-4.108476638793945,-3.6993038654327393
1761316353704088800,8.8540888671875,5.4628143310546875,-3.5461630821228027,-4.7952165603637695
1761316353723011000,8.873010986328126,7.0755767822265625,-3.5820555686950684,-6.608976364135742
1761316353741933600,8.89193359375,8.657232284545898,-4.744967460632324,-9.226723670959473
1761316353760855800,8.910855712890625,9.798608779907227,-7.262216567993164,-11.447263717651367
1761316353779778300,8.9297783203125,8.925228118896484,-9.76989459991455,-11.152946472167969
1761316353798700500,8.948700439453125,8.410771369934082,-9.018548965454102,-8.659625053405762
1761316353817623000,8.967623046875,7.805387496948242,-5.338387489318848,-6.058627128601074
1761316353836545300,8.986545166015626,6.075376510620117,-1.8185452222824097,-4.0558342933654785
1761316353855467800,9.0054677734375,4.261617183685303,-3.5126636028289795,-4.024727821350098
1761316353874390000,9.02439013671875,4.572684288024902,-7.716853141784668,-6.190232276916504
1761316353893312500,9.0433125,5.343173027038574,-11.966506004333496,-7.326822757720947
1761316353912234800,9.06223486328125,6.029912948608398,-14.182259559631348,-8.446663856506348
1761316353931157200,9.0811572265625,1.5122638940811157,-11.952149391174316,-7.051648139953613
1761316353950079500,9.10007958984375,0.38763725757598877,-10.030712127685547,-3.0340991020202637
1761316353969002000,9.119001953125,-0.31345975399017334,-8.901300430297852,-1.3160524368286133
1761316353987924200,9.13792431640625,-3.7543387413024902,-6.173482418060303,-3.014956474304199
1761316354006846700,9.1568466796875,-4.924428939819336,-6.833901405334473,-5.201996326446533
1761316354025769000,9.17576904296875,-2.754138946533203,-7.657032489776611,-6.8004021644592285
1761316354044691500,9.19469140625,-0.9547362327575684,-8.044670104980469,-6.338587284088135
1761316354063613700,9.21361376953125,0.17228323221206665,-9.056833267211914,-6.187839508056641
1761316354082536200,9.2325361328125,2.172683000564575,-10.363314628601074,-5.627918720245361
1761316354101458400,9.25145849609375,1.5194423198699951,-10.348958015441895,-5.312066078186035
1761316354120380700,9.270380615234375,1.9980069398880005,-8.389236450195312,-5.419743061065674
1761316354139303200,9.28930322265625,1.7802600860595703,-6.9344000816345215,-5.639883041381836
1761316354158225400,9.308225341796875,1.0408778190612793,-6.38883638381958,-5.6446685791015625
1761316354177148000,9.32714794921875,0.550349235534668,-6.1088762283325195,-6.415157318115234
1761316354196070400,9.3460703125,0.03349951654672623,-6.142375946044922,-7.044469833374023
1761316354214992600,9.36499267578125,0.5575276613235474,-6.6831536293029785,-7.020541667938232
1761316354233915100,9.3839150390625,1.2299108505249023,-7.1473612785339355,-6.740581512451172
1761316354252837400,9.40283740234375,1.3519448041915894,-7.001399040222168,-6.580262184143066
1761316354271760000,9.421759765625,1.3758729696273804,-6.8410797119140625,-6.0777692794799805
1761316354290682000,9.44068212890625,1.4931213855743408,-6.750152587890625,-6.080162525177002
1761316354309604600,9.4596044921875,1.5936198234558105,-6.50608491897583,-5.881557941436768
1761316354328526800,9.47852685546875,0.9284151792526245,-6.245266914367676,-5.4556355476379395
1761316354347449000,9.497448974609375,0.30149564146995544,-6.1328043937683105,-5.4556355476379395
1761316354366371600,9.51637158203125,-0.1866401731967926,-6.424728870391846,-6.113661766052246
1761316354385293800,9.5352939453125,-0.14835500717163086,-7.2430739402771,-6.941578388214111
1761316354404216300,9.55421630859375,0.35892340540885925,-7.836493968963623,-7.477570533752441
1761316354423138600,9.573138671875,0.3613162338733673,-8.271987915039062,-7.396214962005615
1761316354442061000,9.59206103515625,0.13160525262355804,-8.528019905090332,-7.2574310302734375
1761316354460983300,9.6109833984375,-0.22013968229293823,-8.63330364227295,-7.058826923370361
1761316354479905800,9.62990576171875,-0.1818545162677765,-8.511270523071289,-7.369893550872803
1761316354498828000,9.648828125,0.1866401731967926,-8.673981666564941,-8.784051895141602
1761316354517750500,9.66775048828125,0.5982056856155396,-8.82233715057373,-9.008976936340332
1761316354536672800,9.6866728515625,0.8279166221618652,-8.669196128845215,-8.96829891204834
1761316354555595300,9.70559521484375,2.6871397495269775,-9.992427825927734,-9.425328254699707
1761316354574517500,9.724517578125,3.9290146827697754,-10.861021995544434,-7.274180889129639
1761316354593440000,9.74343994140625,1.9142581224441528,-11.385049819946289,-5.216353416442871
1761316354612362200,9.7623623046875,-0.30149564146995544,-11.468798637390137,-4.878965377807617
1761316354631284700,9.78128466796875,-1.031306505203247,-11.717652320861816,-5.173282623291016
1761316354650207000,9.80020703125,0.5383850932121277,-10.573883056640625,-5.654240131378174
1761316354669129500,9.81912939453125,2.4670002460479736,-9.329615592956543,-6.601797580718994
1761316354688051700,9.8380517578125,3.2135608196258545,-9.89432144165039,-7.465606689453125
1761316354706974200,9.85697412109375,2.4406790733337402,-9.578469276428223,-7.5565338134765625
1761316354725896400,9.875896484375,1.703689694404602,-8.568697929382324,-7.534998416900635
1761316354744819000,9.89481884765625,0.6340979933738708,-7.551748275756836,-6.702296257019043
1761316354763741200,9.9137412109375,-0.1459621787071228,-6.759724140167236,-5.592026710510254
1761316354782663700,9.93266357421875,0.08614161610603333,-5.9916276931762695,-4.996213912963867
1761316354801586000,9.9515859375,0.6532405614852905,-5.946164131164551,-4.4961137771606445
1761316354820508400,9.97050830078125,1.4380863904953003,-6.2189459800720215,-3.8811583518981934
1761316354839430700,9.9894306640625,2.007578134536743,-6.31944465637207,-3.3643085956573486
1761316354858353200,10.008353271484374,1.954936146736145,-6.001199245452881,-3.1274192333221436
1761316354877275400,10.027275390625,1.5672988891601562,-5.498706340789795,-2.675175666809082
1761316354896198000,10.046197998046875,1.521835207939148,-5.247459888458252,-2.5387847423553467
1761316354915120000,10.0651201171875,1.7730815410614014,-5.252245903015137,-2.5387847423553467
1761316354934042600,10.084042724609375,2.043470621109009,-5.5034918785095215,-2.8689942359924316
1761316354952964900,10.10296484375,2.723032236099243,-5.556134223937988,-3.31884503364563
1761316354971887400,10.121887451171874,3.404986619949341,-5.178068161010742,-4.201796531677246
1761316354990809600,10.1408095703125,4.3788652420043945,-5.000999450683594,-5.017749309539795
1761316355009732000,10.159732177734375,6.415157318115234,-5.441278457641602,-6.38883638381958
1761316355028654300,10.178654296875,7.791030406951904,-6.338587284088135,-8.358129501342773
1761316355047576800,10.197576904296875,8.685946464538574,-7.018148899078369,-10.76530933380127
1761316355066499000,10.2164990234375,7.793423175811768,-7.970492362976074,-11.492727279663086
1761316355085421600,10.235421630859374,6.52044153213501,-8.197810173034668,-9.561718940734863
1761316355104343800,10.25434375,5.929414749145508,-6.807580471038818,-6.9583282470703125
1761316355123266000,10.27326611328125,5.223531723022461,-3.6442689895629883,-5.142175674438477
1761316355142188500,10.2921884765625,3.7184464931488037,-2.589034080505371,-5.31685209274292
1761316355161110800,10.31111083984375,3.675375461578369,-5.816951751708984,-7.322037220001221
1761316355180033300,10.330033203125,4.242474555969238,-9.403793334960938,-6.9344000816345215
1761316355198955500,10.34895556640625,6.865008354187012,-13.318450927734375,-7.9585280418396
1761316355217878000,10.3678779296875,5.819344520568848,-15.25903034210205,-8.037490844726562
1761316355236800300,10.38680029296875,2.1032910346984863,-10.832307815551758,-6.2668023109436035
1761316355255722800,10.40572265625,0.32542386651039124,-6.616154670715332,-2.8139593601226807
1761316355274645000,10.42464501953125,-0.6293123364448547,-6.137589931488037,-0.20338992774486542
1761316355293567500,10.4435673828125,-1.1940184831619263,-6.44387149810791,-0.7106683254241943
1761316355312489700,10.46248974609375,-2.7326035499572754,-9.229117393493652,-3.0173492431640625
1761316355331412200,10.481412109375,-2.344966173171997,-9.370293617248535,-4.374079704284668
1761316355350334500,10.50033447265625,-2.376072883605957,-8.57348346710205,-6.008377552032471
1761316355369257000,10.519257080078125,-0.8997012972831726,-7.369893550872803,-7.288537979125977
1761316355388179200,10.53817919921875,0.4259224236011505,-6.501298904418945,-8.078168869018555
1761316355407101700,10.557101806640626,1.3758729696273804,-6.912864685058594,-8.303094863891602
1761316355426024000,10.57602392578125,2.0410776138305664,-7.910671710968018,-7.5086774826049805
1761316355444946400,10.594946533203125,1.856830358505249,-8.422736167907715,-6.340980052947998
1761316355463868700,10.61386865234375,1.3112667798995972,-8.283951759338379,-5.151747226715088
1761316355482791200,10.632791259765625,1.2035897970199585,-7.869993686676025,-4.967499732971191
1761316355501713400,10.65171337890625,1.0719845294952393,-7.262216567993164,-5.106283664703369
1761316355520636000,10.670635986328126,0.42831525206565857,-7.161718368530273,-5.527420520782471
1761316355539558100,10.68955810546875,0.31106695532798767,-7.283751964569092,-6.187839508056641
1761316355558480600,10.708480712890625,0.3397808074951172,-7.384250640869141,-6.539584159851074
1761316355577403000,10.72740283203125,0.6891329288482666,-7.154539585113525,-6.570691108703613
1761316355596325400,10.746325439453125,0.8422735929489136,-6.955935478210449,-6.484549522399902
1761316355615247600,10.76524755859375,0.763310432434082,-7.054041385650635,-6.288337707519531
1761316355634170000,10.784170166015626,0.5407779216766357,-7.377072334289551,-6.128018856048584
1761316355653092400,10.80309228515625,0.763310432434082,-7.616354465484619,-6.080162525177002
1761316355672014800,10.822014892578125,1.337587833404541,-7.403393268585205,-5.883950710296631
1761316355690937000,10.84093701171875,1.399801254272461,-7.336394309997559,-6.206982135772705
1761316355709859300,10.859859375,0.8733802437782288,-7.334001541137695,-6.9344000816345215
1761316355728781800,10.87878173828125,0.24167509377002716,-7.45364236831665,-7.4847493171691895
1761316355747704000,10.8977041015625,-0.0023928226437419653,-7.630711555480957,-7.403393268585205
1761316355766626600,10.91662646484375,0.2105683982372284,-7.858029365539551,-7.085147857666016
1761316355785548800,10.935548828125,0.5623133182525635,-7.812565803527832,-6.6592254638671875
1761316355804471300,10.95447119140625,0.8925228714942932,-7.322037220001221,-6.50608491897583
1761316355823393500,10.9733935546875,1.428515076637268,-7.245467185974121,-6.884150981903076
1761316355842316000,10.99231591796875,1.8041882514953613,-7.190432071685791,-7.278966426849365
1761316355861238300,11.01123828125,2.1750757694244385,-7.7455668449401855,-8.09970474243164
1761316355880160800,11.030160888671874,1.0265209674835205,-9.162117958068848,-7.554141044616699
1761316355899083000,11.0490830078125,0.31345975399017334,-9.377471923828125,-7.628318786621094
1761316355918005500,11.068005615234375,0.4163511395454407,-9.473184585571289,-9.77707290649414
1761316355936927700,11.086927734375,-1.1629117727279663,-11.315658569335938,-11.282158851623535
1761316355955850200,11.105850341796875,0.004785645287483931,-13.1365966796875,-6.922435760498047
1761316355974772500,11.1247724609375,1.4380863904953003,-12.648460388183594,-4.718646049499512
1761316355993695000,11.143695068359374,1.7084753513336182,-11.60279655456543,-4.07258415222168
1761316356012617200,11.1626171875,1.34476637840271,-10.12881851196289,-3.6610186100006104
1761316356031539700,11.181539794921875,1.4835500717163086,-8.965906143188477,-4.433900356292725
1761316356050462000,11.2004619140625,1.6510475873947144,-8.310273170471191,-5.252245903015137
1761316356069384400,11.219384521484375,1.7754744291305542,-7.848458290100098,-4.749752998352051
1761316356088306700,11.238306640625,1.679761528968811,-7.427321434020996,-4.077369689941406
1761316356107229200,11.257229248046874,1.6462619304656982,-7.719245910644531,-3.792623996734619
1761316356126151400,11.2761513671875,1.550549030303955,-7.798209190368652,-4.264009952545166
1761316356145074000,11.295073974609375,1.3399807214736938,-7.396214962005615,-4.996213912963867
1761316356163996200,11.31399609375,1.1581261157989502,-6.348158359527588,-5.398207664489746
1761316356182918400,11.33291845703125,1.7204394340515137,-5.883950710296631,-4.886143684387207
1761316356201841000,11.3518408203125,2.289931297302246,-6.190232276916504,-4.479363918304443
1761316356220763100,11.37076318359375,2.242074728012085,-7.197610378265381,-3.9218363761901855
1761316356239685600,11.389685546875,2.1990039348602295,-7.616354465484619,-3.744767427444458
1761316356258607900,11.40860791015625,3.201596736907959,-6.788437843322754,-4.089334011077881
1761316356277530400,11.4275302734375,3.5772697925567627,-5.771488189697266,-4.833501815795898
1761316356296452600,11.44645263671875,3.326023578643799,-5.314459323883057,-5.350351333618164
1761316356315375000,11.465375,4.194618225097656,-4.924428939819336,-5.912664890289307
1761316356334297300,11.48429736328125,5.532206058502197,-5.446064472198486,-7.262216567993164
1761316356353219800,11.5032197265625,5.577669620513916,-6.836294174194336,-8.12123966217041
1761316356372142000,11.52214208984375,5.185246467590332,-8.228917121887207,-9.324830055236816
1761316356391064600,11.541064697265625,2.4191436767578125,-8.391629219055176,-9.229117393493652
1761316356409986800,11.55998681640625,-0.0933200865983963,-7.472784996032715,-6.45822811126709
1761316356428909300,11.578909423828126,2.0099709033966064,-8.011170387268066,-2.6057839393615723
1761316356447831600,11.59783154296875,6.03948450088501,-10.480563163757324,-1.6031911373138428
1761316356466753800,11.61675390625,3.187239646911621,-10.396814346313477,-4.553541660308838
1761316356485676300,11.63567626953125,-0.4450650215148926,-8.63330364227295,-8.432307243347168
1761316356504598800,11.654598876953125,-0.17706887423992157,-6.585047721862793,-7.843672752380371
1761316356523521000,11.67352099609375,1.4500504732131958,-6.096911907196045,-6.7692952156066895
1761316356542443500,11.692443603515626,2.9240293502807617,-7.10429048538208,-4.914857864379883
1761316356561365800,11.71136572265625,2.746960401535034,-8.623732566833496,-4.242474555969238
1761316356580288000,11.7302880859375,2.4119651317596436,-8.11406135559082,-5.6207404136657715
1761316356599210500,11.74921044921875,2.376072883605957,-9.08554744720459,-5.218746185302734
1761316356618132700,11.7681328125,2.2779672145843506,-8.082955360412598,-6.6592254638671875
1761316356637055200,11.78705517578125,2.6967110633850098,-7.085147857666016,-7.135396957397461
1761316356655977500,11.8059775390625,2.809173822402954,-6.922435760498047,-6.484549522399902
1761316356674900000,11.82489990234375,2.5603201389312744,-6.838686943054199,-6.652047157287598
1761316356693822200,11.843822265625,2.187039852142334,-6.726224422454834,-7.013363361358643
1761316356712744700,11.86274462890625,1.9597218036651611,-6.783652305603027,-7.010970115661621
1761316356731667000,11.8816669921875,2.1535403728485107,-7.018148899078369,-6.742974281311035
1761316356750589400,11.90058935546875,2.794816732406616,-7.207181930541992,-6.3601226806640625
1761316356769511700,11.91951171875,3.2997024059295654,-7.135396957397461,-6.343372821807861
1761316356788434200,11.93843408203125,3.263810157775879,-7.013363361358643,-6.331408500671387
1761316356807356400,11.9573564453125,3.2590243816375732,-7.1856465339660645,-6.190232276916504
1761316356826279000,11.97627880859375,3.3547372817993164,-7.499105930328369,-6.063412666320801
1761316356845201200,11.995201171875,3.2853455543518066,-7.5804619789123535,-5.962913990020752
1761316356864123400,12.014123291015625,3.184846878051758,-7.499105930328369,-5.936593055725098
1761316356883046000,12.0330458984375,3.0580272674560547,-7.408178806304932,-5.934200286865234
1761316356901968100,12.051968017578124,3.1250264644622803,-7.207181930541992,-6.094519138336182
1761316356920890600,12.070890625,3.0269205570220947,-7.051648139953613,-6.204588890075684
1761316356939812900,12.089812744140625,3.0029923915863037,-6.960721015930176,-6.26440954208374
1761316356958735400,12.1087353515625,2.9527430534362793,-6.967899322509766,-6.429514408111572
1761316356977657600,12.12765771484375,2.9934210777282715,-7.0301127433776855,-6.465406894683838
1761316356996580000,12.146580078125,3.2159535884857178,-7.156932353973389,-6.340980052947998
1761316357015502300,12.16550244140625,3.1800613403320312,-7.113861560821533,-6.166304111480713
1761316357034424800,12.1844248046875,3.012563705444336,-6.893722057342529,-6.209374904632568
1761316357053347000,12.20334716796875,3.2159535884857178,-7.133004188537598,-6.106483459472656
1761316357072269600,12.22226953125,3.3571300506591797,-7.255038261413574,-6.238088607788086
1761316357091191800,12.24119189453125,3.589233875274658,-7.192824840545654,-6.44387149810791
1761316357110114300,12.2601142578125,3.5126636028289795,-6.994220733642578,-6.465406894683838
1761316357129036500,12.27903662109375,2.991028308868408,-6.771687984466553,-6.38883638381958
1761316357147959000,12.297958984375,2.8761727809906006,-6.790830612182617,-6.338587284088135
