time,seconds_elapsed,z,y,x
1761315003149436000,0.206435791015625,0,0.007734176702797413,-0.011519670486450195
1761315003168357400,0.225357421875,-0.02153491973876953,-0.0036017801612615585,0.0008067116141319275
1761315003187278800,0.24427880859375,0.005049705505371094,0.0003192257136106491,-0.012650221586227417
1761315003206200300,0.263200439453125,0.000652313232421875,0.008203228935599327,0.0013052895665168762
1761315003225121800,0.282121826171875,-0.017119407653808594,0.0018131900578737259,0.002221055328845978
1761315003244043300,0.301043212890625,0.00685882568359375,0.003816891461610794,0.002482309937477112
1761315003262965000,0.319965087890625,0.006473541259765625,0.00930552463978529,0.0022039785981178284
1761315003281886500,0.338886474609375,-0.009194374084472656,-0.01777585782110691,0.001120537519454956
1761315003300808000,0.357807861328125,-0.021764755249023438,-0.013976631686091423,-0.0011660903692245483
1761315003319729400,0.3767294921875,0.0023899078369140625,0.010609048418700695,0.01197090744972229
1761315003338651000,0.39565087890625,0.011292457580566406,-0.001362491399049759,0.003950402140617371
1761315003357572600,0.414572509765625,-0.01462554931640625,0.007897031493484974,-0.0012564361095428467
1761315003376494000,0.433494140625,-0.000415802001953125,-0.006336629390716553,-0.017306216061115265
1761315003395415600,0.45241552734375,0.01280975341796875,-0.0035925451666116714,-0.00484272837638855
1761315003414337000,0.4713369140625,-0.0014524459838867188,0.022033145651221275,0.003929838538169861
1761315003433258500,0.490258544921875,-0.003692626953125,0.01206150185316801,0.0015488490462303162
1761315003452180200,0.50918017578125,0.014937400817871094,-0.004647979512810707,-0.0030745267868041992
1761315003471101700,0.528101806640625,-0.011351585388183594,0.025400415062904358,-0.009872302412986755
1761315003490023200,0.547023193359375,-0.0062465667724609375,0.008580504916608334,0.0040756165981292725
1761315003508944600,0.565944580078125,0.0011653900146484375,-0.0031069405376911163,0.0035300999879837036
1761315003527866000,0.5848662109375,0.010366439819335938,-0.014704056084156036,0.0014373734593391418
1761315003546787800,0.603787841796875,-0.0061130523681640625,0.006816665641963482,0.006181977689266205
1761315003565709300,0.622709228515625,-0.005863189697265625,0.01154960598796606,-0.00811479240655899
1761315003584630800,0.641630859375,-0.0008945465087890625,-0.016595184803009033,0.003526151180267334
1761315003603552300,0.66055224609375,0.013224601745605469,-0.001986611634492874,-0.005839832127094269
1761315003622473700,0.6794736328125,-0.02206134796142578,0.0054615456610918045,-0.012885414063930511
1761315003641395500,0.6983955078125,-0.0026903152465820312,0.0029578302055597305,-0.010386325418949127
1761315003660317000,0.71731689453125,0.004294395446777344,-0.006211074069142342,0.02271232008934021
1761315003679238400,0.73623828125,-0.0027875900268554688,-0.013082364574074745,-0.017692849040031433
1761315003698159900,0.755159912109375,0.006598472595214844,0.01284573320299387,0.00147981196641922
1761315003717081300,0.774081298828125,0.0018301010131835938,0.012914060615003109,-0.0032360702753067017
1761315003736003000,0.793003173828125,-0.0054454803466796875,0.0008615609258413315,-0.005443140864372253
1761315003754924500,0.811924560546875,-0.002716064453125,0.017144668847322464,0.01124628633260727
1761315003773846000,0.830845947265625,-0.0001964569091796875,-0.008537312969565392,-0.0002867355942726135
1761315003792767500,0.849767578125,0.006869316101074219,0.01310610119253397,0.00228814035654068
1761315003811689200,0.868689208984375,-0.012063980102539062,0.0032418090850114822,0.0023238733410835266
1761315003830610700,0.887610595703125,-0.009154319763183594,0.010254121385514736,-0.0048426613211631775
1761315003849532200,0.9065322265625,0.019186973571777344,0.001168249174952507,-0.007230870425701141
1761315003868453600,0.92545361328125,-0.014192581176757812,-0.003437759354710579,-0.004819534718990326
1761315003887375000,0.944375,-0.004469871520996094,0.008172445930540562,0.002124592661857605
1761315003906296800,0.963296875,0.009874343872070312,-0.003527270630002022,0.009105868637561798
1761315003925218300,0.98221826171875,0.014449119567871094,-0.0010363049805164337,0.00211431086063385
1761315003944139800,1.001139892578125,0.0069522857666015625,0.01793697662651539,-0.0003872588276863098
1761315003963061200,1.020061279296875,-0.009670257568359375,0.001169402152299881,-0.002727702260017395
1761315003991443700,1.048443603515625,0.009009361267089844,-0.005913741886615753,-0.0028608962893486023
1761315004010365200,1.067365234375,-0.028662681579589844,0.01762087456882,0.004393264651298523
1761315004029286700,1.08628662109375,-0.009246826171875,-0.0013727117329835892,0.002176545560359955
1761315004048208100,1.1052080078125,0.005019187927246094,0.0057759154587984085,0.006771095097064972
1761315004067129900,1.1241298828125,0.0025777816772460938,0.0035430341958999634,0.020766757428646088
1761315004086051300,1.14305126953125,-0.013781547546386719,-0.0036286208778619766,-0.005785688757896423
1761315004104972800,1.161972900390625,-0.009051322937011719,-0.005784990265965462,-0.001006394624710083
1761315004123894300,1.180894287109375,0.0004215240478515625,0.02045067958533764,-0.01069178432226181
1761315004142816000,1.19981591796875,0.002605438232421875,0.0038193147629499435,0.008511796593666077
1761315004161737500,1.218737548828125,0.02460479736328125,0.009339424781501293,0.01709669828414917
1761315004180659000,1.237658935546875,-0.03720378875732422,0.016584035009145737,-0.05130553990602493
1761315004199580400,1.256580322265625,0.134185791015625,-0.012533679604530334,0.1094420924782753
1761315004218502100,1.275502197265625,-0.15639114379882812,0.04318998008966446,-0.09869664162397385
1761315004237423600,1.294423583984375,0.09504985809326172,-0.014280116185545921,0.07211031019687653
1761315004256345000,1.313344970703125,-0.0813751220703125,0.017302973195910454,-0.06069042533636093
1761315004275266600,1.3322666015625,0.03381919860839844,0.002247806638479233,0.0231332927942276
1761315004294188300,1.351188232421875,-0.019067764282226562,0.00832014437764883,-0.021004311740398407
1761315004313109800,1.37010986328125,0.014714241027832031,-0.014397906139492989,-0.008801773190498352
1761315004332031200,1.38903125,-0.009480476379394531,0.014085953123867512,-0.012029878795146942
1761315004350952700,1.40795263671875,-0.020549774169921875,-0.007060455158352852,-0.0054421573877334595
1761315004369874400,1.42687451171875,0.010056495666503906,0.0049703288823366165,-0.007196307182312012
1761315004388796000,1.4457958984375,-0.001964569091796875,0.019017722457647324,-0.017052091658115387
1761315004407717400,1.46471728515625,0.02610015869140625,-0.0024535804986953735,-0.00264102965593338
1761315004426638800,1.483638916015625,0.0046100616455078125,0.002379894256591797,0.0021958202123641968
1761315004445560600,1.502560546875,0.023122787475585938,0.014462004415690899,0.004195600748062134
1761315004464482000,1.52148193359375,-0.0031690597534179688,0.016499526798725128,-0.014531925320625305
1761315004483403500,1.540403564453125,-0.012242317199707031,0.014164556749165058,-0.016765400767326355
1761315004502325000,1.559324951171875,0.004281044006347656,-0.007082223892211914,-0.006846912205219269
1761315004521246700,1.578246826171875,-0.005429267883300781,0.00474189966917038,0.000406704843044281
1761315004540168200,1.597168212890625,-0.0074462890625,-0.018530726432800293,-0.011434540152549744
1761315004559089700,1.616089599609375,0.011505126953125,0.012220853008329868,0.007797323167324066
1761315004578011100,1.63501123046875,0.017986297607421875,0.010073565877974033,-0.020680390298366547
1761315004596932900,1.653932861328125,-0.0012340545654296875,0.010114912874996662,0.012512743473052979
1761315004615854300,1.672854248046875,0.010806083679199219,0.0007269177585840225,0.01470375806093216
1761315004634775800,1.69177587890625,0.015192031860351562,-0.00370708666741848,0.009494982659816742
1761315004653697500,1.710697509765625,-0.018093109130859375,0.015259823761880398,-0.016662180423736572
1761315004672619000,1.729618896484375,0.0010929107666015625,0.01246249582618475,0.007221773266792297
1761315004691540500,1.74854052734375,0.005802154541015625,-0.006455577909946442,0.007038787007331848
1761315004710462200,1.767462158203125,0.007729530334472656,-0.008848804980516434,-0.01411961019039154
1761315004729383700,1.7863837890625,-0.018408775329589844,0.0007763747125864029,0.007052600383758545
1761315004748305200,1.80530517578125,0.019533157348632812,0.005242135375738144,-0.012004226446151733
1761315004767226600,1.8242265625,0.005122184753417969,0.0030112620443105698,0.00927172601222992
1761315004786148400,1.8431484375,-0.011517524719238281,0.004994791001081467,0.0022758767008781433
1761315004805069800,1.86206982421875,-0.008627891540527344,0.009837941266596317,0.009103372693061829
1761315004823991300,1.8809912109375,-0.0013227462768554688,0.0004520881921052933,-0.010005608201026917
1761315004842912800,1.899912841796875,-0.0016317367553710938,0.02916330099105835,0.01139955222606659
1761315004861834500,1.91883447265625,-0.00138092041015625,0.014785696752369404,0.018410757184028625
1761315004880756000,1.937755859375,-0.0035724639892578125,-0.011093994602560997,-0.008018486201763153
1761315004899677400,1.956677490234375,0.010466575622558594,-0.008465049788355827,-0.003164418041706085
1761315004918599200,1.97559912109375,-0.013174057006835938,0.005663115531206131,0.0018968284130096436
1761315004937520600,1.994520751953125,0.0037708282470703125,-0.0038920100778341293,-0.0029180198907852173
1761315004956442000,2.013442138671875,0.010588645935058594,0.0011750571429729462,-0.009824775159358978
1761315004975363600,2.032363525390625,0.019533157348632812,0.008632190525531769,-0.009522944688796997
1761315004994285300,2.051285400390625,-0.00197601318359375,0.010767451487481594,-0.0022044628858566284
1761315005013206800,2.070206787109375,0.0005588531494140625,-0.008076870813965797,-0.014367178082466125
1761315005032128300,2.089128173828125,0.016736984252929688,0.013190423138439655,-0.0026767179369926453
1761315005051050000,2.108050048828125,-0.0024423599243164062,0.008187947794795036,-0.007278650999069214
1761315005069971500,2.126971435546875,-0.0068721771240234375,-0.006171341985464096,-0.021414071321487427
1761315005088893000,2.145892822265625,0.014334678649902344,0.008249575272202492,0.002800390124320984
1761315005107814700,2.164814697265625,0.014018058776855469,0.017801648005843163,-0.0066100358963012695
1761315005126736100,2.183736083984375,-0.0026788711547851562,0.0010771788656711578,0.0006279051303863525
1761315005145657600,2.20265771484375,-0.00012111663818359375,0.001204807311296463,0.007587119936943054
1761315005164579000,2.2215791015625,0.011686325073242188,0.02269984781742096,0.014317229390144348
1761315005183500800,2.240500732421875,-0.005131721496582031,-0.008203098550438881,-0.00007777661085128784
1761315005202422300,2.25942236328125,-0.000179290771484375,-0.0030085518956184387,-0.0002489238977432251
1761315005221343700,2.27834375,0.013708114624023438,-0.00012751854956150055,-0.009495757520198822
1761315005240265500,2.297265380859375,-0.0029811859130859375,-0.002571873366832733,0.006847366690635681
1761315005259187000,2.31618701171875,-0.026334762573242188,0.016263693571090698,-0.00016372650861740112
1761315005278108400,2.3351083984375,-0.006915092468261719,0.025433797389268875,0.006861001253128052
1761315005297030100,2.354030029296875,0.025705337524414062,0.008598841726779938,-0.0004867836833000183
1761315005315951600,2.37295166015625,0.0016393661499023438,0.015455582179129124,-0.0030197352170944214
1761315005334873000,2.391873046875,-0.0073947906494140625,0.01551665086299181,-0.0031782835721969604
1761315005353794800,2.410794921875,0.011477470397949219,0.0034951791167259216,-0.00537148118019104
1761315005372716300,2.42971630859375,0.0041561126708984375,0.006130188703536987,0.004507564008235931
1761315005391637800,2.4486376953125,-0.010059356689453125,0.020364725962281227,0.020963087677955627
1761315005410559500,2.4675595703125,0.00423431396484375,-0.0012287702411413193,-0.0005535706877708435
1761315005429481000,2.48648095703125,0.02283954620361328,0.005877632647752762,-0.00773494690656662
1761315005448402400,2.50540234375,-0.010308265686035156,-0.0011021792888641357,-0.007659994065761566
1761315005467324000,2.524323974609375,0.0137176513671875,0.00370195135474205,-0.00541435182094574
1761315005486245600,2.54324560546875,0.02024555206298828,-0.0031429287046194077,-0.005416370928287506
1761315005505167000,2.5621669921875,-0.0035619735717773438,0.022833142429590225,-0.017411209642887115
1761315005524088600,2.581088623046875,-0.008072853088378906,0.008547414094209671,-0.009973347187042236
1761315005543010300,2.60001025390625,0.008547782897949219,-0.0008680913597345352,0.006724745035171509
1761315005561931800,2.618931884765625,0.00096893310546875,0.022772759199142456,-0.024157389998435974
1761315005580853200,2.637853271484375,-0.013258934020996094,0.008590463548898697,-0.012322969734668732
1761315005599775000,2.65677490234375,0.017650604248046875,-0.0077569130808115005,-0.002683795988559723
1761315005618696400,2.675696533203125,0.0032224655151367188,0.02089538238942623,0.0020314007997512817
1761315005637618000,2.694617919921875,0.012763023376464844,0.01123009342700243,-0.01711753010749817
1761315005656539600,2.71353955078125,-0.01785564422607422,-0.007534472271800041,-0.0027254298329353333
1761315005675461000,2.732461181640625,0.010851860046386719,0.014028648845851421,-0.009709976613521576
1761315005694382600,2.751382568359375,0.0081787109375,0.004416896030306816,0.006907850503921509
1761315005713304300,2.77030419921875,-0.02240467071533203,0.004347551614046097,-0.007382526993751526
1761315005732225800,2.789225830078125,-0.012606620788574219,0.011698917485773563,-0.009508296847343445
1761315005751147300,2.808147216796875,-0.000583648681640625,0.011726959608495235,-0.00728955864906311
1761315005770068700,2.82706884765625,-0.0030727386474609375,0.002326086163520813,-0.00497058779001236
1761315005788990500,2.845990478515625,-0.0030889511108398438,0.004568371921777725,-0.011787109076976776
1761315005807912000,2.864911865234375,0.0016765594482421875,0.016047228127717972,-0.0022536367177963257
1761315005826833700,2.883833740234375,0.015778541564941406,-0.003026457503437996,-0.016162879765033722
1761315005845755100,2.902755126953125,-0.014780998229980469,0.020764153450727463,0.0029916688799858093
1761315005864676600,2.921676513671875,-0.0027627944946289062,0.015706472098827362,-0.011130958795547485
1761315005883598300,2.940598388671875,0.013523101806640625,-0.0006742291152477264,-0.008582741022109985
1761315005902519800,2.959519775390625,-0.005629539489746094,0.020703183487057686,-0.0036717429757118225
1761315005921441300,2.978441162109375,0.0016145706176757812,0.02771895006299019,-0.008609369397163391
1761315005940362800,2.99736279296875,0.0039920806884765625,0.008375583216547966,0.005652405321598053
1761315005959284500,3.016284423828125,-0.015160560607910156,0.024575702846050262,0.012469105422496796
1761315005978206000,3.0352060546875,-0.014659881591796875,0.012474666349589825,-0.00925418734550476
1761315005997127700,3.054127685546875,0.009079933166503906,0.010106968693435192,0.01397683471441269
1761315006016049200,3.073049072265625,0.032347679138183594,0.0008144956082105637,-0.00023468583822250366
1761315006034970600,3.091970703125,-0.008093833923339844,0.01263651717454195,0.006674736738204956
1761315006053892400,3.110892333984375,-0.0010023117065429688,-0.013338528573513031,0.0018194541335105896
1761315006072813800,3.129813720703125,0.013265609741210938,-0.00828150101006031,-0.0007506534457206726
1761315006091735300,3.1487353515625,-0.015131950378417969,0.022406218573451042,-0.009885907173156738
1761315006110657000,3.167656982421875,-0.014827728271484375,-0.0035678986459970474,-0.026249684393405914
1761315006129578500,3.18657861328125,0.011269569396972656,0.0037871580570936203,0.018758974969387054
1761315006148500000,3.2055,0.0058383941650390625,0.027346478775143623,-0.01913977414369583
1761315006167421400,3.22442138671875,0.0032520294189453125,0.0057354457676410675,-0.01431131362915039
1761315006186343200,3.24334326171875,0.012830734252929688,0.00580202229321003,0.006962470710277557
1761315006205264600,3.2622646484375,0.0077800750732421875,0.022440161556005478,-0.009628057479858398
1761315006224186400,3.281186279296875,0.0005025863647460938,0.005444752052426338,-0.016744405031204224
1761315006243107800,3.30010791015625,-0.011160850524902344,0.009820188395678997,0.014161601662635803
1761315006262029300,3.319029296875,0.008148193359375,-0.004500126466155052,-0.01680951565504074
1761315006280951000,3.337950927734375,0.012582778930664062,0.005293922498822212,-0.01411283016204834
1761315006299872500,3.35687255859375,0.0006771087646484375,0.010120774619281292,0.012118086218833923
1761315006318794000,3.3757939453125,0.0032033920288085938,0.014614642597734928,0.00995248556137085
1761315006337715700,3.3947158203125,0.017020225524902344,-0.004296120256185532,-0.008964799344539642
1761315006356637200,3.41363720703125,-0.004523277282714844,0.04306589812040329,0.0007440298795700073
1761315006375558700,3.43255859375,0.0074291229248046875,0.00044807977974414825,-0.003791607916355133
1761315006394480400,3.45148046875,0.019064903259277344,-0.006345817819237709,0.012473829090595245
1761315006413401900,3.47040185546875,-0.0000762939453125,0.0007702149450778961,0.007488705217838287
1761315006432323300,3.4893232421875,-0.009329795837402344,-0.0014841407537460327,-0.0047915056347846985
1761315006451245000,3.5082451171875,0.014585494995117188,0.005920296534895897,-0.016514994204044342
1761315006470166500,3.52716650390625,0.016340255737304688,0.02021666243672371,0.012203127145767212
1761315006489088300,3.546088134765625,-0.010043144226074219,0.022040462121367455,-0.008991874754428864
1761315006508009700,3.565009765625,-0.011906623840332031,0.012180461548268795,-0.01594986766576767
1761315006526931200,3.58393115234375,0.007114410400390625,0.0004418008029460907,-0.006206214427947998
1761315006545852700,3.602852783203125,0.0045261383056640625,0.009882482700049877,-0.006057053804397583
1761315006564774400,3.6217744140625,-0.007389068603515625,0.002367990091443062,-0.010547257959842682
1761315006583696000,3.64069580078125,0.013914108276367188,0.007119068875908852,-0.0007705837488174438
1761315006602617300,3.659617431640625,0.009099960327148438,0.01678815856575966,-0.0030915141105651855
1761315006621539000,3.6785390625,0.009034156799316406,0.004843505099415779,0.006108269095420837
1761315006640460500,3.69746044921875,-0.004832267761230469,0.006900360807776451,-0.015293881297111511
1761315006659382000,3.716382080078125,0.011445045471191406,-0.0024435240775346756,-0.001108422875404358
1761315006678303700,3.7353037109375,-0.009992599487304688,0.030897993594408035,-0.008327938616275787
1761315006697225200,3.75422509765625,-0.009700775146484375,-0.01427442952990532,0.00840970128774643
1761315006716147000,3.77314697265625,-0.0095367431640625,0.0027121230959892273,-0.01298929750919342
1761315006735068400,3.792068359375,0.009367942810058594,0.031538914889097214,-0.019932791590690613
1761315006753990000,3.810989990234375,-0.002628326416015625,0.01450184267014265,-0.0054939910769462585
1761315006772911600,3.82991162109375,0.00228118896484375,-0.0068359822034835815,0.001746244728565216
1761315006791833000,3.8488330078125,0.006873130798339844,0.023905614390969276,-0.002961874008178711
1761315006810754600,3.867754638671875,-0.014492034912109375,0.03806240111589432,0.008649475872516632
1761315006829676300,3.88667626953125,-0.02118968963623047,0.006747236475348473,-0.0007357150316238403
1761315006848597800,3.90559765625,0.021471023559570312,-0.009690232574939728,-0.0006793737411499023
1761315006867519200,3.924519287109375,0.011506080627441406,0.009238270111382008,-0.026836633682250977
1761315006886441000,3.94344091796875,-0.007462501525878906,0.011636688373982906,-0.009926274418830872
1761315006905362400,3.962362548828125,0.0020780563354492188,-0.00715729221701622,0.0020484626293182373
1761315006924284000,3.981283935546875,0.013813018798828125,-0.018876269459724426,-0.00034108012914657593
1761315006943205600,4.00020556640625,0.00641632080078125,0.014614750631153584,0.002039514482021332
1761315006962127000,4.019127197265625,-0.021718978881835938,0.007995668798685074,-0.010082967579364777
1761315006981048600,4.038048583984375,0.03735065460205078,-0.0036127399653196335,-0.000472433865070343
1761315006999970300,4.05697021484375,0.008391380310058594,0.012866045348346233,0.0018172264099121094
1761315007018891800,4.075891845703125,-0.014986991882324219,0.012234504334628582,0.024861738085746765
1761315007037813500,4.0948134765625,0.004488945007324219,0.01922469586133957,-0.020140044391155243
1761315007056735000,4.11373486328125,0.025516510009765625,0.02151230163872242,-0.022627651691436768
1761315007075656400,4.132656494140625,-0.005405426025390625,0.006922906264662743,0.0057664960622787476
1761315007094578200,4.151578125,0.013517379760742188,-0.00748053751885891,0.001002967357635498
1761315007113499600,4.170499755859375,0.011265754699707031,0.0046705640852451324,0.008186116814613342
1761315007132421000,4.189421142578125,0.024971961975097656,-0.02351781167089939,-0.022751346230506897
1761315007151342800,4.2083427734375,-0.017579078674316406,-0.011441981419920921,0.010290682315826416
1761315007170264300,4.227264404296875,-0.012567520141601562,0.007859695702791214,-0.018221408128738403
1761315007189185800,4.246185791015625,0.027494430541992188,0.0029160641133785248,0.005573533475399017
1761315007208107500,4.265107421875,0.0034084320068359375,-0.004177875816822052,0.0008781105279922485
1761315007227029000,4.284029052734375,-0.013057708740234375,0.002890065312385559,0.010747820138931274
1761315007245950500,4.302950439453125,0.0036106109619140625,-0.011593319475650787,-0.0060294270515441895
1761315007264872200,4.3218720703125,0.007961273193359375,0.016944710165262222,-0.024748079478740692
1761315007283793700,4.340793701171875,-0.015674591064453125,0.01199734304100275,-0.022361718118190765
1761315007302715400,4.35971533203125,-0.0038623809814453125,-0.013665497303009033,0.0014900192618370056
1761315007321636900,4.378636962890625,0.010187149047851562,0.005221325904130936,0.004021011292934418
1761315007340558300,4.397558349609375,-0.011247634887695312,0.04070012643933296,0.0014966577291488647
1761315007359480000,4.41647998046875,-0.00605010986328125,-0.00933024100959301,0.013282231986522675
1761315007378401500,4.435401611328125,-0.0061626434326171875,-0.002193385735154152,-0.01714847981929779
1761315007397323000,4.454322998046875,0.0123138427734375,-0.006922926753759384,0.020727843046188354
1761315007416244700,4.47324462890625,-0.0067195892333984375,0.003036659210920334,-0.007941894233226776
1761315007435166200,4.492166259765625,0.00048160552978515625,-0.0018265340477228165,0.0019830167293548584
1761315007454087700,4.511087646484375,0.014230728149414062,0.021807393059134483,-0.007595688104629517
1761315007473009400,4.530009521484375,-0.004436492919921875,0.04540577903389931,-0.012072652578353882
1761315007491931000,4.548930908203125,0.00037670135498046875,0.009440095163881779,0.009085923433303833
1761315007510852400,4.567852294921875,0.016717910766601562,0.006859371438622475,0.032471537590026855
1761315007529774000,4.586774169921875,0.0045185089111328125,-0.00036640651524066925,-0.0036609917879104614
1761315007548695600,4.605695556640625,-0.009434700012207031,0.011901582591235638,0.0033007264137268066
1761315007567617000,4.624616943359375,0.009699821472167969,0.0026448816061019897,0.022209860384464264
1761315007586538800,4.643538818359375,0.007262229919433594,-0.006950462237000465,-0.003920748829841614
1761315007605460200,4.662460205078125,0.0025129318237304688,0.0024444330483675003,-0.013271942734718323
1761315007624382000,4.6813818359375,-0.006747245788574219,0.026282576844096184,-0.027420759201049805
1761315007643303400,4.700303466796875,0.024102210998535156,-0.002156563103199005,-0.003691934049129486
1761315007662225000,4.719224853515625,-0.009400367736816406,-0.011725906282663345,0.01573849469423294
1761315007681146600,4.738146728515625,-0.011559486389160156,-0.0019056256860494614,-0.010615482926368713
1761315007700068000,4.757068115234375,0.005253791809082031,0.02482139877974987,-0.008106991648674011
1761315007718989600,4.775989501953125,0.004962921142578125,0.03170810639858246,-0.02005792409181595
1761315007737911300,4.794911376953125,-0.004574775695800781,0.0025551188737154007,-0.0008923858404159546
1761315007756832800,4.813832763671875,0.012085914611816406,0.016695203259587288,0.022901497781276703
1761315007775754500,4.83275439453125,0.011920928955078125,0.009505127556622028,-0.0015577971935272217
1761315007794676000,4.851676025390625,-0.00004100799560546875,0.004883056506514549,-0.013098835945129395
1761315007813597400,4.870597412109375,-0.00701904296875,0.00017905421555042267,-0.0011212155222892761
1761315007832519200,4.889519287109375,0.014075279235839844,-0.0070216357707977295,-0.012816831469535828
1761315007851440600,4.908440673828125,-0.0052928924560546875,0.01199158001691103,0.0058586448431015015
1761315007870362000,4.927362060546875,-0.0049228668212890625,0.02377416007220745,0.010119453072547913
1761315007889283800,4.946283935546875,0.00014019012451171875,-0.02151626907289028,-0.006561242043972015
1761315007908205300,4.965205322265625,0.0022535324096679688,-0.007387422025203705,0.0028553307056427
1761315007927126800,4.984126708984375,0.006961822509765625,0.004524765536189079,-0.01592160016298294
1761315007946048500,5.003048583984375,-0.011623382568359375,-0.0023251865059137344,-0.011310361325740814
1761315007964970000,5.021969970703125,0.0073490142822265625,-0.009418370202183723,-0.004191845655441284
1761315007983891500,5.040891357421875,0.0025968551635742188,0.016600169241428375,-0.009033888578414917
1761315008002813200,5.059813232421875,-0.006626129150390625,0.0211549811065197,-0.013559259474277496
1761315008021734700,5.078734619140625,0.012257575988769531,0.027944758534431458,-0.010970167815685272
1761315008040656100,5.09765625,0.030913352966308594,-0.012235010042786598,-0.00376775860786438
1761315008059577900,5.116577880859375,0.011694908142089844,-0.007495341822504997,0.001077987253665924
1761315008078499300,5.135499267578125,0.00707244873046875,0.006915142759680748,-0.0014050155878067017
1761315008097421000,5.154421142578125,0.016485214233398438,0.002511400729417801,-0.0085744708776474
1761315008116342500,5.173342529296875,0.004332542419433594,0.014356396161019802,-0.001569017767906189
1761315008135264000,5.192263916015625,-0.012125015258789062,0.009589039720594883,-0.006263405084609985
1761315008154185700,5.211185791015625,-0.0022335052490234375,0.0023750271648168564,0.0034334957599639893
1761315008173107200,5.230107177734375,0.011722564697265625,0.004670381546020508,-0.008288055658340454
1761315008192028700,5.249028564453125,-0.0006647109985351562,0.009524869732558727,-0.006014429032802582
1761315008210950400,5.267950439453125,-0.0027599334716796875,-0.004917452111840248,-0.01997283101081848
1761315008229871900,5.286871826171875,0.021135330200195312,-0.00004316866397857666,-0.00778353214263916
1761315008248793300,5.30579345703125,0.008788108825683594,0.009234090335667133,0.011219576001167297
1761315008267715000,5.324715087890625,-0.007737159729003906,-0.014478590339422226,0.011194474995136261
1761315008286636500,5.343636474609375,0.013537406921386719,-0.002385701984167099,-0.021944694221019745
1761315008305558000,5.36255810546875,-0.005734443664550781,-0.002200525254011154,0.006388328969478607
1761315008324479700,5.381479736328125,0.006024360656738281,-0.008922839537262917,-0.00798005610704422
1761315008343401200,5.400401123046875,-0.0034303665161132812,0.024279603734612465,0.0016322582960128784
1761315008362323000,5.419322998046875,0.005977630615234375,0.02207053266465664,-0.01763761043548584
1761315008381244400,5.438244384765625,0.010524749755859375,0.01737910881638527,0.0015655681490898132
1761315008400166000,5.457165771484375,-0.008370399475097656,-0.025588974356651306,0.006101593375205994
1761315008419087600,5.476087646484375,-0.01284027099609375,0.009990674443542957,-0.001041501760482788
1761315008438009000,5.495009033203125,-0.0034360885620117188,0.021917246282100677,0.0035189762711524963
1761315008456930600,5.5139306640625,0.0038547515869140625,0.005039649084210396,-0.022362157702445984
1761315008475852300,5.532852294921875,-0.0009794235229492188,0.00017244182527065277,0.008706212043762207
1761315008494773800,5.551773681640625,0.017681121826171875,0.021387368440628052,-0.012601539492607117
1761315008513695500,5.570695556640625,0.003017425537109375,0.00936893466860056,-0.005416564643383026
1761315008532617000,5.589616943359375,-0.01818084716796875,-0.002465246245265007,-0.00984964519739151
1761315008551538400,5.608538330078125,0.010263442993164062,0.02340884320437908,0.009292297065258026
1761315008570460200,5.627460205078125,0.0028276443481445312,0.03487527742981911,-0.0023485422134399414
1761315008589381600,5.646381591796875,-0.006561279296875,0.010628749616444111,0.004419051110744476
1761315008608303000,5.66530322265625,-0.008931159973144531,0.005734249949455261,0.0018569231033325195
1761315008627224800,5.684224853515625,0.010106086730957031,-0.0009200200438499451,-0.0006126314401626587
1761315008646146300,5.703146240234375,0.00522613525390625,-0.015119632706046104,0.004060149192810059
1761315008665067800,5.72206787109375,-0.0042018890380859375,-0.0008335970342159271,-0.008057810366153717
1761315008683989500,5.740989501953125,0.0006036758422851562,0.020218856632709503,0.0036034658551216125
1761315008702911000,5.759910888671875,0.014700889587402344,-0.0014481525868177414,-0.001244381070137024
1761315008721832400,5.77883251953125,-0.01617717742919922,-0.01568729057908058,-0.0011091679334640503
1761315008740754200,5.797754150390625,-0.011014938354492188,0.008051310665905476,-0.01293850690126419
1761315008759675600,5.816675537109375,0.012448310852050781,-0.001504022628068924,-0.017452344298362732
1761315008778597000,5.83559716796875,-0.006473541259765625,0.0032178889960050583,0.013258345425128937
1761315008797518800,5.854518798828125,-0.0038280487060546875,0.012763512320816517,0.008074626326560974
1761315008816440300,5.8734404296875,0.005789756774902344,0.0009905826300382614,-0.0016671642661094666
1761315008835362000,5.892362060546875,0.0009698867797851562,0.02927744761109352,-0.001729123294353485
1761315008854283500,5.911283447265625,-0.010592460632324219,0.019672060385346413,0.0031667500734329224
1761315008873205000,5.930205078125,-0.0031442642211914062,-0.0063292477279901505,0.007728390395641327
1761315008892126700,5.949126708984375,0.018056869506835938,0.010081908665597439,-0.011288195848464966
1761315008911048200,5.968048095703125,-0.010619163513183594,0.012108034454286098,0.007617823779582977
1761315008929969700,5.9869697265625,-0.0010137557983398438,0.006968210451304913,-0.016305074095726013
1761315008948891400,6.005891357421875,-0.0010595321655273438,0.0020604655146598816,0.0025306716561317444
1761315008967812900,6.024812744140625,-0.0035734176635742188,0.011762936599552631,-0.011631771922111511
1761315008986734300,6.043734375,-0.02008342742919922,0.019010428339242935,0.002931840717792511
1761315009005656000,6.062656005859375,0.010853767395019531,0.011831329204142094,-0.004263356328010559
1761315009024577500,6.08157763671875,-0.010720252990722656,0.007037338800728321,0.00046543776988983154
1761315009043499000,6.1004990234375,-0.0031881332397460938,-0.0022482462227344513,0.005085863173007965
1761315009062420700,6.119420654296875,-0.010181427001953125,-0.0017994679510593414,-0.009059995412826538
1761315009081342200,6.13834228515625,0.0016460418701171875,0.021905051544308662,0.0030195042490959167
1761315009100263700,6.157263671875,0.03202247619628906,0.00035423412919044495,0.012253828346729279
1761315009119185400,6.176185302734375,-0.017821311950683594,-0.004106523469090462,-0.01603396236896515
1761315009138107000,6.19510693359375,0.0061397552490234375,0.0032899808138608932,-0.006618008017539978
1761315009157028600,6.214028564453125,0.015309333801269531,0.01290446612983942,-0.006696492433547974
1761315009175950000,6.2329501953125,0.0031566619873046875,0.012560687027871609,-0.008945964276790619
1761315009194871600,6.25187158203125,0.005560874938964844,0.012717205099761486,0.007703043520450592
1761315009213793300,6.270793212890625,0.0029449462890625,-0.01332811638712883,-0.006647095084190369
1761315009232714800,6.28971484375,-0.003937721252441406,0.0035485289990901947,-0.008725546300411224
1761315009251636200,6.30863623046875,-0.0036115646362304688,0.02957737445831299,-0.020594336092472076
1761315009270558000,6.327557861328125,0.0012140274047851562,-0.0034186076372861862,-0.0037569403648376465
1761315009289479400,6.3464794921875,-0.0058078765869140625,0.00393160805106163,0.003637455403804779
1761315009308401000,6.36540087890625,-0.008243560791015625,-0.0008048638701438904,0.0010297894477844238
1761315009327322600,6.384322509765625,-0.0034618377685546875,0.015596222132444382,-0.006024211645126343
1761315009346244000,6.403244140625,0.012731552124023438,0.015219856053590775,-0.003982290625572205
1761315009365165600,6.42216552734375,-0.008748054504394531,0.022110851481556892,-0.00916774570941925
1761315009384087300,6.44108740234375,0.0010690689086914062,0.007856068201363087,0.009784907102584839
1761315009403008800,6.4600087890625,0.010913848876953125,0.014658978208899498,-0.007181786000728607
1761315009421930500,6.478930419921875,0.008160591125488281,0.0025709234178066254,0.004875883460044861
1761315009440852000,6.49785205078125,0.0009889602661132812,0.002523152157664299,0.0021095052361488342
1761315009459773400,6.5167734375,-0.0060634613037109375,0.016578946262598038,-0.014375366270542145
1761315009478695200,6.535695068359375,-0.005904197692871094,-0.013846516609191895,0.004694655537605286
1761315009497616600,6.55461669921875,0.006290435791015625,0.0076116109266877174,0.011559776961803436
1761315009516538000,6.5735380859375,-0.007720947265625,0.002542925998568535,-0.0070650652050971985
1761315009535459800,6.5924599609375,0.01826000213623047,0.016637839376926422,0.0027453452348709106
1761315009554381300,6.61138134765625,-0.0012073516845703125,0.0026203617453575134,0.012121610343456268
1761315009573302800,6.630302734375,-0.015323638916015625,-0.009130660444498062,-0.0020745396614074707
1761315009592224500,6.649224609375,-0.0028963088989257812,-0.02767065353691578,0.00030750781297683716
1761315009611146000,6.66814599609375,0.013317108154296875,0.010677902959287167,-0.018840380012989044
1761315009630067500,6.6870673828125,0.003818511962890625,0.01782042160630226,-0.004766844213008881
1761315009648989200,6.7059892578125,-0.012464523315429688,0.00815542135387659,-0.004609741270542145
1761315009667910700,6.72491064453125,0.013555526733398438,0.015238609164953232,0.00010718405246734619
1761315009686832000,6.74383203125,0.013026237487792969,0.007971520535647869,-0.002477869391441345
1761315009705753900,6.76275390625,-0.013248443603515625,-0.008466178551316261,-0.004560016095638275
1761315009724675300,6.78167529296875,0.0035829544067382812,0.0037884674966335297,-0.006903663277626038
1761315009743596800,6.8005966796875,-0.001438140869140625,0.013527334667742252,-0.009091399610042572
1761315009762518500,6.8195185546875,0.012688636779785156,0.006278190761804581,-0.011379465460777283
1761315009781440000,6.83843994140625,-0.004006385803222656,0.0016436409205198288,-0.0037948042154312134
1761315009800361500,6.857361572265625,0.014754295349121094,-0.007683280855417252,-0.015143327414989471
1761315009819283200,6.876283203125,-0.006871223449707031,0.013674619607627392,-0.007623501121997833
1761315009838204700,6.89520458984375,-0.011389732360839844,0.0064438097178936005,0.0018437132239341736
1761315009857126100,6.914126220703125,0.008045196533203125,-0.007645098492503166,-0.0006726160645484924
1761315009876048000,6.9330478515625,-0.011395454406738281,0.00870817806571722,0.01571081578731537
1761315009894969300,6.95196923828125,0.002590179443359375,-0.017534947022795677,-0.00811006873846054
1761315009913890800,6.970890869140625,-0.006947517395019531,0.003779051825404167,0.006173320114612579
1761315009932812500,6.9898125,0.0072422027587890625,-0.003063071519136429,0.0011846944689750671
1761315009951734000,7.008734130859375,-0.0070362091064453125,0.006556279957294464,-0.010384127497673035
1761315009970655700,7.02765576171875,-0.0019817352294921875,0.008525838144123554,-0.012646086513996124
1761315009989577200,7.0465771484375,-0.004307746887207031,0.0014420263469219208,-0.000816643238067627
1761315010008498700,7.065498779296875,-0.0020875930786132812,-0.00561879388988018,0.011115774512290955
1761315010027420200,7.084420166015625,-0.006488800048828125,0.01320840884000063,-0.010098978877067566
1761315010046342000,7.103341796875,0.0103912353515625,-0.0012856964021921158,-0.009984083473682404
1761315010065263400,7.122263427734375,-0.004108428955078125,0.00127306766808033,-0.012007467448711395
1761315010084184800,7.141184814453125,0.0004596710205078125,0.003936383873224258,-0.004591412842273712
1761315010103106600,7.1601064453125,-0.003987312316894531,0.003710145130753517,0.0049717724323272705
1761315010122028000,7.179028076171875,0.005398750305175781,0.001554153859615326,0.0047521814703941345
1761315010140949800,7.19794970703125,0.021259307861328125,-0.007708566263318062,0.0020850449800491333
1761315010159871200,7.216871337890625,-0.016816139221191406,0.018253490328788757,-0.00045471638441085815
1761315010178792700,7.235792724609375,0.0073089599609375,-0.009976336732506752,0.004337318241596222
1761315010197714400,7.25471435546875,0.0047550201416015625,0.002084210515022278,0.006821170449256897
1761315010216636000,7.273635986328125,0.009303092956542969,-0.011806273832917213,-0.007247813045978546
1761315010235557400,7.292557373046875,0.004839897155761719,0.00768638588488102,-0.009596705436706543
1761315010254478800,7.311478759765625,0.014130592346191406,0.0196885596960783,0.004657529294490814
1761315010273400600,7.330400634765625,0.0019779205322265625,-0.01597599871456623,-0.016539938747882843
1761315010292322000,7.349322021484375,-0.007538795471191406,0.021829495206475258,-0.011719055473804474
1761315010311243800,7.368243896484375,0.002239227294921875,0.002698669210076332,0.0024943798780441284
1761315010330165200,7.387165283203125,0.009143829345703125,0.002873234450817108,0.014075249433517456
1761315010349086700,7.406086669921875,0.0020599365234375,-0.004291290417313576,0.006889872252941132
1761315010368008400,7.425008544921875,0.002147674560546875,0.0027825292199850082,0.006645962595939636
1761315010386930000,7.443929931640625,0.0020742416381835938,0.012264125980436802,-0.0029004812240600586
1761315010405851400,7.462851318359375,0.013691902160644531,0.014217554591596127,0.004348888993263245
1761315010424772900,7.48177294921875,-0.0074672698974609375,0.0048665851354599,-0.016909748315811157
1761315010443694600,7.500694580078125,-0.00016117095947265625,0.016828319057822227,-0.007253102958202362
1761315010462616000,7.519615966796875,0.00678253173828125,0.009493003599345684,-0.0072654858231544495
1761315010481537500,7.53853759765625,0.0019311904907226562,-0.014362473040819168,-0.004696153104305267
1761315010500459300,7.557459228515625,0.0067291259765625,0.0069577135145664215,0.01200786978006363
1761315010519380700,7.576380615234375,0.0020360946655273438,0.006906731054186821,0.007006548345088959
1761315010538302500,7.595302490234375,-0.0029344558715820312,0.011484292335808277,0.016162820160388947
1761315010557224000,7.614223876953125,-0.012289047241210938,-0.00019050389528274536,-0.017195358872413635
1761315010576145400,7.6331455078125,-0.00278472900390625,-0.011715266853570938,-0.012470334768295288
1761315010595067000,7.65206689453125,0.0042095184326171875,0.005296872928738594,0.010843612253665924
1761315010613988600,7.670988525390625,0.006579399108886719,0.03584924340248108,-0.01778971403837204
1761315010632910000,7.68991015625,-0.016852378845214844,0.035485781729221344,-0.0010843649506568909
1761315010651831600,7.70883154296875,0.0020189285278320312,0.0023671891540288925,0.0009509921073913574
1761315010670753300,7.727753173828125,0.002109527587890625,-0.006881069391965866,-0.010594651103019714
1761315010689674800,7.7466748046875,-0.0000782012939453125,0.031009260565042496,-0.008362695574760437
1761315010708596200,7.76559619140625,0.000003814697265625,0.01199790183454752,0.010517291724681854
1761315010727518000,7.78451806640625,0.004513740539550781,0.004664486274123192,-0.003774769604206085
1761315010746439400,7.803439453125,-0.02104663848876953,0.021042587235569954,-0.0038690343499183655
1761315010765361000,7.82236083984375,-0.004155158996582031,-0.005099033936858177,-0.017920993268489838
1761315010784282600,7.84128271484375,0.007512092590332031,-0.0051436517387628555,-0.001117318868637085
1761315010803204000,7.8602041015625,-0.01630401611328125,0.01597459986805916,-0.0150417760014534
1761315010822125600,7.87912548828125,-0.0229034423828125,0.02040867879986763,-0.00783984363079071
1761315010841047300,7.89804736328125,0.012833595275878906,-0.005499914288520813,-0.002834893763065338
1761315010859968800,7.91696875,0.005545616149902344,0.0017067678272724152,0.015767447650432587
1761315010878890200,7.93589013671875,-0.01777362823486328,0.006606122478842735,-0.010486558079719543
1761315010897812000,7.95481201171875,-0.008048057556152344,0.008965245448052883,0.012957781553268433
1761315010916733400,7.9737333984375,0.0037870407104492188,0.008986962027847767,-0.006026759743690491
1761315010935655000,7.992655029296875,-0.008183479309082031,0.0017545782029628754,0.0032780244946479797
1761315010954576600,8.01157666015625,-0.026815414428710938,-0.007497580721974373,0.0029496848583221436
1761315010973498000,8.030498046875,0.008854866027832031,0.004553662613034248,0.003127157688140869
1761315010992419600,8.049419677734376,0.0038976669311523438,0.0114276809617877,-0.008692406117916107
1761315011011341300,8.06834130859375,-0.012545585632324219,0.020450379699468613,-0.0016209855675697327
1761315011030262800,8.0872626953125,-0.004954338073730469,0.00636151060461998,-0.01568540930747986
1761315011049184300,8.106184326171874,0.0088958740234375,0.0040164608508348465,-0.0012919753789901733
1761315011068106000,8.12510595703125,-0.00045680999755859375,-0.007725263014435768,-0.0011947378516197205
1761315011087027500,8.14402734375,-0.0025196075439453125,0.0018683616071939468,-0.0034919455647468567
1761315011105949000,8.162948974609375,0.011641502380371094,-0.002759542316198349,-0.02220051735639572
1761315011124870400,8.181870361328125,0.0018072128295898438,0.000020446255803108215,-0.01003970205783844
1761315011143792000,8.200792236328125,-0.01715564727783203,-0.004553312435746193,0.0016476437449455261
1761315011162713600,8.219713623046875,-0.00023746490478515625,0.002559298649430275,0.004165537655353546
1761315011181635300,8.23863525390625,0.01620197296142578,-0.001996997743844986,-0.002952873706817627
1761315011200556800,8.257556884765625,-0.007863044738769531,0.009777399711310863,-0.0006979331374168396
1761315011219478300,8.276478271484375,0.008984565734863281,-0.0044072289019823074,-0.0030193105340003967
1761315011238399700,8.295399658203126,-0.0125274658203125,0.000858604907989502,0.004099622368812561
1761315011257321500,8.314321533203126,0.010984420776367188,0.003016151487827301,0.004002854228019714
1761315011276243000,8.333242919921876,-0.012554168701171875,0.010380820371210575,0.02506260573863983
1761315011295164400,8.352164306640624,0.01813507080078125,-0.003761911764740944,0.003746733069419861
1761315011314086100,8.371086181640624,0.00827789306640625,0.00315202958881855,0.0011982470750808716
1761315011333007600,8.390007568359374,-0.0058383941650390625,-0.008633505553007126,-0.003727063536643982
1761315011351929000,8.40892919921875,-0.005684852600097656,0.0032876096665859222,0.01276453584432602
1761315011370850800,8.427850830078125,0.010972976684570312,0.015106950886547565,0.019165657460689545
1761315011389772300,8.446772216796875,-0.0055866241455078125,-0.004012860357761383,0.013849198818206787
1761315011408693800,8.46569384765625,-0.012381553649902344,0.012471635825932026,0.0044664740562438965
1761315011427615500,8.484615478515625,-0.014403343200683594,0.010002472437918186,-0.01901485025882721
1761315011446537000,8.503536865234375,0.004622459411621094,0.01938020810484886,0.00956706702709198
1761315011465458400,8.52245849609375,-0.0023946762084960938,0.014541816897690296,-0.03064741939306259
1761315011484380000,8.5413798828125,0.0026264190673828125,0.0001444648951292038,-0.004128806293010712
1761315011503301600,8.560301513671876,0.009675979614257812,0.009651399217545986,-0.0015446990728378296
1761315011522223000,8.57922314453125,0.0048084259033203125,0.01641908660531044,-0.008379220962524414
1761315011541144600,8.59814453125,-0.009194374084472656,-0.00513835996389389,-0.00826641172170639
1761315011560066300,8.61706640625,0.02142333984375,-0.005175923928618431,0.017732128500938416
1761315011578987800,8.63598779296875,0.004479408264160156,0.011369050480425358,-0.001498289406299591
1761315011597909200,8.6549091796875,-0.006961822509765625,0.003962889313697815,-0.001433439552783966
1761315011616831000,8.6738310546875,-0.0020656585693359375,0.013303798623383045,0.01255188137292862
1761315011635752400,8.69275244140625,0.01910114288330078,0.010672624222934246,-0.00634070485830307
1761315011654674000,8.711673828125,-0.012119293212890625,0.010670150630176067,-0.02287643402814865
1761315011673595600,8.730595703125,-0.021013259887695312,-0.0035590659826993942,0.017565704882144928
1761315011692517000,8.74951708984375,0.0052509307861328125,-0.007944798097014427,-0.008685082197189331
1761315011711438600,8.7684384765625,0.019194602966308594,0.018495609983801842,-0.01802961528301239
1761315011730360300,8.7873603515625,-0.011521339416503906,-0.0006363261491060257,0.0007141903042793274
1761315011749281800,8.80628173828125,0.0029001235961914062,0.004341581836342812,0.0054899901151657104
1761315011768203300,8.825203369140626,0.0026082992553710938,0.006611723452806473,0.014696396887302399
1761315011787124700,8.844124755859376,-0.009125709533691406,-0.005233552306890488,-0.004636585712432861
1761315011806046500,8.86304638671875,0.005137443542480469,-0.0004513859748840332,-0.01640511304140091
1761315011824968000,8.881968017578124,0.012064933776855469,0.009153089486062527,0.000254608690738678
1761315011843889400,8.900889404296874,0.004687309265136719,0.011325457133352757,-0.004444241523742676
1761315011862811100,8.91981103515625,0.0048465728759765625,0.0039922092109918594,0.005052246153354645
1761315011881732600,8.938732666015625,0.007273674011230469,0.001614786684513092,0.0070799365639686584
1761315011900654000,8.957654052734375,-0.0047321319580078125,-0.01921856962144375,-0.016722947359085083
1761315011919575800,8.976575927734375,-0.004771232604980469,-0.014357799664139748,0.007101006805896759
1761315011938497300,8.995497314453125,-0.011750221252441406,-0.006685785949230194,-0.016506493091583252
1761315011957418800,9.014418701171875,0.0023641586303710938,0.014717540703713894,-0.0068857744336128235
1761315011976340500,9.033340576171875,0.0044040679931640625,0.01905984804034233,0.0002993941307067871
1761315011995262000,9.052261962890626,-0.0024480819702148438,0.016371725127100945,-0.011200793087482452
1761315012014183400,9.071183349609376,-0.0140533447265625,0.002204999327659607,-0.00871323049068451
1761315012033105000,9.09010498046875,0.011861801147460938,0.011666444130241871,-0.01336672157049179
1761315012052026600,9.109026611328124,-0.004687309265136719,-0.002580050379037857,0.003130599856376648
1761315012070948000,9.127947998046874,0.002605438232421875,0.0027424227446317673,-0.0015388131141662598
1761315012089869600,9.14686962890625,0.004833221435546875,-0.0018371175974607468,0.019995085895061493
1761315012108791300,9.165791259765625,-0.016699790954589844,0.007577873766422272,0.0100397989153862
1761315012127712800,9.184712646484375,-0.011716842651367188,-0.006847778335213661,-0.004213847219944
1761315012146634200,9.20363427734375,0.0027494430541992188,-0.0018946174532175064,-0.0111335888504982
1761315012165556000,9.222555908203125,0.01661968231201172,-0.011104611679911613,-0.008569814264774323
1761315012184477400,9.2414775390625,-0.009459495544433594,-0.001186612993478775,0.0011179298162460327
1761315012203399000,9.26039892578125,-0.013734817504882812,0.020129021257162094,-0.001468360424041748
1761315012222320600,9.279320556640625,0.017385482788085938,0.000997709110379219,-0.013475701212882996
1761315012241242000,9.2982421875,0.0027713775634765625,0.012750356458127499,-0.00159512460231781
1761315012260163600,9.31716357421875,-0.013594627380371094,0.010115095414221287,-0.008703544735908508
1761315012279085000,9.3360849609375,0.024384498596191406,0.014883679337799549,-0.006259314715862274
1761315012298006800,9.3550068359375,-0.0021486282348632812,0.005219552665948868,-0.018014341592788696
1761315012316928300,9.37392822265625,-0.004429817199707031,0.012088715098798275,0.0010512620210647583
1761315012335849700,9.392849609375,-0.006402015686035156,0.01007979828864336,0.0009445920586585999
1761315012354771500,9.411771484375,0.01726055145263672,-0.0016114339232444763,0.010459043085575104
1761315012373693000,9.43069287109375,-0.004330635070800781,-0.008610565215349197,0.01484137773513794
1761315012392614400,9.449614501953125,-0.008932113647460938,0.024462129920721054,-0.006355181336402893
1761315012411536100,9.4685361328125,-0.004088401794433594,-0.00863930955529213,0.0006450340151786804
1761315012430457600,9.48745751953125,-0.003955841064453125,0.003118744120001793,-0.006585337221622467
1761315012449379000,9.506379150390625,-0.013119697570800781,0.010213037021458149,-0.01371685415506363
1761315012468300800,9.52530078125,0.0037851333618164062,0.002883113920688629,-0.0013811439275741577
1761315012487222300,9.54422216796875,0.010560989379882812,0.007521571591496468,0.0008603706955909729
1761315012506143700,9.563143798828126,0.012683868408203125,-0.0019052550196647644,0.01019730418920517
1761315012525065200,9.582065185546876,-0.004047393798828125,0.005552355200052261,0.005672387778759003
1761315012543987000,9.600987060546874,0.007537841796875,0.007805446162819862,0.0010925158858299255
1761315012562908400,9.619908447265624,0.0047397613525390625,0.03164679557085037,0.014899350702762604
1761315012581830000,9.638829833984374,0.004778861999511719,0.0076804328709840775,-0.013639561831951141
1761315012600751600,9.657751708984375,0.0025424957275390625,-0.0018230937421321869,-0.006286941468715668
1761315012619673000,9.676673095703125,0.0070858001708984375,0.010219470597803593,-0.00625988095998764
1761315012638594600,9.695594482421875,0.0044994354248046875,0.009958053939044476,0.001099616289138794
1761315012657516000,9.71451611328125,-0.0047092437744140625,0.01698431745171547,-0.0013450011610984802
1761315012676437800,9.733437744140625,0.0047016143798828125,-0.006575224921107292,-0.0012852102518081665
1761315012695359200,9.752359130859375,0.00011348724365234375,0.03865911811590195,-0.010866448283195496
1761315012714281000,9.771281005859375,-0.00675201416015625,0.007755069062113762,-0.015549696981906891
1761315012733202400,9.790202392578125,-0.009038925170898438,0.010171224363148212,0.00825810432434082
1761315012752124000,9.8091240234375,-0.0020341873168945312,0.005486391484737396,-0.01305825263261795
1761315012771045400,9.82804541015625,-0.006514549255371094,0.0052315108478069305,0.0035299286246299744
1761315012789967000,9.846967041015626,-0.0016336441040039062,-0.0039009079337120056,-0.005959510803222656
1761315012808888600,9.865888671875,0.012538909912109375,0.008147889748215675,0.0033283457159996033
1761315012827810000,9.88481005859375,0.005066871643066406,0.0008798595517873764,-0.003879919648170471
1761315012846731800,9.903731689453124,-0.016199111938476562,0.0032080449163913727,0.0008686035871505737
1761315012865653200,9.9226533203125,0.010100364685058594,-0.0012692585587501526,-0.008375994861125946
1761315012884574700,9.94157470703125,0.01690387725830078,0.010347754694521427,-0.0224289670586586
1761315012903496200,9.96049609375,-0.009341239929199219,-0.008404167369008064,0.006305143237113953
1761315012922418000,9.97941796875,0.0027322769165039062,0.010451135225594044,-0.00774674117565155
1761315012941339400,9.99833935546875,0.00507354736328125,-0.0059120506048202515,0.0017246827483177185
1761315012960260900,10.0172607421875,-0.0047817230224609375,0.020476816222071648,-0.017524659633636475
1761315012979182600,10.0361826171875,-0.02572154998779297,0.003758080303668976,0.011149458587169647
1761315012998104000,10.05510400390625,0.0076389312744140625,-0.015185367316007614,0.003934547305107117
1761315013017025500,10.074025634765626,-0.0018291473388671875,-0.017463400959968567,0.013153299689292908
1761315013035947300,10.092947265625,0.0029773712158203125,0.011151368729770184,-0.005909144878387451
1761315013054868700,10.11186865234375,0.007663726806640625,0.010999741964042187,-0.01528264582157135
1761315013073790200,10.130790283203124,0.005057334899902344,0.02043893374502659,-0.0036405250430107117
1761315013092711700,10.149711669921874,-0.018599510192871094,0.020310284569859505,0.010707810521125793
1761315013111633400,10.16863330078125,-0.018024444580078125,0.0034707114100456238,-0.017865978181362152
1761315013130555000,10.187554931640625,0.015237808227539062,0.015456494875252247,0.008135907351970673
1761315013149476400,10.206476318359375,0.0029697418212890625,0.02233961410820484,-0.008626572787761688
1761315013168398000,10.225398193359375,0.000713348388671875,-0.0016714725643396378,-0.006011433899402618
1761315013187319600,10.244319580078125,0.005593299865722656,-0.013124734163284302,-0.010329701006412506
1761315013206241000,10.263240966796875,0.005526542663574219,0.0060359034687280655,-0.005540482699871063
1761315013225162500,10.28216259765625,-0.0015583038330078125,0.022491713985800743,-0.007632039487361908
1761315013244084200,10.301084228515625,-0.018054962158203125,0.012867770157754421,-0.00518401712179184
1761315013263005700,10.320005615234376,0.010423660278320312,-0.003867005929350853,0.00432046502828598
1761315013281927200,10.33892724609375,-0.004117012023925781,-0.003954170271754265,-0.019256822764873505
1761315013300849000,10.357848876953126,-0.006411552429199219,0.014981755055487156,-0.024016596376895905
1761315013319770400,10.376770263671874,0.000858306884765625,-0.002002134919166565,-0.002422250807285309
1761315013338691800,10.39569189453125,-0.008660316467285156,0.009715416468679905,-0.011800356209278107
1761315013357613600,10.414613525390624,-0.008335113525390625,0.018984977155923843,-0.004689201712608337
1761315013376535000,10.43353515625,-0.010530471801757812,-0.009362265467643738,-0.016362011432647705
1761315013395456500,10.45245654296875,0.017777442932128906,0.002419672906398773,0.00029524415731430054
1761315013414378000,10.4713779296875,0.0033855438232421875,0.02614094689488411,-0.004633277654647827
1761315013433299700,10.4902998046875,-0.01790332794189453,0.011556251905858517,-0.025797218084335327
1761315013452221200,10.50922119140625,-0.000919342041015625,-0.0047886185348033905,0.012286558747291565
1761315013471142700,10.528142578125,0.01758098602294922,0.004802912473678589,0.00008314847946166992
1761315013490064400,10.547064453125,-0.0038242340087890625,0.01859358884394169,0.014433130621910095
1761315013508985900,10.56598583984375,-0.015384674072265625,-0.0003353189677000046,0.006857536733150482
1761315013527907300,10.5849072265625,0.025084495544433594,-0.004694577306509018,0.0018071159720420837
1761315013546828800,10.603828857421876,0.0010786056518554688,0.021442878991365433,-0.005255967378616333
1761315013565750500,10.62275048828125,-0.003467559814453125,0.014205952174961567,-0.014824524521827698
1761315013584672000,10.641672119140624,-0.00574493408203125,0.002374498173594475,0.008880198001861572
1761315013603593500,10.660593505859374,0.0032672882080078125,0.009248473681509495,0.008508019149303436
1761315013622515200,10.67951513671875,0.0030813217163085938,0.011551902629435062,-0.008313760161399841
1761315013641436700,10.698436767578125,-0.015491485595703125,0.009056718088686466,-0.015238255262374878
1761315013660358100,10.717358154296875,-0.0034494400024414062,0.0064424630254507065,-0.0034633800387382507
1761315013679279600,10.736279541015625,-0.00106048583984375,0.004155382513999939,-0.0057256221771240234
1761315013698201300,10.755201416015625,-0.026906967163085938,-0.0031375661492347717,0.00363989919424057
1761315013717122800,10.774122802734375,-0.0052337646484375,0.008751743473112583,-0.012888438999652863
1761315013736044300,10.793044189453125,0.004154205322265625,0.006577417254447937,-0.008110590279102325
1761315013754966000,10.811966064453125,-0.007671356201171875,-0.0025983378291130066,0.011020742356777191
1761315013773887500,10.830887451171876,0.015877723693847656,0.0022611133754253387,-0.0034136325120925903
1761315013792809000,10.84980908203125,0.011036872863769531,-0.00722050666809082,0.005960769951343536
1761315013811730700,10.868730712890626,0.0012607574462890625,0.0071180835366249084,-0.005592562258243561
1761315013830652200,10.887652099609374,-0.001094818115234375,0.011548315174877644,0.008788049221038818
1761315013849573600,10.90657373046875,0.012902259826660156,-0.0002387743443250656,-0.012585289776325226
1761315013868495000,10.9254951171875,0.012554168701171875,0.009029855020344257,0.018215589225292206
1761315013887416800,10.944416748046875,-0.011116981506347656,0.01604580506682396,-0.003438495099544525
1761315013906338300,10.96333837890625,-0.010868072509765625,0.008853395469486713,0.005874156951904297
1761315013925259800,10.982259765625,0.0057659149169921875,0.013327321968972683,0.012878753244876862
1761315013944181500,11.001181396484375,-0.0037984848022460938,0.022162580862641335,0.003143027424812317
1761315013963103000,11.02010302734375,-0.001163482666015625,0.0007284227758646011,-0.013369843363761902
1761315013982024400,11.0390244140625,0.021971702575683594,0.0012350529432296753,0.0011729523539543152
1761315014000946000,11.05794580078125,0.009832382202148438,0.010705339722335339,0.020130962133407593
1761315014019867600,11.07686767578125,-0.013982772827148438,0.010434816591441631,-0.029845550656318665
1761315014038789000,11.0957890625,-0.0065784454345703125,-0.0012391284108161926,0.005885899066925049
1761315014057710600,11.114710693359376,0.014815330505371094,0.008643257431685925,0.010318569839000702
1761315014076632000,11.133632080078126,-0.009165763854980469,-0.01712508499622345,0.0074507445096969604
1761315014095553800,11.1525537109375,-0.0064697265625,0.004207024350762367,-0.002129092812538147
1761315014114475300,11.171475341796874,-0.0015506744384765625,0.008896981365978718,-0.0019258633255958557
1761315014133396700,11.190396728515625,0.005599021911621094,-0.017038341611623764,-0.00400281697511673
1761315014152318500,11.209318359375,-0.0036067962646484375,0.013860107399523258,0.010286025702953339
1761315014171240000,11.228239990234375,-0.001094818115234375,-0.000631432980298996,0.012504316866397858
1761315014190161400,11.247161376953125,0.02003955841064453,0.02312076836824417,0.0028906017541885376
1761315014209083100,11.266083251953125,-0.020427703857421875,0.0015312433242797852,0.00034780800342559814
1761315014228004600,11.285004638671875,-0.003360748291015625,-0.000632699579000473,-0.0041806697845458984
1761315014246926000,11.303926025390625,0.010671615600585938,0.004076950252056122,0.00046687573194503784
1761315014265847600,11.32284765625,0.00792694091796875,0.020810192450881004,0.01447480171918869
1761315014284769300,11.341769287109376,-0.008572578430175781,-0.0005072243511676788,-0.0023343265056610107
1761315014303690800,11.360690673828126,0.005946159362792969,-0.002782689407467842,-0.0072222426533699036
1761315014322612200,11.3796123046875,0.0058650970458984375,0.01629495434463024,-0.002521790564060211
1761315014341533700,11.39853369140625,-0.0038194656372070312,0.02309398166835308,-0.014265201985836029
1761315014360455400,11.417455322265624,-0.0014972686767578125,0.0016848333179950714,-0.025542929768562317
1761315014379377000,11.436376953125,0.0056514739990234375,0.004026200622320175,-0.004071466624736786
1761315014398298400,11.45529833984375,0.005347251892089844,-0.007693823426961899,0.014823652803897858
1761315014417220000,11.47422021484375,0.005444526672363281,-0.00988917425274849,-0.001901872456073761
1761315014436141600,11.4931416015625,0.000637054443359375,-0.0024357791990041733,-0.013604052364826202
1761315014455063000,11.51206298828125,-0.011188507080078125,0.028278622776269913,-0.006621450185775757
1761315014473984500,11.530984619140625,-0.00156402587890625,0.006988612934947014,-0.0016575604677200317
1761315014492906200,11.54990625,-0.0015916824340820312,-0.009518975391983986,0.007713638246059418
1761315014511827700,11.56882763671875,0.009949684143066406,0.012055848725140095,-0.006636574864387512
1761315014530749200,11.587749267578126,-0.0066547393798828125,0.006839655339717865,-0.011430174112319946
1761315014549671000,11.6066708984375,-0.015888214111328125,0.02081339992582798,-0.00906902551651001
1761315014568592400,11.62559228515625,0.0034608840942382812,0.0017939377576112747,0.002831287682056427
1761315014587513900,11.644513916015624,-0.013399124145507812,0.004242371767759323,-0.004243023693561554
1761315014606435600,11.663435546875,-0.0015430450439453125,0.025488633662462234,-0.006423689424991608
1761315014625357000,11.682357177734374,0.0010175704956054688,-0.005395438522100449,-0.006407536566257477
1761315014644278500,11.701278564453125,0.010435104370117188,0.006804401054978371,0.005411788821220398
1761315014663200000,11.720199951171875,0.012639045715332031,0.008937331847846508,-0.0020223334431648254
1761315014682121700,11.739121826171875,-0.0038967132568359375,0.0015889126807451248,0.007220648229122162
1761315014701043200,11.758043212890625,-0.006276130676269531,0.013384795747697353,-0.011770322918891907
1761315014719964700,11.776964599609375,0.0053424835205078125,0.011316795833408833,-0.0021266788244247437
1761315014738886100,11.79588623046875,-0.020481109619140625,0.00651717372238636,-0.006919465959072113
1761315014757807900,11.814807861328125,-0.00360870361328125,0.0019697118550539017,0.002737388014793396
1761315014776729300,11.833729248046875,0.005530357360839844,-0.0025450773537158966,0.005100712180137634
1761315014795650800,11.85265087890625,-0.004261016845703125,0.004563581198453903,-0.018408536911010742
1761315014814572500,11.871572509765626,-0.015806198120117188,-0.0024671535938978195,0.00317990779876709
1761315014833494000,11.890493896484376,0.0033435821533203125,0.014302912168204784,-0.004275321960449219
1761315014852415500,11.90941552734375,0.000682830810546875,-0.007145024836063385,0.0007059052586555481
1761315014871337000,11.9283369140625,-0.013418197631835938,0.011778158135712147,0.0005804896354675293
1761315014890258700,11.9472587890625,0.010476112365722656,0.009197068400681019,0.005384631454944611
1761315014909180200,11.96618017578125,0.007856369018554688,0.008874748833477497,0.0006966143846511841
1761315014928101600,11.9851015625,0.005557060241699219,0.006720526143908501,0.0030810758471488953
1761315014947023400,12.0040234375,-0.0039997100830078125,0.020771175622940063,0.017292752861976624
1761315014965944800,12.02294482421875,0.02672100067138672,0.013187511824071407,-0.013475298881530762
1761315014984866300,12.0418662109375,-0.0067119598388671875,0.010599984787404537,-0.013423174619674683
1761315015003787800,12.060787841796875,-0.011275291442871094,0.01303823571652174,0.01513797789812088
1761315015022709500,12.07970947265625,-0.0015697479248046875,-0.003528708592057228,-0.01097048819065094
1761315015041631000,12.098630859375,0.026599884033203125,0.008766873739659786,-0.0013926178216934204
1761315015060552400,12.117552490234376,-0.008985519409179688,0.0016738753765821457,-0.0037780627608299255
1761315015079474000,12.136473876953126,-0.0016298294067382812,-0.01207038201391697,0.008049465715885162
1761315015098395600,12.155395751953124,0.0077571868896484375,0.007329920306801796,-0.008507929742336273
1761315015117317000,12.174317138671874,-0.004107475280761719,0.0026783328503370285,-0.008406639099121094
1761315015136238600,12.193238525390624,-0.011188507080078125,0.007355807349085808,0.00585445761680603
1761315015155160300,12.212160400390625,-0.001369476318359375,0.023878080770373344,-0.013281263411045074
1761315015174081800,12.231081787109375,0.007931709289550781,0.014504856429994106,-0.01535225659608841
1761315015193003300,12.250003173828125,0.005511283874511719,0.009693934582173824,-0.0010185465216636658
1761315015211924700,12.2689248046875,-0.008592605590820312,-0.00438479520380497,-0.0032275989651679993
1761315015230846500,12.287846435546875,-0.003681182861328125,0.005428699776530266,0.0062678903341293335
1761315015249768000,12.306767822265625,0.007931709289550781,0.021710261702537537,0.010782591998577118
1761315015268689400,12.325689453125,-0.0013513565063476562,0.009744127281010151,-0.008610479533672333
1761315015287611000,12.34461083984375,0.02237987518310547,0.007466154173016548,-0.0015810802578926086
1761315015306532600,12.36353271484375,0.0052490234375,0.004990484565496445,0.005607984960079193
1761315015325454000,12.3824541015625,-0.0017881393432617188,0.00951217208057642,-0.0037148520350456238
1761315015344375600,12.40137548828125,0.005330085754394531,0.009438286535441875,0.012934133410453796
1761315015363297000,12.420297119140624,-0.0019845962524414062,0.014056147076189518,-0.008653506636619568
1761315015382218800,12.43921875,-0.0070552825927734375,0.01861487329006195,-0.0014655888080596924
1761315015401140200,12.45814013671875,-0.006939888000488281,-0.0005212444812059402,0.010386675596237183
1761315015420061700,12.477061767578125,0.018935203552246094,-0.007344672456383705,0.0031801313161849976
1761315015438983400,12.4959833984375,0.004347801208496094,0.014275583438575268,0.0030197948217391968
1761315015457905000,12.51490478515625,-0.011992454528808594,-0.007115626707673073,-0.006492003798484802
1761315015476826400,12.533826416015625,0.00020694732666015625,-0.002388322725892067,0.005212463438510895
1761315015495748000,12.552748046875,0.000041961669921875,0.014221365563571453,0.0002791881561279297
1761315015514669600,12.571669677734375,0.00243377685546875,0.009560112841427326,0.014599025249481201
1761315015533591000,12.590591064453125,-0.011450767517089844,0.014403785578906536,-0.001946665346622467
1761315015552512500,12.609512451171875,0.01712322235107422,-0.011501839384436607,0.002981022000312805
1761315015571434200,12.628434326171876,-0.009168624877929688,-0.0065437983721494675,0.0026469752192497253
1761315015590355700,12.647355712890626,-0.02074718475341797,0.007772454991936684,-0.01167614758014679
1761315015609277200,12.666277099609376,0.0032339096069335938,0.0006188247352838516,-0.004411980509757996
1761315015628198700,12.68519873046875,0.022027969360351562,0.0032075196504592896,-0.0021643489599227905
1761315015647120400,12.704120361328124,-0.011485099792480469,0.005672598257660866,0.011962547898292542
1761315015666041900,12.723041748046874,-0.006398200988769531,0.012706614099442959,-0.006926432251930237
1761315015684963300,12.74196337890625,0.005263328552246094,0.007819753140211105,-0.004501469433307648
1761315015703884800,12.760884765625,0.012068748474121094,-0.004025660455226898,-0.013497114181518555
1761315015722806500,12.779806640625,-0.013781547546386719,0.0055406782776117325,0.010202690958976746
1761315015741728000,12.79872802734375,0.0052623748779296875,0.012751585803925991,-0.0063309818506240845
1761315015760649500,12.8176494140625,0.023675918579101562,0.0033307932317256927,-0.00881107896566391
1761315015779571000,12.836571044921875,-0.007381439208984375,0.022104375064373016,-0.011007219552993774
1761315015798492700,12.85549267578125,-0.011765480041503906,-0.006738452240824699,0.005843356251716614
1761315015817414100,12.8744140625,-0.006827354431152344,-0.0011759474873542786,-0.010820850729942322
1761315015836335600,12.893335693359376,0.0024175643920898438,0.010782790370285511,-0.0035613849759101868
1761315015855257300,12.91225732421875,-0.018683433532714844,0.0013106092810630798,0.0034658536314964294
1761315015874178800,12.9311787109375,0.005148887634277344,0.003530465066432953,-0.013332165777683258
1761315015893100300,12.950100341796874,0.00027179718017578125,-0.024722779169678688,0.0007555261254310608
1761315015912021800,12.969021728515624,0.012144088745117188,0.015613124705851078,0.0032390952110290527
1761315015930943500,12.987943603515625,-0.0020608901977539062,0.01326842699199915,-0.008829087018966675
1761315015949865000,13.006864990234375,0.02851581573486328,0.027517426759004593,0.0004665181040763855
1761315015968786400,13.025786376953125,-0.0048980712890625,0.024942481890320778,-0.016176551580429077
1761315015987708000,13.0447080078125,-0.01665782928466797,0.0031419284641742706,0.01243641972541809
1761315016006629600,13.063629638671875,0.011814117431640625,0.0051992665976285934,-0.004014097154140472
1761315016025551000,13.082551025390625,0.004523277282714844,0.012231766246259212,-0.0016855448484420776
1761315016044472600,13.10147265625,-0.0073909759521484375,-0.006991760805249214,-0.006492793560028076
1761315016063394000,13.12039404296875,0.004656791687011719,-0.004473907873034477,-0.003925427794456482
1761315016082315800,13.139315673828126,-0.007340431213378906,0.02178994007408619,-0.003873392939567566
1761315016101237200,13.1582373046875,0.004353523254394531,0.018761789426207542,0.005705282092094421
1761315016120158700,13.17715869140625,0.009189605712890625,0.004610154777765274,-0.0014640316367149353
1761315016139080200,13.196080078125,0.009042739868164062,0.011882915161550045,-0.006356909871101379
1761315016158002000,13.215001953125,-0.00051116943359375,0.02617562748491764,0.0009512826800346375
1761315016176923400,13.23392333984375,-0.014455795288085938,0.0212540440261364,-0.0014737024903297424
1761315016195844900,13.252844970703125,-0.004528999328613281,0.006870109587907791,-0.0038331449031829834
1761315016214766300,13.271766357421875,0.004992485046386719,0.006647931411862373,0.003257952630519867
1761315016233688000,13.29068798828125,-0.009369850158691406,0.008763416670262814,-0.015650995075702667
1761315016252609500,13.309609619140625,-0.001922607421875,0.006370039656758308,-0.010765254497528076
1761315016271531000,13.328531005859375,-0.0019388198852539062,0.013473923318088055,0.010828807950019836
1761315016290452700,13.34745263671875,0.0004787445068359375,0.015888633206486702,0.015505902469158173
1761315016309374200,13.366374267578125,-0.009066581726074219,0.013195821084082127,-0.013046219944953918
1761315016328295700,13.385295654296876,0.007624626159667969,0.003864085301756859,0.0035484060645103455
1761315016347217200,13.404217041015626,0.0024700164794921875,-0.0005950834602117538,0.0008651614189147949
1761315016366139000,13.423138916015626,-0.004474639892578125,0.009075979702174664,0.010365761816501617
1761315016385060400,13.442060302734374,-0.009074211120605469,-0.0027647819370031357,-0.0038132667541503906
1761315016403981800,13.46098193359375,0.0028324127197265625,-0.014181306585669518,0.010240979492664337
1761315016422903300,13.4799033203125,-0.0065555572509765625,0.01694246381521225,-0.01111748069524765
1761315016441825000,13.498824951171875,-0.0064563751220703125,-0.0023417696356773376,-0.006499245762825012
1761315016460746500,13.51774658203125,-0.0014600753784179688,0.018871186301112175,0.003064371645450592
1761315016479668000,13.53666796875,0.0010204315185546875,-0.00041983090341091156,-0.013358071446418762
1761315016498589400,13.55558935546875,-0.0083465576171875,-0.00022818706929683685,0.01280878484249115
1761315016517511200,13.57451123046875,-0.012856483459472656,0.009212602861225605,-0.011003158986568451
1761315016536432600,13.5934326171875,0.00862884521484375,0.011572659946978092,0.007650405168533325
1761315016555354000,13.61235400390625,0.0036373138427734375,0.01838749274611473,-0.004288963973522186
1761315016574275800,13.63127587890625,-0.008406639099121094,0.006366770714521408,0.018894724547863007
1761315016593197300,13.650197265625,0.013164520263671875,-0.0076432861387729645,0.020968839526176453
1761315016612118800,13.669118896484376,0.0054759979248046875,-0.005030687898397446,-0.019332729279994965
1761315016631040300,13.688040283203126,-0.008863449096679688,0.013768318109214306,-0.019063420593738556
1761315016649962000,13.7069619140625,-0.004062652587890625,0.0018595755100250244,0.004200935363769531
1761315016668883500,13.725883544921874,-0.004008293151855469,-0.002634746953845024,0.01126071810722351
1761315016687805000,13.744804931640624,0.017301559448242188,0.01366936694830656,-0.010092131793498993
1761315016706726400,13.763726318359375,0.005200386047363281,0.018275218084454536,-0.0005980581045150757
1761315016725648100,13.782648193359375,0.0027532577514648438,0.006358712911605835,-0.021732360124588013
1761315016744569600,13.801569580078125,-0.006867408752441406,0.0018400643020868301,0.01151219755411148
1761315016763491000,13.820490966796875,-0.008915901184082031,0.001957615837454796,-0.004969745874404907
1761315016782412500,13.83941259765625,-0.017915725708007812,0.013851984404027462,-0.021182186901569366
1761315016801334300,13.858334228515625,0.010400772094726562,0.020630698651075363,0.00030209869146347046
1761315016820255700,13.877255859375,-0.00202178955078125,-0.007912704721093178,0.007273219525814056
1761315016839177200,13.89617724609375,-0.0017976760864257812,0.006566448137164116,-0.004676438868045807
1761315016858098700,13.9150986328125,0.010339736938476562,-0.016687365248799324,-0.0071497708559036255
1761315016877020400,13.9340205078125,-0.0039234161376953125,0.00941458623856306,-0.01412932574748993
1761315016895942000,13.95294189453125,-0.011049270629882812,0.004575274884700775,-0.0092703178524971
1761315016914863400,13.97186328125,-0.001430511474609375,0.006993969902396202,-0.004548363387584686
1761315016933784800,13.990784912109374,0.012576103210449219,0.016392702236771584,-0.011591531336307526
1761315016952706600,14.00970654296875,-0.00403594970703125,-0.019030220806598663,0.018696419894695282
1761315016971628000,14.0286279296875,-0.010960578918457031,0.00007469393312931061,-0.012102246284484863
1761315016990549500,14.047549560546875,0.012694358825683594,0.004956474527716637,-0.004894651472568512
1761315017009471000,14.066470947265625,0.014628410339355469,0.014169522561132908,-0.014269456267356873
1761315017028392700,14.085392822265625,-0.006718635559082031,0.004434326663613319,-0.00710856169462204
1761315017047314200,14.104314208984375,-0.008889198303222656,-0.005025256425142288,-0.009170815348625183
1761315017066235600,14.123235595703125,0.009836196899414062,0.00012012757360935211,-0.008914180099964142
1761315017085157000,14.1421572265625,-0.01860523223876953,0.011918029747903347,0.00977230817079544
1761315017104078800,14.161078857421876,0.0007152557373046875,0.016619473695755005,-0.004354849457740784
1761315017123000300,14.180000244140626,0.010103225708007812,-0.014089424163103104,-0.018328770995140076
1761315017141921800,14.198921875,0.0002002716064453125,-0.006677249446511269,0.0008259117603302002
1761315017160843300,14.21784326171875,-0.011452674865722656,0.005783110857009888,-0.013421237468719482
1761315017179765000,14.236764892578124,0.012258529663085938,0.003575153648853302,0.001218169927597046
1761315017198686500,14.2556865234375,0.007187843322753906,0.013086329214274883,-0.003574483096599579
1761315017217608000,14.27460791015625,-0.004815101623535156,0.017678622156381607,0.012817993760108948
1761315017236529700,14.29352978515625,-0.014067649841308594,-0.0037083718925714493,0.008214585483074188
1761315017255451100,14.312451171875,0.021338462829589844,-0.0011564772576093674,-0.012998461723327637
1761315017274372600,14.33137255859375,0.0020456314086914062,-0.010540757328271866,-0.019926004111766815
1761315017293294000,14.350294189453125,-0.016689300537109375,-0.008085429668426514,0.003792084753513336
1761315017312215800,14.3692158203125,0.014372825622558594,-0.010266907513141632,0.006270445883274078
1761315017331137300,14.38813720703125,0.01613140106201172,0.015992343425750732,-0.00108993798494339
1761315017350058800,14.407058837890625,-0.003108978271484375,0.0013503897935152054,-0.01083449274301529
1761315017368980200,14.425980224609376,-0.017241477966308594,-0.00806095078587532,0.003444872796535492
1761315017387902000,14.44490185546875,0.26350975036621094,-0.06685800105333328,0.1182471439242363
1761315017406823400,14.463823486328126,-0.3003578186035156,0.077837735414505,-0.1712830513715744
1761315017425745000,14.482744873046874,0.09565448760986328,-0.016255533322691917,0.04739649221301079
1761315017444666400,14.501666259765624,0.0763082504272461,-0.030353406444191933,0.0489046648144722
