time,seconds_elapsed,z,y,x
1761315003149436000,0.206435791015625,0.0005344913806766272,-0.0004581354442052543,-0.0009926267666742206
1761315003168357400,0.225357421875,-0.00007635590736754239,0.00015271181473508477,-0.0009926267666742206
1761315003187278800,0.24427880859375,0.0005344913806766272,-0.0010689827613532543,-0.0009926267666742206
1761315003206200300,0.263200439453125,0.0005344913806766272,0.0007635590736754239,-0.0009926267666742206
1761315003225121800,0.282121826171875,-0.00007635590736754239,-0.0010689827613532543,-0.0009926267666742206
1761315003244043300,0.301043212890625,0.0011453386396169662,0.00015271181473508477,-0.00038177953683771193
1761315003262965000,0.319965087890625,-0.00007635590736754239,-0.0010689827613532543,-0.0009926267666742206
1761315003281886500,0.338886474609375,0.0005344913806766272,0.00015271181473508477,-0.0009926267666742206
1761315003300808000,0.357807861328125,0.0005344913806766272,-0.0010689827613532543,-0.0009926267666742206
1761315003319729400,0.3767294921875,0.0005344913806766272,0.00015271181473508477,-0.0009926267666742206
1761315003338651000,0.39565087890625,0.0005344913806766272,-0.0004581354442052543,-0.0009926267666742206
1761315003357572600,0.414572509765625,0.0011453386396169662,-0.0004581354442052543,-0.0009926267666742206
1761315003376494000,0.433494140625,0.0005344913806766272,-0.0004581354442052543,-0.0009926267666742206
1761315003395415600,0.45241552734375,-0.00007635590736754239,-0.0004581354442052543,-0.0009926267666742206
1761315003414337000,0.4713369140625,-0.00007635590736754239,-0.0004581354442052543,-0.0009926267666742206
1761315003433258500,0.490258544921875,0.0005344913806766272,0.00015271181473508477,-0.0009926267666742206
1761315003452180200,0.50918017578125,0.0005344913806766272,-0.0004581354442052543,-0.0009926267666742206
1761315003471101700,0.528101806640625,-0.00007635590736754239,0.00015271181473508477,-0.0009926267666742206
1761315003490023200,0.547023193359375,-0.00007635590736754239,-0.0004581354442052543,-0.0009926267666742206
1761315003508944600,0.565944580078125,-0.00007635590736754239,-0.0010689827613532543,-0.0009926267666742206
1761315003527866000,0.5848662109375,-0.00007635590736754239,0.00015271181473508477,-0.0009926267666742206
1761315003546787800,0.603787841796875,-0.00007635590736754239,-0.0004581354442052543,-0.0009926267666742206
1761315003565709300,0.622709228515625,0.0005344913806766272,-0.0004581354442052543,-0.0009926267666742206
1761315003584630800,0.641630859375,-0.00007635590736754239,-0.0004581354442052543,-0.0009926267666742206
1761315003603552300,0.66055224609375,-0.00007635590736754239,0.00015271181473508477,-0.00038177953683771193
1761315003622473700,0.6794736328125,0.0005344913806766272,-0.0010689827613532543,-0.00038177953683771193
1761315003641395500,0.6983955078125,0.0005344913806766272,0.00015271181473508477,-0.0009926267666742206
1761315003660317000,0.71731689453125,-0.00007635590736754239,0.00015271181473508477,-0.0009926267666742206
1761315003679238400,0.73623828125,-0.00007635590736754239,0.00015271181473508477,-0.0009926267666742206
1761315003698159900,0.755159912109375,-0.00007635590736754239,-0.0004581354442052543,-0.00038177953683771193
1761315003717081300,0.774081298828125,0.0005344913806766272,-0.0004581354442052543,-0.0016034740256145597
1761315003736003000,0.793003173828125,-0.00007635590736754239,-0.0004581354442052543,-0.0009926267666742206
1761315003754924500,0.811924560546875,0.0005344913806766272,-0.0004581354442052543,-0.0009926267666742206
1761315003773846000,0.830845947265625,-0.00007635590736754239,-0.0004581354442052543,-0.0009926267666742206
1761315003792767500,0.849767578125,0.0005344913806766272,0.00015271181473508477,-0.00038177953683771193
1761315003811689200,0.868689208984375,0.0005344913806766272,0.0007635590736754239,-0.00038177953683771193
1761315003830610700,0.887610595703125,-0.00007635590736754239,0.00015271181473508477,-0.0009926267666742206
1761315003849532200,0.9065322265625,0.0005344913806766272,0.00015271181473508477,-0.0016034740256145597
1761315003868453600,0.92545361328125,0.0005344913806766272,-0.0004581354442052543,-0.0009926267666742206
1761315003887375000,0.944375,-0.00007635590736754239,0.00015271181473508477,-0.0009926267666742206
1761315003906296800,0.963296875,0.0005344913806766272,0.00015271181473508477,-0.0009926267666742206
1761315003925218300,0.98221826171875,-0.00007635590736754239,-0.0004581354442052543,-0.0009926267666742206
1761315003944139800,1.001139892578125,0.0005344913806766272,-0.0004581354442052543,-0.0009926267666742206
1761315003963061200,1.020061279296875,0.0005344913806766272,-0.0004581354442052543,-0.0009926267666742206
1761315003981983000,1.03898291015625,0.0005344913806766272,-0.0004581354442052543,-0.0016034740256145597
1761315004000904400,1.057904541015625,-0.00007635590736754239,-0.0004581354442052543,-0.00038177953683771193
1761315004019826000,1.076825927734375,0.0005344913806766272,-0.0010689827613532543,-0.0009926267666742206
1761315004038747400,1.095747314453125,0.0005344913806766272,-0.0004581354442052543,-0.00038177953683771193
1761315004057669000,1.114669189453125,0.0005344913806766272,-0.0010689827613532543,-0.0016034740256145597
1761315004076590600,1.133590576171875,0.0005344913806766272,-0.0004581354442052543,-0.0009926267666742206
1761315004095512000,1.152511962890625,0.0005344913806766272,-0.0004581354442052543,-0.0009926267666742206
1761315004114433500,1.17143359375,0.0005344913806766272,-0.0010689827613532543,-0.00038177953683771193
1761315004133355000,1.19035498046875,-0.00007635590736754239,-0.0004581354442052543,-0.0009926267666742206
1761315004152276700,1.20927685546875,-0.00129805039614439,0.04963133856654167,0.014278554357588291
1761315004171198200,1.2281982421875,0.0017561858985573053,-0.050547610968351364,-0.018096350133419037
1761315004190119700,1.24711962890625,0.0017561858985573053,-0.03527642786502838,-0.011987877078354359
1761315004209041200,1.266041259765625,-0.0019088976550847292,0.06368082761764526,0.022219568490982056
1761315004227963000,1.284962890625,0.0017561858985573053,-0.062153708189725876,-0.022372281178832054
1761315004246884400,1.30388427734375,-0.000687203137204051,0.05085303261876106,0.016721943393349648
1761315004265805800,1.322805908203125,0.0011453386396169662,-0.03588727489113808,-0.01382041908800602
1761315004284727300,1.341727294921875,-0.00007635590736754239,0.021532366052269936,0.006948387715965509
1761315004303649000,1.36064892578125,0.0005344913806766272,-0.012064233422279358,-0.004657710436731577
1761315004322570500,1.379570556640625,0.0005344913806766272,0.005650337319821119,0.00022906772210262716
1761315004341492000,1.398491943359375,0.0005344913806766272,-0.0010689827613532543,-0.0009926267666742206
1761315004360413400,1.417413330078125,0.0005344913806766272,-0.0016798300202935934,-0.0016034740256145597
1761315004379335200,1.436335205078125,0.0005344913806766272,0.00259610079228878,-0.00038177953683771193
1761315004398256600,1.455256591796875,-0.00007635590736754239,-0.0035123717971146107,-0.0022143214009702206
1761315004417178000,1.47417822265625,-0.00007635590736754239,0.0032069480512291193,0.00022906772210262716
1761315004436099800,1.493099853515625,0.0005344913806766272,-0.0035123717971146107,-0.0016034740256145597
1761315004455021300,1.512021240234375,-0.00007635590736754239,0.00259610079228878,-0.00038177953683771193
1761315004473942800,1.53094287109375,-0.00007635590736754239,-0.0022906772792339325,-0.0016034740256145597
1761315004492864300,1.5498642578125,-0.00007635590736754239,0.0007635590736754239,-0.00038177953683771193
1761315004511786000,1.568785888671875,-0.00007635590736754239,-0.0016798300202935934,-0.0009926267666742206
1761315004530707500,1.58770751953125,-0.00007635590736754239,0.00015271181473508477,-0.0009926267666742206
1761315004549629000,1.60662890625,-0.00007635590736754239,-0.0016798300202935934,-0.0009926267666742206
1761315004568550400,1.62555029296875,-0.00007635590736754239,0.00015271181473508477,-0.0009926267666742206
1761315004587472100,1.64447216796875,-0.00007635590736754239,-0.0004581354442052543,-0.0009926267666742206
1761315004606393600,1.6633935546875,0.0005344913806766272,-0.0004581354442052543,-0.00038177953683771193
1761315004625315000,1.682315185546875,-0.00007635590736754239,-0.0004581354442052543,-0.0009926267666742206
1761315004644236500,1.701236572265625,0.0005344913806766272,-0.0004581354442052543,-0.0009926267666742206
1761315004663158300,1.720158203125,0.0005344913806766272,-0.0004581354442052543,-0.0009926267666742206
1761315004682079700,1.739079833984375,0.0011453386396169662,-0.0004581354442052543,-0.0009926267666742206
1761315004701001200,1.758001220703125,0.0005344913806766272,0.00015271181473508477,-0.0009926267666742206
1761315004719923000,1.7769228515625,-0.00007635590736754239,-0.0004581354442052543,-0.0009926267666742206
1761315004738844400,1.795844482421875,0.0005344913806766272,-0.0004581354442052543,-0.0009926267666742206
1761315004757766000,1.814765869140625,0.0005344913806766272,-0.0004581354442052543,-0.0009926267666742206
1761315004776687400,1.833687255859375,0.0011453386396169662,-0.0004581354442052543,-0.00038177953683771193
1761315004795609000,1.852609130859375,0.0005344913806766272,-0.0010689827613532543,-0.00038177953683771193
1761315004814530600,1.871530517578125,0.0005344913806766272,0.00015271181473508477,-0.0009926267666742206
1761315004833452000,1.8904521484375,0.0011453386396169662,0.00015271181473508477,-0.0009926267666742206
1761315004852373800,1.909373779296875,0.0005344913806766272,0.00015271181473508477,-0.0009926267666742206
1761315004871295200,1.928295166015625,0.0005344913806766272,-0.0004581354442052543,-0.0009926267666742206
1761315004890216700,1.947216796875,0.0005344913806766272,-0.0010689827613532543,-0.0009926267666742206
1761315004909138200,1.96613818359375,0.0005344913806766272,0.00015271181473508477,-0.00038177953683771193
1761315004928060000,1.985059814453125,0.0011453386396169662,0.00015271181473508477,-0.00038177953683771193
1761315004946981400,2.0039814453125,0.0005344913806766272,-0.0004581354442052543,-0.0016034740256145597
1761315004965902800,2.02290283203125,-0.00007635590736754239,-0.0004581354442052543,-0.00038177953683771193
1761315004984824600,2.041824462890625,0.0005344913806766272,-0.0010689827613532543,-0.00038177953683771193
1761315005003746000,2.06074609375,-0.00007635590736754239,-0.0004581354442052543,-0.0009926267666742206
1761315005022667500,2.07966748046875,0.0005344913806766272,-0.0004581354442052543,-0.0016034740256145597
1761315005041589000,2.098589111328125,0.0005344913806766272,0.00015271181473508477,-0.00038177953683771193
1761315005060510700,2.1175107421875,-0.00007635590736754239,-0.0004581354442052543,-0.00038177953683771193
1761315005079432200,2.13643212890625,0.0005344913806766272,-0.0004581354442052543,-0.0009926267666742206
1761315005098353700,2.155353759765625,0.0005344913806766272,0.00015271181473508477,-0.0009926267666742206
1761315005117275400,2.174275390625,0.0005344913806766272,-0.0004581354442052543,-0.0009926267666742206
1761315005136196900,2.19319677734375,-0.00007635590736754239,-0.0004581354442052543,-0.00038177953683771193
1761315005155118300,2.212118408203125,-0.00007635590736754239,-0.0010689827613532543,-0.0009926267666742206
1761315005174040000,2.2310400390625,0.0005344913806766272,-0.0004581354442052543,-0.0009926267666742206
1761315005192961500,2.24996142578125,-0.00007635590736754239,-0.0004581354442052543,-0.0009926267666742206
1761315005211883000,2.268883056640625,0.0005344913806766272,-0.0004581354442052543,-0.0016034740256145597
1761315005230804700,2.2878046875,-0.00007635590736754239,-0.0010689827613532543,-0.0009926267666742206
1761315005249726200,2.306726318359375,-0.00007635590736754239,-0.0004581354442052543,-0.0009926267666742206
1761315005268647700,2.325647705078125,0.0005344913806766272,-0.0004581354442052543,-0.0009926267666742206
1761315005287569200,2.344569091796875,-0.000687203137204051,-0.0004581354442052543,-0.00038177953683771193
1761315005306491000,2.363490966796875,0.0011453386396169662,-0.0004581354442052543,-0.0009926267666742206
1761315005325412400,2.382412353515625,-0.00007635590736754239,-0.0004581354442052543,-0.00038177953683771193
1761315005344333800,2.401333740234375,0.0005344913806766272,0.00015271181473508477,-0.0009926267666742206
1761315005363255600,2.420255615234375,-0.00007635590736754239,0.00015271181473508477,-0.0009926267666742206
1761315005382177000,2.439177001953125,-0.00007635590736754239,-0.0004581354442052543,-0.00038177953683771193
1761315005401098500,2.458098388671875,0.0005344913806766272,-0.0004581354442052543,-0.0009926267666742206
1761315005420020200,2.477020263671875,-0.00007635590736754239,-0.0004581354442052543,-0.00038177953683771193
1761315005438941700,2.495941650390625,-0.00007635590736754239,0.00015271181473508477,-0.0009926267666742206
1761315005457863200,2.51486328125,-0.00007635590736754239,0.00015271181473508477,-0.0009926267666742206
1761315005476785000,2.533784912109375,-0.000687203137204051,0.00015271181473508477,-0.0009926267666742206
1761315005495706400,2.552706298828125,-0.00007635590736754239,-0.0004581354442052543,-0.00038177953683771193
1761315005514627800,2.5716279296875,-0.00007635590736754239,-0.0004581354442052543,-0.0016034740256145597
1761315005533549300,2.59054931640625,0.0005344913806766272,0.00015271181473508477,-0.0009926267666742206
1761315005552471000,2.609470947265625,0.0005344913806766272,-0.0010689827613532543,-0.0009926267666742206
1761315005571392500,2.628392578125,0.0005344913806766272,-0.0004581354442052543,-0.0009926267666742206
1761315005590314200,2.647314208984375,-0.00007635590736754239,-0.0004581354442052543,-0.0016034740256145597
1761315005609235700,2.666235595703125,0.0005344913806766272,0.00015271181473508477,-0.0009926267666742206
1761315005628157200,2.6851572265625,0.0005344913806766272,-0.0004581354442052543,-0.00038177953683771193
1761315005647078700,2.70407861328125,0.0005344913806766272,-0.0004581354442052543,-0.0009926267666742206
1761315005666000400,2.72300048828125,0.0005344913806766272,-0.0010689827613532543,-0.0016034740256145597
1761315005684921900,2.741921875,-0.00007635590736754239,-0.0004581354442052543,-0.00038177953683771193
1761315005703843300,2.76084326171875,0.0005344913806766272,-0.0004581354442052543,-0.0009926267666742206
1761315005722765000,2.77976513671875,0.0005344913806766272,-0.0004581354442052543,-0.0009926267666742206
1761315005741686500,2.7986865234375,-0.00007635590736754239,-0.0004581354442052543,-0.0009926267666742206
1761315005760608300,2.817608154296875,-0.00007635590736754239,-0.0004581354442052543,-0.00038177953683771193
1761315005779529700,2.83652978515625,-0.00007635590736754239,-0.0004581354442052543,-0.0009926267666742206
1761315005798451200,2.855451171875,-0.00007635590736754239,-0.0010689827613532543,-0.0009926267666742206
1761315005817372700,2.87437255859375,-0.00007635590736754239,-0.0004581354442052543,-0.00038177953683771193
1761315005836294400,2.89329443359375,0.0005344913806766272,0.00015271181473508477,-0.0009926267666742206
1761315005855215900,2.9122158203125,0.0005344913806766272,0.00015271181473508477,-0.0009926267666742206
1761315005874137300,2.931137451171875,0.0005344913806766272,-0.0010689827613532543,-0.0009926267666742206
1761315005893059000,2.95005908203125,0.0005344913806766272,-0.0004581354442052543,-0.00038177953683771193
1761315005911980500,2.96898046875,0.0005344913806766272,-0.0004581354442052543,-0.0016034740256145597
1761315005930902000,2.987902099609375,0.0005344913806766272,-0.0004581354442052543,-0.0009926267666742206
1761315005949823700,3.00682373046875,-0.00007635590736754239,-0.0010689827613532543,-0.00038177953683771193
1761315005968745200,3.0257451171875,-0.00007635590736754239,-0.0004581354442052543,-0.0009926267666742206
1761315005987666700,3.044666748046875,-0.00007635590736754239,-0.0010689827613532543,-0.0009926267666742206
1761315006006588400,3.06358837890625,-0.00007635590736754239,0.00015271181473508477,-0.0009926267666742206
1761315006025510000,3.082510009765625,-0.00007635590736754239,-0.0004581354442052543,-0.00038177953683771193
1761315006044431400,3.101431396484375,0.0005344913806766272,0.00015271181473508477,-0.00038177953683771193
1761315006063353000,3.12035302734375,0.0005344913806766272,-0.0004581354442052543,-0.00038177953683771193
1761315006082274600,3.139274658203125,0.0005344913806766272,-0.0004581354442052543,-0.00038177953683771193
1761315006101196000,3.158196044921875,0.0005344913806766272,0.00015271181473508477,-0.0009926267666742206
1761315006120117800,3.17711767578125,-0.00007635590736754239,-0.0010689827613532543,-0.0009926267666742206
1761315006139039200,3.196039306640625,0.0005344913806766272,0.00015271181473508477,-0.0009926267666742206
1761315006157960700,3.214960693359375,0.0005344913806766272,-0.0004581354442052543,-0.0009926267666742206
1761315006176882400,3.23388232421875,0.0005344913806766272,-0.0004581354442052543,-0.0009926267666742206
1761315006195804000,3.252803955078125,-0.00007635590736754239,0.00015271181473508477,-0.00038177953683771193
1761315006214725400,3.271725341796875,0.0005344913806766272,-0.0004581354442052543,-0.0009926267666742206
1761315006233647000,3.290647216796875,-0.00007635590736754239,-0.0004581354442052543,-0.00038177953683771193
1761315006252568600,3.309568603515625,0.0005344913806766272,-0.0010689827613532543,-0.0009926267666742206
1761315006271490000,3.328489990234375,0.0005344913806766272,-0.0010689827613532543,-0.0009926267666742206
1761315006290411800,3.347411865234375,-0.00007635590736754239,-0.0004581354442052543,-0.0009926267666742206
1761315006309333200,3.366333251953125,0.0005344913806766272,-0.0004581354442052543,-0.0009926267666742206
1761315006328255000,3.3852548828125,0.0005344913806766272,-0.0004581354442052543,-0.0009926267666742206
1761315006347176400,3.404176513671875,0.0005344913806766272,-0.0010689827613532543,-0.0009926267666742206
1761315006366098000,3.423097900390625,-0.00007635590736754239,0.00015271181473508477,-0.0009926267666742206
1761315006385019600,3.44201953125,0.0005344913806766272,-0.0004581354442052543,-0.00038177953683771193
1761315006403941000,3.460941162109375,0.0005344913806766272,0.00015271181473508477,-0.0009926267666742206
1761315006422862600,3.479862548828125,-0.00007635590736754239,-0.0010689827613532543,-0.00038177953683771193
1761315006441784300,3.498784423828125,-0.00007635590736754239,-0.0010689827613532543,-0.0009926267666742206
1761315006460705800,3.517705810546875,0.0005344913806766272,0.00015271181473508477,-0.0009926267666742206
1761315006479627300,3.536627197265625,0.0005344913806766272,0.00015271181473508477,-0.0009926267666742206
1761315006498548700,3.555548828125,-0.00007635590736754239,-0.0004581354442052543,-0.00038177953683771193
1761315006517470500,3.574470458984375,0.0005344913806766272,-0.0010689827613532543,-0.0016034740256145597
1761315006536392000,3.593391845703125,0.0005344913806766272,-0.0004581354442052543,-0.0009926267666742206
1761315006555313700,3.612313720703125,0.0005344913806766272,0.00015271181473508477,-0.00038177953683771193
1761315006574235100,3.631235107421875,0.0005344913806766272,-0.0004581354442052543,-0.00038177953683771193
1761315006593156600,3.650156494140625,-0.00007635590736754239,-0.0010689827613532543,-0.0009926267666742206
1761315006612078300,3.669078369140625,-0.00007635590736754239,-0.0004581354442052543,-0.0009926267666742206
1761315006630999800,3.687999755859375,0.0005344913806766272,0.00015271181473508477,-0.0009926267666742206
1761315006649921300,3.70692138671875,0.0005344913806766272,-0.0004581354442052543,-0.0009926267666742206
1761315006668843000,3.725843017578125,0.0005344913806766272,0.00015271181473508477,-0.00038177953683771193
1761315006687764500,3.744764404296875,-0.00007635590736754239,0.0007635590736754239,-0.00038177953683771193
1761315006706686000,3.76368603515625,0.0005344913806766272,-0.0004581354442052543,-0.0009926267666742206
1761315006725607700,3.782607666015625,-0.00007635590736754239,-0.0004581354442052543,-0.0016034740256145597
1761315006744529200,3.801529052734375,-0.00007635590736754239,0.00015271181473508477,-0.0009926267666742206
1761315006763450600,3.82045068359375,0.0005344913806766272,-0.0004581354442052543,-0.0009926267666742206
1761315006782372400,3.839372314453125,-0.00007635590736754239,-0.0004581354442052543,-0.00038177953683771193
1761315006801293800,3.8582939453125,-0.00007635590736754239,-0.0010689827613532543,-0.00038177953683771193
1761315006820215300,3.87721533203125,-0.00007635590736754239,0.00015271181473508477,-0.0009926267666742206
1761315006839137000,3.896136962890625,0.0005344913806766272,0.00015271181473508477,-0.0009926267666742206
1761315006858058500,3.91505859375,0.0005344913806766272,-0.0004581354442052543,-0.0016034740256145597
1761315006876980200,3.933980224609375,0.0005344913806766272,-0.0010689827613532543,-0.0016034740256145597
1761315006895901700,3.952901611328125,-0.00007635590736754239,-0.0004581354442052543,-0.0009926267666742206
1761315006914823200,3.9718232421875,0.0005344913806766272,0.0007635590736754239,-0.00038177953683771193
1761315006933745000,3.990744873046875,0.0005344913806766272,-0.0004581354442052543,-0.0009926267666742206
1761315006952666400,4.009666259765625,0.0005344913806766272,-0.0010689827613532543,-0.0009926267666742206
1761315006971587800,4.028587890625,-0.00007635590736754239,-0.0004581354442052543,-0.00038177953683771193
1761315006990509600,4.047509521484375,-0.00007635590736754239,-0.0004581354442052543,-0.00038177953683771193
1761315007009431000,4.06643115234375,-0.00007635590736754239,-0.0010689827613532543,-0.00038177953683771193
1761315007028352500,4.0853525390625,-0.00007635590736754239,-0.0004581354442052543,-0.0009926267666742206
1761315007047274200,4.104274169921875,-0.00007635590736754239,-0.0010689827613532543,-0.0016034740256145597
1761315007066195700,4.12319580078125,0.0011453386396169662,0.00015271181473508477,-0.00038177953683771193
1761315007085117200,4.1421171875,0.0005344913806766272,0.00015271181473508477,-0.0009926267666742206
1761315007104039000,4.161038818359375,-0.00007635590736754239,-0.0010689827613532543,-0.0009926267666742206
1761315007122960400,4.17996044921875,0.0005344913806766272,-0.0004581354442052543,-0.00038177953683771193
1761315007141881900,4.1988818359375,0.0005344913806766272,0.00015271181473508477,-0.0009926267666742206
1761315007160803600,4.217803466796875,0.0005344913806766272,-0.0016798300202935934,-0.0009926267666742206
1761315007179725000,4.23672509765625,-0.00007635590736754239,-0.0004581354442052543,-0.0009926267666742206
1761315007198646800,4.255646728515625,-0.000687203137204051,0.00015271181473508477,-0.0009926267666742206
1761315007217568300,4.274568359375,0.0005344913806766272,-0.0004581354442052543,-0.00038177953683771193
1761315007236489700,4.29348974609375,0.0005344913806766272,0.00015271181473508477,-0.0009926267666742206
1761315007255411500,4.312411376953125,0.0005344913806766272,-0.0010689827613532543,-0.0016034740256145597
1761315007274333000,4.3313330078125,0.0005344913806766272,-0.0004581354442052543,-0.0009926267666742206
1761315007293254400,4.35025439453125,0.0005344913806766272,0.0007635590736754239,-0.00038177953683771193
1761315007312176000,4.369176025390625,0.0005344913806766272,0.0007635590736754239,-0.0009926267666742206
1761315007331097600,4.38809765625,0.0005344913806766272,-0.0010689827613532543,-0.0009926267666742206
1761315007350019000,4.40701904296875,0.0005344913806766272,0.0007635590736754239,-0.0009926267666742206
1761315007368940800,4.42594091796875,0.0005344913806766272,0.0007635590736754239,-0.0009926267666742206
1761315007387862300,4.4448623046875,-0.00007635590736754239,0.00015271181473508477,-0.0009926267666742206
1761315007406783700,4.46378369140625,0.0005344913806766272,0.00015271181473508477,-0.00038177953683771193
1761315007425705500,4.48270556640625,0.0005344913806766272,0.00015271181473508477,-0.0009926267666742206
1761315007444627000,4.501626953125,0.0005344913806766272,-0.0004581354442052543,-0.0009926267666742206
1761315007463548700,4.520548583984375,-0.00007635590736754239,-0.0010689827613532543,-0.0009926267666742206
1761315007482470100,4.53947021484375,-0.00007635590736754239,0.0007635590736754239,-0.00038177953683771193
1761315007501391600,4.5583916015625,-0.00007635590736754239,-0.0004581354442052543,-0.00038177953683771193
1761315007520313300,4.577313232421875,-0.00007635590736754239,-0.0004581354442052543,-0.0016034740256145597
1761315007539234800,4.59623486328125,-0.00007635590736754239,-0.0010689827613532543,-0.0016034740256145597
1761315007558156300,4.61515625,-0.00007635590736754239,0.00015271181473508477,-0.0009926267666742206
1761315007577078000,4.634078125,-0.00007635590736754239,0.00015271181473508477,-0.0009926267666742206
1761315007595999500,4.65299951171875,0.0005344913806766272,0.00015271181473508477,-0.00038177953683771193
1761315007614921200,4.671921142578125,0.0005344913806766272,-0.0010689827613532543,-0.0016034740256145597
1761315007633842700,4.6908427734375,0.0005344913806766272,0.00015271181473508477,-0.0009926267666742206
1761315007652764200,4.70976416015625,-0.00007635590736754239,0.0007635590736754239,-0.00038177953683771193
1761315007671686000,4.728685791015625,-0.00007635590736754239,0.00015271181473508477,-0.0009926267666742206
1761315007690607400,4.747607421875,0.0005344913806766272,-0.0010689827613532543,-0.0016034740256145597
1761315007709528800,4.76652880859375,0.0005344913806766272,-0.0004581354442052543,-0.0009926267666742206
1761315007728450600,4.785450439453125,-0.00007635590736754239,0.00015271181473508477,0.00022906772210262716
1761315007747372000,4.8043720703125,-0.00007635590736754239,-0.0004581354442052543,-0.00038177953683771193
1761315007766293500,4.82329345703125,-0.00007635590736754239,-0.0010689827613532543,-0.00038177953683771193
1761315007785215200,4.84221533203125,0.0005344913806766272,0.00015271181473508477,-0.00038177953683771193
1761315007804136700,4.86113671875,-0.00007635590736754239,0.00015271181473508477,-0.00038177953683771193
1761315007823058200,4.88005810546875,0.0005344913806766272,0.00015271181473508477,-0.0009926267666742206
1761315007841980000,4.89897998046875,0.0011453386396169662,-0.0004581354442052543,-0.0016034740256145597
1761315007860901400,4.9179013671875,-0.00007635590736754239,-0.0010689827613532543,-0.0009926267666742206
1761315007879822800,4.93682275390625,0.0005344913806766272,-0.0010689827613532543,-0.00038177953683771193
1761315007898744600,4.95574462890625,-0.00007635590736754239,-0.0010689827613532543,-0.00038177953683771193
1761315007917666000,4.974666015625,0.0005344913806766272,-0.0010689827613532543,-0.0009926267666742206
1761315007936587800,4.993587890625,-0.00007635590736754239,-0.0010689827613532543,-0.0009926267666742206
1761315007955509200,5.01250927734375,-0.00007635590736754239,-0.0004581354442052543,-0.00038177953683771193
1761315007974430700,5.0314306640625,0.0005344913806766272,-0.0004581354442052543,-0.0009926267666742206
1761315007993352400,5.0503525390625,-0.00007635590736754239,-0.0004581354442052543,-0.0009926267666742206
1761315008012274000,5.06927392578125,-0.00007635590736754239,-0.0010689827613532543,-0.0009926267666742206
1761315008031195400,5.0881953125,0.0005344913806766272,-0.0004581354442052543,-0.0009926267666742206
1761315008050117000,5.1071171875,-0.00007635590736754239,0.00015271181473508477,-0.0009926267666742206
1761315008069038600,5.12603857421875,0.0005344913806766272,-0.0010689827613532543,-0.00038177953683771193
1761315008087960000,5.1449599609375,0.0005344913806766272,-0.0004581354442052543,-0.0009926267666742206
1761315008106881800,5.1638818359375,-0.00007635590736754239,-0.0004581354442052543,-0.00038177953683771193
1761315008125803300,5.18280322265625,0.0005344913806766272,0.00015271181473508477,-0.0009926267666742206
1761315008144724700,5.201724853515625,0.0005344913806766272,-0.0004581354442052543,-0.0009926267666742206
1761315008163646500,5.220646484375,0.0005344913806766272,-0.0004581354442052543,-0.0009926267666742206
1761315008182568000,5.23956787109375,0.0005344913806766272,-0.0004581354442052543,-0.00038177953683771193
1761315008201489400,5.258489501953125,-0.00007635590736754239,-0.0004581354442052543,0.00022906772210262716
1761315008220411100,5.2774111328125,0.0005344913806766272,-0.0004581354442052543,-0.00038177953683771193
1761315008239332600,5.29633251953125,0.0005344913806766272,-0.0010689827613532543,-0.0009926267666742206
1761315008258254300,5.31525439453125,0.0005344913806766272,0.00015271181473508477,-0.0009926267666742206
1761315008277175800,5.33417578125,-0.00007635590736754239,0.00015271181473508477,-0.00038177953683771193
1761315008296097300,5.35309716796875,0.0005344913806766272,-0.0004581354442052543,-0.00038177953683771193
1761315008315019000,5.37201904296875,0.0005344913806766272,-0.0004581354442052543,-0.00038177953683771193
1761315008333940500,5.3909404296875,-0.00007635590736754239,0.00015271181473508477,-0.0009926267666742206
1761315008352862000,5.409862060546875,0.0005344913806766272,-0.0004581354442052543,-0.00038177953683771193
1761315008371783700,5.42878369140625,0.0005344913806766272,0.00015271181473508477,-0.0009926267666742206
1761315008390705200,5.447705078125,-0.00007635590736754239,-0.0004581354442052543,-0.0016034740256145597
1761315008409627000,5.466626953125,0.0005344913806766272,-0.0004581354442052543,-0.00038177953683771193
1761315008428548400,5.48554833984375,-0.00007635590736754239,-0.0004581354442052543,-0.0009926267666742206
1761315008447469800,5.5044697265625,0.0011453386396169662,-0.0004581354442052543,-0.0009926267666742206
1761315008466391600,5.5233916015625,0.0005344913806766272,0.00015271181473508477,-0.00038177953683771193
1761315008485313000,5.54231298828125,0.0005344913806766272,-0.0004581354442052543,-0.0009926267666742206
1761315008504234500,5.561234375,0.0005344913806766272,-0.0010689827613532543,-0.00038177953683771193
1761315008523156200,5.58015625,-0.00007635590736754239,0.00015271181473508477,-0.0009926267666742206
1761315008542077700,5.59907763671875,0.0005344913806766272,0.00015271181473508477,-0.00038177953683771193
1761315008560999200,5.617999267578125,-0.00007635590736754239,-0.0004581354442052543,-0.0009926267666742206
1761315008579921000,5.6369208984375,0.0005344913806766272,-0.0010689827613532543,-0.0009926267666742206
1761315008598842400,5.65584228515625,-0.00007635590736754239,0.00015271181473508477,-0.00038177953683771193
1761315008617763800,5.674763916015625,0.0005344913806766272,-0.0010689827613532543,-0.00038177953683771193
1761315008636685600,5.693685546875,0.0005344913806766272,0.0007635590736754239,-0.00038177953683771193
1761315008655607000,5.71260693359375,-0.00007635590736754239,-0.0004581354442052543,-0.0009926267666742206
1761315008674528800,5.73152880859375,0.0005344913806766272,-0.0004581354442052543,-0.00038177953683771193
1761315008693450200,5.7504501953125,0.0005344913806766272,-0.0004581354442052543,-0.0009926267666742206
1761315008712371700,5.769371826171875,0.0011453386396169662,0.00015271181473508477,-0.00038177953683771193
1761315008731293400,5.78829345703125,0.0005344913806766272,-0.0004581354442052543,-0.0009926267666742206
1761315008750215000,5.80721484375,-0.00007635590736754239,-0.0004581354442052543,-0.0009926267666742206
1761315008769136400,5.826136474609375,-0.00007635590736754239,-0.0004581354442052543,-0.0009926267666742206
1761315008788058000,5.84505810546875,-0.00007635590736754239,-0.0004581354442052543,-0.0009926267666742206
1761315008806979600,5.8639794921875,-0.00007635590736754239,0.00015271181473508477,-0.0009926267666742206
1761315008825901000,5.882901123046875,0.0005344913806766272,-0.0010689827613532543,-0.00038177953683771193
1761315008844822800,5.90182275390625,-0.00007635590736754239,0.00015271181473508477,-0.00038177953683771193
1761315008863744300,5.920744140625,-0.00007635590736754239,-0.0004581354442052543,-0.0009926267666742206
1761315008882665700,5.939665771484375,-0.00007635590736754239,-0.0010689827613532543,-0.00038177953683771193
1761315008901587500,5.95858740234375,-0.00007635590736754239,-0.0010689827613532543,-0.00038177953683771193
1761315008920509000,5.977509033203125,-0.00007635590736754239,0.00015271181473508477,-0.0009926267666742206
1761315008939430400,5.996430419921875,-0.00007635590736754239,-0.0004581354442052543,-0.00038177953683771193
1761315008958352100,6.01535205078125,0.0005344913806766272,-0.0004581354442052543,-0.00038177953683771193
1761315008977273600,6.034273681640625,-0.00007635590736754239,-0.0004581354442052543,-0.00038177953683771193
1761315008996195300,6.0531953125,0.0005344913806766272,-0.0004581354442052543,-0.0009926267666742206
1761315009015116800,6.07211669921875,-0.00007635590736754239,-0.0004581354442052543,-0.00038177953683771193
1761315009034038300,6.091038330078125,0.0005344913806766272,0.0007635590736754239,-0.00038177953683771193
1761315009052960000,6.1099599609375,-0.00007635590736754239,-0.0004581354442052543,-0.0009926267666742206
1761315009071881500,6.128881591796875,-0.00007635590736754239,0.00015271181473508477,-0.0016034740256145597
1761315009090803000,6.147802978515625,0.0005344913806766272,-0.0010689827613532543,-0.0016034740256145597
1761315009109724700,6.166724609375,0.0005344913806766272,-0.0004581354442052543,-0.0009926267666742206
1761315009128646100,6.185646240234375,-0.00007635590736754239,-0.0010689827613532543,-0.00038177953683771193
1761315009147567600,6.204567626953125,0.0005344913806766272,-0.0004581354442052543,-0.0009926267666742206
1761315009166489300,6.2234892578125,0.0005344913806766272,-0.0004581354442052543,-0.0009926267666742206
1761315009185410800,6.242410888671875,-0.000687203137204051,-0.0010689827613532543,-0.0009926267666742206
1761315009204332300,6.261332275390625,-0.00007635590736754239,-0.0004581354442052543,-0.0009926267666742206
1761315009223254000,6.28025390625,0.0005344913806766272,0.00015271181473508477,-0.00038177953683771193
1761315009242175500,6.299175537109375,0.0005344913806766272,-0.0004581354442052543,-0.00038177953683771193
1761315009261097000,6.318096923828125,0.0005344913806766272,-0.0004581354442052543,-0.0009926267666742206
1761315009280018700,6.337018798828125,-0.00007635590736754239,0.00015271181473508477,-0.0009926267666742206
1761315009298940200,6.355940185546875,0.0005344913806766272,-0.0004581354442052543,-0.0009926267666742206
1761315009317862000,6.37486181640625,0.0005344913806766272,-0.0004581354442052543,-0.0009926267666742206
1761315009336783400,6.393783447265625,-0.00007635590736754239,-0.0004581354442052543,-0.0009926267666742206
1761315009355704800,6.412704833984375,0.0005344913806766272,-0.0004581354442052543,-0.0009926267666742206
1761315009374626600,6.43162646484375,-0.00007635590736754239,-0.0004581354442052543,-0.0009926267666742206
1761315009393548000,6.450548095703125,0.0005344913806766272,-0.0010689827613532543,-0.0009926267666742206
1761315009412469500,6.469469482421875,0.0005344913806766272,-0.0004581354442052543,-0.0009926267666742206
1761315009431391200,6.48839111328125,0.0005344913806766272,-0.0004581354442052543,-0.0016034740256145597
1761315009450312700,6.507312744140625,0.0005344913806766272,-0.0004581354442052543,-0.0009926267666742206
1761315009469234200,6.526234130859375,-0.00007635590736754239,-0.0010689827613532543,-0.0009926267666742206
1761315009488156000,6.545156005859375,0.0005344913806766272,-0.0010689827613532543,-0.0016034740256145597
1761315009507077400,6.564077392578125,0.0005344913806766272,0.00015271181473508477,-0.00038177953683771193
1761315009525998800,6.582998779296875,-0.00007635590736754239,0.0007635590736754239,-0.0009926267666742206
1761315009544920600,6.601920654296875,-0.00007635590736754239,-0.0004581354442052543,-0.0009926267666742206
1761315009563842000,6.620842041015625,-0.00007635590736754239,0.0007635590736754239,-0.00038177953683771193
1761315009582763800,6.639763671875,0.0005344913806766272,-0.0004581354442052543,-0.0009926267666742206
1761315009601685200,6.658685302734375,-0.00007635590736754239,-0.0004581354442052543,-0.0009926267666742206
1761315009620606700,6.677606689453125,0.0005344913806766272,-0.0004581354442052543,-0.00038177953683771193
1761315009639528200,6.696528076171875,-0.00007635590736754239,-0.0004581354442052543,-0.0009926267666742206
1761315009658450000,6.715449951171875,0.0011453386396169662,0.00015271181473508477,-0.0016034740256145597
1761315009677371400,6.734371337890625,0.0005344913806766272,-0.0010689827613532543,-0.0009926267666742206
1761315009696292900,6.75329296875,0.0005344913806766272,0.00015271181473508477,-0.00038177953683771193
1761315009715214600,6.772214599609375,0.0005344913806766272,0.00015271181473508477,-0.0016034740256145597
1761315009734136000,6.791135986328125,0.0005344913806766272,0.00015271181473508477,-0.0009926267666742206
1761315009753057500,6.8100576171875,0.0005344913806766272,-0.0004581354442052543,-0.0009926267666742206
1761315009771979300,6.828979248046875,0.0005344913806766272,0.00015271181473508477,-0.0009926267666742206
1761315009790900700,6.847900634765625,-0.00007635590736754239,-0.0004581354442052543,-0.0009926267666742206
1761315009809822500,6.866822509765625,0.0005344913806766272,-0.0004581354442052543,-0.00038177953683771193
1761315009828744000,6.885743896484375,-0.00007635590736754239,-0.0004581354442052543,-0.0009926267666742206
1761315009847665400,6.90466552734375,-0.00007635590736754239,0.00015271181473508477,-0.00038177953683771193
1761315009866587100,6.923587158203125,-0.00007635590736754239,0.0007635590736754239,-0.0009926267666742206
1761315009885508600,6.942508544921875,-0.00007635590736754239,0.00015271181473508477,-0.0009926267666742206
1761315009904430000,6.96143017578125,-0.00007635590736754239,0.00015271181473508477,-0.00038177953683771193
1761315009923351800,6.980351806640625,0.0005344913806766272,-0.0004581354442052543,-0.00038177953683771193
1761315009942273300,6.999273193359375,0.0005344913806766272,-0.0004581354442052543,-0.00038177953683771193
1761315009961194800,7.01819482421875,0.0005344913806766272,-0.0004581354442052543,0.00022906772210262716
1761315009980116500,7.037116455078125,0.0005344913806766272,-0.0004581354442052543,-0.0009926267666742206
1761315009999038000,7.056037841796875,-0.00007635590736754239,-0.0010689827613532543,-0.00038177953683771193
1761315010017959400,7.07495947265625,0.0005344913806766272,0.00015271181473508477,-0.0016034740256145597
1761315010036881200,7.093881103515625,0.0005344913806766272,-0.0004581354442052543,-0.0009926267666742206
1761315010055802600,7.112802734375,-0.00007635590736754239,-0.0004581354442052543,-0.00038177953683771193
1761315010074724000,7.13172412109375,-0.00007635590736754239,-0.0004581354442052543,-0.0009926267666742206
1761315010093645800,7.150645751953125,-0.00007635590736754239,-0.0004581354442052543,-0.0009926267666742206
1761315010112567300,7.1695673828125,0.0005344913806766272,-0.0010689827613532543,-0.00038177953683771193
1761315010131488800,7.18848876953125,0.0005344913806766272,-0.0004581354442052543,-0.0009926267666742206
1761315010150410500,7.207410400390625,0.0005344913806766272,-0.0004581354442052543,-0.0009926267666742206
1761315010169332000,7.22633203125,0.0005344913806766272,0.00015271181473508477,-0.0016034740256145597
1761315010188253400,7.24525341796875,0.0005344913806766272,-0.0004581354442052543,-0.00038177953683771193
1761315010207175200,7.264175048828125,0.0005344913806766272,-0.0004581354442052543,-0.0009926267666742206
1761315010226096600,7.2830966796875,0.0005344913806766272,-0.0004581354442052543,-0.0009926267666742206
1761315010245018000,7.30201806640625,0.0005344913806766272,0.00015271181473508477,-0.0009926267666742206
1761315010263939800,7.32093994140625,0.0005344913806766272,0.00015271181473508477,-0.00038177953683771193
1761315010282861300,7.339861328125,-0.00007635590736754239,-0.0004581354442052543,-0.00038177953683771193
1761315010301782800,7.35878271484375,-0.00007635590736754239,-0.0004581354442052543,-0.0009926267666742206
1761315010320704500,7.37770458984375,-0.00007635590736754239,-0.0004581354442052543,-0.00038177953683771193
1761315010339626000,7.3966259765625,0.0005344913806766272,0.0007635590736754239,-0.00038177953683771193
1761315010358547500,7.41554736328125,-0.00007635590736754239,-0.0010689827613532543,0.00022906772210262716
1761315010377469200,7.43446923828125,-0.00007635590736754239,-0.0010689827613532543,-0.0009926267666742206
1761315010396390700,7.453390625,0.0005344913806766272,-0.0004581354442052543,-0.00038177953683771193
1761315010415312100,7.47231201171875,0.0005344913806766272,-0.0004581354442052543,-0.0009926267666742206
1761315010434233900,7.49123388671875,0.0005344913806766272,-0.0004581354442052543,-0.0009926267666742206
1761315010453155300,7.5101552734375,-0.00007635590736754239,-0.0004581354442052543,-0.00038177953683771193
1761315010472076800,7.529076904296875,0.0005344913806766272,0.00015271181473508477,-0.0009926267666742206
1761315010490998500,7.54799853515625,0.0005344913806766272,-0.0004581354442052543,-0.00038177953683771193
1761315010509920000,7.566919921875,-0.00007635590736754239,-0.0010689827613532543,-0.0009926267666742206
1761315010528841500,7.585841552734375,-0.00007635590736754239,0.00015271181473508477,-0.0009926267666742206
1761315010547763200,7.60476318359375,-0.00007635590736754239,-0.0004581354442052543,-0.0009926267666742206
1761315010566684700,7.6236845703125,0.0005344913806766272,-0.0004581354442052543,-0.0009926267666742206
1761315010585606100,7.642606201171875,0.0005344913806766272,-0.0004581354442052543,-0.0016034740256145597
1761315010604527900,7.66152783203125,0.0005344913806766272,-0.0004581354442052543,-0.0009926267666742206
1761315010623449300,7.680449462890625,0.0005344913806766272,-0.0004581354442052543,-0.0016034740256145597
1761315010642370800,7.699370849609375,-0.00007635590736754239,-0.0004581354442052543,-0.0016034740256145597
1761315010661292500,7.71829248046875,-0.00007635590736754239,0.00015271181473508477,-0.00038177953683771193
1761315010680214000,7.737214111328125,-0.00007635590736754239,-0.0004581354442052543,-0.0016034740256145597
1761315010699135500,7.756135498046875,-0.00007635590736754239,0.00015271181473508477,-0.0022143214009702206
1761315010718057000,7.775056884765625,0.0005344913806766272,-0.0004581354442052543,-0.0009926267666742206
1761315010736978700,7.793978759765625,-0.00007635590736754239,-0.0004581354442052543,-0.00038177953683771193
1761315010755900200,7.812900146484375,0.0005344913806766272,-0.0004581354442052543,-0.0009926267666742206
1761315010774822000,7.83182177734375,-0.00007635590736754239,0.00015271181473508477,-0.0009926267666742206
1761315010793743400,7.850743408203125,-0.000687203137204051,-0.0004581354442052543,-0.00038177953683771193
1761315010812664800,7.869664794921875,0.0005344913806766272,0.00015271181473508477,-0.0009926267666742206
1761315010831586600,7.888586669921875,0.0005344913806766272,-0.0010689827613532543,-0.0009926267666742206
1761315010850508000,7.907508056640625,0.0005344913806766272,0.00015271181473508477,-0.00038177953683771193
1761315010869429500,7.926429443359375,0.0005344913806766272,0.00015271181473508477,-0.0016034740256145597
1761315010888351000,7.94535107421875,-0.00007635590736754239,-0.0004581354442052543,-0.00038177953683771193
1761315010907272700,7.964272705078125,0.0005344913806766272,0.00015271181473508477,-0.0009926267666742206
1761315010926194200,7.983194091796875,0.0005344913806766272,-0.0016798300202935934,-0.00038177953683771193
1761315010945116000,8.002115966796875,0.0005344913806766272,0.00015271181473508477,-0.0009926267666742206
1761315010964037400,8.021037353515625,-0.00007635590736754239,-0.0010689827613532543,-0.0009926267666742206
1761315010982958800,8.039958740234376,0.0005344913806766272,0.00015271181473508477,-0.0009926267666742206
1761315011001880300,8.05888037109375,0.0005344913806766272,-0.0004581354442052543,-0.00038177953683771193
1761315011020802000,8.077802001953126,0.0005344913806766272,-0.0004581354442052543,-0.0009926267666742206
1761315011039723500,8.0967236328125,-0.00007635590736754239,0.00015271181473508477,-0.0009926267666742206
1761315011058645000,8.11564501953125,-0.00007635590736754239,0.00015271181473508477,-0.0009926267666742206
1761315011077566700,8.134566650390624,0.0005344913806766272,-0.0004581354442052543,-0.0009926267666742206
1761315011096488200,8.15348828125,-0.00007635590736754239,-0.0004581354442052543,-0.0009926267666742206
1761315011115409700,8.17240966796875,-0.00007635590736754239,0.00015271181473508477,-0.0009926267666742206
1761315011134331400,8.191331298828125,-0.00007635590736754239,-0.0004581354442052543,-0.0016034740256145597
1761315011153252900,8.2102529296875,0.0005344913806766272,-0.0010689827613532543,-0.0009926267666742206
1761315011172174300,8.22917431640625,0.0005344913806766272,-0.0004581354442052543,-0.0009926267666742206
1761315011191096000,8.248095947265625,-0.00007635590736754239,-0.0010689827613532543,-0.0009926267666742206
1761315011210017500,8.267017578125,0.0005344913806766272,0.0007635590736754239,-0.0009926267666742206
1761315011228939000,8.28593896484375,-0.00007635590736754239,-0.0004581354442052543,-0.0009926267666742206
1761315011247860700,8.30486083984375,-0.00007635590736754239,-0.0004581354442052543,-0.00038177953683771193
1761315011266782200,8.3237822265625,0.0005344913806766272,0.00015271181473508477,-0.0016034740256145597
1761315011285703700,8.34270361328125,0.0005344913806766272,-0.0004581354442052543,-0.0009926267666742206
1761315011304625200,8.361625244140624,0.0005344913806766272,-0.0010689827613532543,-0.00038177953683771193
1761315011323547000,8.380546875,0.0005344913806766272,-0.0004581354442052543,-0.0009926267666742206
1761315011342468400,8.39946826171875,-0.00007635590736754239,0.00015271181473508477,-0.00038177953683771193
1761315011361390000,8.41839013671875,-0.00007635590736754239,-0.0004581354442052543,-0.00038177953683771193
1761315011380311600,8.4373115234375,-0.000687203137204051,-0.0010689827613532543,-0.00038177953683771193
1761315011399233000,8.45623291015625,-0.00007635590736754239,-0.0004581354442052543,-0.0009926267666742206
1761315011418154500,8.475154541015625,0.0005344913806766272,-0.0004581354442052543,-0.0009926267666742206
1761315011437076200,8.494076171875,-0.00007635590736754239,0.00015271181473508477,-0.0009926267666742206
1761315011455997700,8.512997802734375,0.0005344913806766272,-0.0010689827613532543,-0.0009926267666742206
1761315011474919200,8.531919189453125,-0.00007635590736754239,0.00015271181473508477,-0.0009926267666742206
1761315011493841000,8.5508408203125,0.0005344913806766272,-0.0004581354442052543,-0.0009926267666742206
1761315011512762400,8.569762451171876,0.0011453386396169662,-0.0004581354442052543,-0.00038177953683771193
1761315011531683800,8.588683837890626,-0.00007635590736754239,0.00015271181473508477,-0.0009926267666742206
1761315011550605600,8.60760546875,0.0005344913806766272,-0.0004581354442052543,-0.00038177953683771193
1761315011569527000,8.626527099609374,0.0011453386396169662,-0.0004581354442052543,-0.0009926267666742206
1761315011588448500,8.645448486328124,0.0005344913806766272,0.00015271181473508477,-0.00038177953683771193
1761315011607370000,8.664369873046875,0.0005344913806766272,-0.0004581354442052543,-0.0009926267666742206
1761315011626291700,8.683291748046875,0.0005344913806766272,0.00015271181473508477,-0.00038177953683771193
1761315011645213200,8.702213134765625,0.0005344913806766272,-0.0004581354442052543,-0.0016034740256145597
1761315011664135000,8.721135009765625,0.0005344913806766272,-0.0004581354442052543,-0.00038177953683771193
1761315011683056400,8.740056396484375,-0.00007635590736754239,-0.0004581354442052543,-0.00038177953683771193
1761315011701977900,8.758977783203125,0.0005344913806766272,0.00015271181473508477,-0.0009926267666742206
1761315011720899300,8.7778994140625,0.0005344913806766272,-0.0016798300202935934,-0.00038177953683771193
1761315011739821000,8.796821044921876,-0.000687203137204051,0.00015271181473508477,-0.0016034740256145597
1761315011758742500,8.815742431640626,-0.00007635590736754239,0.00015271181473508477,-0.0009926267666742206
1761315011777664000,8.8346640625,0.0005344913806766272,0.00015271181473508477,-0.0009926267666742206
1761315011796585700,8.853585693359374,0.0011453386396169662,-0.0004581354442052543,-0.0009926267666742206
1761315011815507200,8.872507080078124,0.0005344913806766272,-0.0004581354442052543,-0.0009926267666742206
1761315011834428700,8.8914287109375,0.0005344913806766272,0.00015271181473508477,-0.0009926267666742206
1761315011853350100,8.91035009765625,0.0005344913806766272,-0.0004581354442052543,-0.0009926267666742206
1761315011872272000,8.92927197265625,-0.00007635590736754239,0.00015271181473508477,-0.00038177953683771193
1761315011891193300,8.948193359375,0.0005344913806766272,-0.0004581354442052543,-0.0009926267666742206
1761315011910115000,8.967114990234375,0.0005344913806766272,-0.0004581354442052543,0.00022906772210262716
1761315011929036500,8.98603662109375,0.0005344913806766272,-0.0004581354442052543,-0.0009926267666742206
1761315011947958000,9.0049580078125,-0.00007635590736754239,-0.0004581354442052543,-0.00038177953683771193
1761315011966879500,9.02387939453125,0.0005344913806766272,-0.0004581354442052543,-0.00038177953683771193
1761315011985801200,9.04280126953125,0.0005344913806766272,-0.0004581354442052543,-0.0009926267666742206
1761315012004722700,9.06172265625,0.0005344913806766272,-0.0004581354442052543,-0.0009926267666742206
1761315012023644200,9.08064404296875,0.0005344913806766272,-0.0004581354442052543,-0.0009926267666742206
1761315012042566000,9.09956591796875,-0.00007635590736754239,-0.0004581354442052543,-0.0009926267666742206
1761315012061487400,9.1184873046875,-0.00007635590736754239,-0.0004581354442052543,-0.0009926267666742206
1761315012080408800,9.137408935546874,0.0005344913806766272,0.00015271181473508477,-0.0009926267666742206
1761315012099330300,9.156330322265624,0.0005344913806766272,-0.0004581354442052543,-0.0009926267666742206
1761315012118252000,9.175251953125,0.0005344913806766272,-0.0004581354442052543,-0.0009926267666742206
1761315012137173500,9.194173583984375,0.0005344913806766272,-0.0004581354442052543,-0.0009926267666742206
1761315012156095200,9.21309521484375,-0.00007635590736754239,-0.0004581354442052543,-0.0009926267666742206
1761315012175016700,9.2320166015625,0.0005344913806766272,0.00015271181473508477,-0.0009926267666742206
1761315012193938200,9.250938232421875,-0.00007635590736754239,-0.0004581354442052543,-0.0009926267666742206
1761315012212859600,9.269859619140625,0.0005344913806766272,-0.0004581354442052543,-0.00038177953683771193
1761315012231781400,9.288781494140625,0.0005344913806766272,-0.0010689827613532543,-0.0009926267666742206
1761315012250702800,9.307702880859376,0.0005344913806766272,0.00015271181473508477,-0.0009926267666742206
1761315012269624300,9.326624267578126,-0.00007635590736754239,-0.0004581354442052543,-0.0009926267666742206
1761315012288546000,9.345546142578126,0.0011453386396169662,0.00015271181473508477,-0.0009926267666742206
1761315012307467500,9.364467529296874,-0.00007635590736754239,-0.0004581354442052543,-0.0009926267666742206
1761315012326389000,9.383388916015624,-0.00007635590736754239,-0.0010689827613532543,-0.0016034740256145597
1761315012345310500,9.402310546875,-0.00007635590736754239,-0.0004581354442052543,-0.0016034740256145597
1761315012364232200,9.421232177734375,-0.00007635590736754239,-0.0004581354442052543,-0.00038177953683771193
1761315012383153700,9.440153564453125,0.0005344913806766272,-0.0004581354442052543,-0.0009926267666742206
1761315012402075400,9.459075439453125,0.0005344913806766272,-0.0004581354442052543,-0.0009926267666742206
1761315012420996900,9.477996826171875,-0.00007635590736754239,-0.0010689827613532543,-0.0009926267666742206
1761315012439918300,9.49691845703125,0.0005344913806766272,-0.0010689827613532543,-0.0009926267666742206
1761315012458839800,9.51583984375,0.0005344913806766272,-0.0004581354442052543,-0.00038177953683771193
1761315012477761500,9.534761474609375,0.0005344913806766272,-0.0004581354442052543,-0.00038177953683771193
1761315012496683000,9.55368310546875,0.0005344913806766272,0.00015271181473508477,-0.0009926267666742206
1761315012515604500,9.5726044921875,-0.00007635590736754239,0.0007635590736754239,-0.0009926267666742206
1761315012534526200,9.591526123046876,0.0005344913806766272,-0.0004581354442052543,-0.00038177953683771193
1761315012553447700,9.61044775390625,0.0005344913806766272,-0.0004581354442052543,-0.0009926267666742206
1761315012572369200,9.629369140625,0.0005344913806766272,0.00015271181473508477,-0.0009926267666742206
1761315012591290600,9.64829052734375,0.0005344913806766272,-0.0004581354442052543,-0.00038177953683771193
1761315012610212400,9.66721240234375,0.0005344913806766272,0.00015271181473508477,-0.0009926267666742206
1761315012629133800,9.6861337890625,0.0005344913806766272,0.00015271181473508477,-0.0016034740256145597
1761315012648055300,9.70505517578125,-0.00007635590736754239,-0.0010689827613532543,-0.0009926267666742206
1761315012666977000,9.72397705078125,-0.00007635590736754239,0.00015271181473508477,-0.0009926267666742206
1761315012685898500,9.7428984375,0.0005344913806766272,-0.0010689827613532543,-0.0016034740256145597
1761315012704820000,9.761820068359375,0.0005344913806766272,-0.0004581354442052543,-0.0009926267666742206
1761315012723741700,9.78074169921875,-0.00007635590736754239,-0.0004581354442052543,-0.00038177953683771193
1761315012742663200,9.7996630859375,0.0005344913806766272,0.00015271181473508477,-0.0009926267666742206
1761315012761584600,9.818584716796876,-0.00007635590736754239,-0.0004581354442052543,-0.0009926267666742206
1761315012780506400,9.83750634765625,0.0005344913806766272,-0.0004581354442052543,-0.0009926267666742206
1761315012799427800,9.856427734375,0.0005344913806766272,0.00015271181473508477,-0.0009926267666742206
1761315012818349300,9.875349365234374,0.0005344913806766272,-0.0004581354442052543,-0.0009926267666742206
1761315012837270800,9.894270751953124,0.0005344913806766272,0.00015271181473508477,-0.0009926267666742206
1761315012856192500,9.913192626953125,-0.00007635590736754239,-0.0004581354442052543,-0.0009926267666742206
1761315012875114000,9.932114013671875,-0.00007635590736754239,-0.0010689827613532543,-0.00038177953683771193
1761315012894035500,9.951035400390625,0.0005344913806766272,0.00015271181473508477,-0.0009926267666742206
1761315012912957200,9.969957275390625,0.0005344913806766272,-0.0004581354442052543,-0.00038177953683771193
1761315012931878700,9.988878662109375,0.0005344913806766272,-0.0004581354442052543,-0.0009926267666742206
1761315012950800100,10.007800048828125,-0.00007635590736754239,-0.0010689827613532543,-0.0016034740256145597
1761315012969721600,10.0267216796875,0.0005344913806766272,-0.0004581354442052543,-0.0016034740256145597
1761315012988643300,10.045643310546875,0.0005344913806766272,-0.0004581354442052543,-0.0009926267666742206
1761315013007564800,10.064564697265626,0.0005344913806766272,0.00015271181473508477,-0.0009926267666742206
1761315013026486300,10.083486328125,0.0005344913806766272,-0.0004581354442052543,-0.0009926267666742206
1761315013045408000,10.102407958984376,0.0005344913806766272,-0.0004581354442052543,-0.0009926267666742206
1761315013064329500,10.12132958984375,-0.00007635590736754239,-0.0004581354442052543,-0.0009926267666742206
1761315013083251000,10.1402509765625,0.0005344913806766272,0.00015271181473508477,-0.0016034740256145597
1761315013102172700,10.159172607421874,0.0005344913806766272,0.00015271181473508477,-0.00038177953683771193
1761315013121094100,10.17809423828125,-0.00007635590736754239,-0.0004581354442052543,-0.0009926267666742206
1761315013140015600,10.197015625,-0.00007635590736754239,-0.0004581354442052543,-0.0009926267666742206
1761315013158937000,10.21593701171875,-0.00007635590736754239,-0.0004581354442052543,-0.0009926267666742206
1761315013177858800,10.23485888671875,0.0005344913806766272,0.00015271181473508477,-0.0009926267666742206
1761315013196780300,10.2537802734375,0.0005344913806766272,-0.0004581354442052543,-0.0009926267666742206
1761315013215701800,10.27270166015625,0.0005344913806766272,-0.0004581354442052543,-0.00038177953683771193
1761315013234623500,10.29162353515625,0.0005344913806766272,-0.0004581354442052543,-0.0009926267666742206
1761315013253545000,10.310544921875,0.0005344913806766272,-0.0004581354442052543,-0.0009926267666742206
1761315013272466400,10.329466552734376,0.0005344913806766272,-0.0004581354442052543,-0.0009926267666742206
1761315013291388000,10.348387939453126,0.0005344913806766272,0.00015271181473508477,-0.0009926267666742206
1761315013310309600,10.3673095703125,-0.00007635590736754239,-0.0004581354442052543,-0.0016034740256145597
1761315013329231000,10.386231201171874,0.0005344913806766272,0.00015271181473508477,-0.0009926267666742206
1761315013348152800,10.40515283203125,-0.00007635590736754239,0.00015271181473508477,-0.0009926267666742206
1761315013367074300,10.42407421875,-0.00007635590736754239,0.00015271181473508477,-0.00038177953683771193
1761315013385995800,10.442995849609375,0.0005344913806766272,0.00015271181473508477,-0.0009926267666742206
1761315013404917200,10.461917236328125,0.0005344913806766272,-0.0004581354442052543,-0.0016034740256145597
1761315013423839000,10.4808388671875,0.0005344913806766272,-0.0004581354442052543,-0.0009926267666742206
1761315013442760400,10.499760498046875,0.0005344913806766272,0.00015271181473508477,-0.0016034740256145597
1761315013461682000,10.518681884765625,-0.00007635590736754239,-0.0010689827613532543,-0.0009926267666742206
1761315013480603400,10.537603271484375,0.0005344913806766272,-0.0004581354442052543,-0.00038177953683771193
1761315013499525000,10.556525146484375,-0.00007635590736754239,-0.0004581354442052543,-0.0009926267666742206
1761315013518446600,10.575446533203126,0.0005344913806766272,-0.0004581354442052543,-0.00038177953683771193
1761315013537368000,10.5943681640625,-0.00007635590736754239,-0.0004581354442052543,-0.0009926267666742206
1761315013556289800,10.613289794921876,0.0011453386396169662,-0.0004581354442052543,-0.0009926267666742206
1761315013575211300,10.632211181640624,0.0005344913806766272,0.00015271181473508477,-0.00038177953683771193
1761315013594132700,10.6511328125,0.0005344913806766272,-0.0004581354442052543,-0.00038177953683771193
1761315013613054200,10.67005419921875,0.0005344913806766272,0.0007635590736754239,-0.0009926267666742206
1761315013631976000,10.688975830078125,0.0005344913806766272,-0.0004581354442052543,-0.0009926267666742206
1761315013650897400,10.7078974609375,-0.00007635590736754239,-0.0004581354442052543,-0.0009926267666742206
1761315013669819000,10.72681884765625,0.0005344913806766272,0.00015271181473508477,-0.0009926267666742206
1761315013688740600,10.74574072265625,-0.00007635590736754239,-0.0004581354442052543,-0.0009926267666742206
1761315013707662000,10.764662109375,0.0005344913806766272,-0.0010689827613532543,-0.0009926267666742206
1761315013726583600,10.78358349609375,0.0005344913806766272,0.00015271181473508477,-0.0016034740256145597
1761315013745505300,10.80250537109375,-0.00007635590736754239,-0.0010689827613532543,-0.0009926267666742206
1761315013764426800,10.8214267578125,0.0005344913806766272,0.0007635590736754239,-0.00038177953683771193
1761315013783348200,10.84034814453125,-0.00007635590736754239,-0.0010689827613532543,-0.0009926267666742206
1761315013802269700,10.859269775390626,-0.00007635590736754239,-0.0004581354442052543,-0.0009926267666742206
1761315013821191400,10.87819140625,0.0005344913806766272,-0.0004581354442052543,-0.0009926267666742206
1761315013840113000,10.89711279296875,-0.00007635590736754239,0.00015271181473508477,-0.00038177953683771193
1761315013859034400,10.916034423828124,-0.00007635590736754239,0.00015271181473508477,-0.00038177953683771193
1761315013877956000,10.9349560546875,0.0005344913806766272,-0.0010689827613532543,-0.0009926267666742206
1761315013896877600,10.953877685546875,0.0011453386396169662,-0.0004581354442052543,-0.00038177953683771193
1761315013915799000,10.972799072265625,-0.00007635590736754239,-0.0004581354442052543,-0.0009926267666742206
1761315013934720500,10.991720458984375,-0.00007635590736754239,-0.0010689827613532543,-0.0009926267666742206
1761315013953642200,11.010642333984375,0.0011453386396169662,-0.0004581354442052543,-0.0009926267666742206
1761315013972563700,11.029563720703125,0.0005344913806766272,-0.0004581354442052543,-0.0009926267666742206
1761315013991485200,11.048485107421875,0.0005344913806766272,-0.0004581354442052543,-0.0009926267666742206
1761315014010407000,11.067406982421875,0.0005344913806766272,-0.0004581354442052543,-0.0009926267666742206
1761315014029328400,11.086328369140626,0.0005344913806766272,-0.0004581354442052543,-0.0009926267666742206
1761315014048249900,11.105249755859376,0.0005344913806766272,-0.0004581354442052543,-0.0009926267666742206
1761315014067171300,11.12417138671875,0.0005344913806766272,-0.0004581354442052543,-0.0022143214009702206
1761315014086093000,11.143093017578124,0.0005344913806766272,-0.0004581354442052543,-0.0009926267666742206
1761315014105014500,11.1620146484375,-0.00007635590736754239,0.00015271181473508477,-0.0009926267666742206
1761315014123936000,11.18093603515625,0.0005344913806766272,-0.0004581354442052543,-0.00038177953683771193
1761315014142857700,11.199857666015625,0.0005344913806766272,-0.0004581354442052543,-0.0009926267666742206
1761315014161779200,11.218779296875,0.0005344913806766272,0.00015271181473508477,-0.00038177953683771193
1761315014180700700,11.23770068359375,-0.00007635590736754239,0.00015271181473508477,-0.00038177953683771193
1761315014199622100,11.2566220703125,0.0005344913806766272,-0.0010689827613532543,-0.0009926267666742206
1761315014218543900,11.2755439453125,0.0005344913806766272,0.00015271181473508477,-0.0009926267666742206
1761315014237465300,11.29446533203125,-0.00007635590736754239,-0.0004581354442052543,-0.0009926267666742206
1761315014256386800,11.31338671875,0.0005344913806766272,-0.0010689827613532543,-0.00038177953683771193
1761315014275308500,11.33230859375,-0.00007635590736754239,-0.0004581354442052543,-0.0016034740256145597
1761315014294230000,11.35122998046875,0.0005344913806766272,0.00015271181473508477,-0.0009926267666742206
1761315014313151500,11.3701513671875,0.0005344913806766272,-0.0016798300202935934,-0.00038177953683771193
1761315014332073000,11.389072998046874,0.0005344913806766272,-0.0004581354442052543,-0.0009926267666742206
1761315014350994700,11.40799462890625,0.0005344913806766272,0.00015271181473508477,-0.0009926267666742206
1761315014369916200,11.426916259765624,-0.00007635590736754239,-0.0004581354442052543,-0.0009926267666742206
1761315014388837600,11.445837646484375,0.0005344913806766272,0.00015271181473508477,-0.0009926267666742206
1761315014407759000,11.464759033203125,0.0005344913806766272,-0.0004581354442052543,-0.0009926267666742206
1761315014426680800,11.483680908203125,-0.00007635590736754239,-0.0004581354442052543,-0.00038177953683771193
1761315014445602300,11.502602294921875,-0.00007635590736754239,-0.0010689827613532543,-0.00038177953683771193
1761315014464523800,11.521523681640625,0.0011453386396169662,-0.0004581354442052543,-0.0009926267666742206
1761315014483445500,11.540445556640625,0.0005344913806766272,-0.0004581354442052543,-0.0016034740256145597
1761315014502367000,11.559366943359375,0.0005344913806766272,-0.0004581354442052543,-0.00038177953683771193
1761315014521288400,11.578288330078125,0.0005344913806766272,-0.0010689827613532543,-0.00038177953683771193
1761315014540210200,11.597210205078126,0.0011453386396169662,-0.0004581354442052543,-0.0009926267666742206
1761315014559131600,11.616131591796876,-0.00007635590736754239,0.00015271181473508477,-0.0009926267666742206
1761315014578053000,11.63505322265625,-0.00007635590736754239,-0.0004581354442052543,-0.0016034740256145597
1761315014596974600,11.653974609375,0.0005344913806766272,0.00015271181473508477,-0.0016034740256145597
1761315014615896300,11.672896240234374,0.0011453386396169662,-0.0004581354442052543,-0.0009926267666742206
1761315014634817800,11.69181787109375,-0.00007635590736754239,-0.0004581354442052543,-0.0009926267666742206
1761315014653739300,11.7107392578125,0.0005344913806766272,-0.0004581354442052543,-0.0009926267666742206
1761315014672660700,11.72966064453125,-0.00007635590736754239,-0.0004581354442052543,-0.00038177953683771193
1761315014691582500,11.74858251953125,0.0005344913806766272,0.00015271181473508477,-0.00038177953683771193
1761315014710504000,11.76750390625,0.0005344913806766272,-0.0004581354442052543,-0.0009926267666742206
1761315014729425400,11.78642529296875,-0.00007635590736754239,-0.0004581354442052543,-0.00038177953683771193
1761315014748347100,11.80534716796875,0.0005344913806766272,-0.0004581354442052543,-0.0009926267666742206
1761315014767268600,11.8242685546875,0.0005344913806766272,-0.0004581354442052543,-0.0009926267666742206
1761315014786190000,11.843190185546876,0.0005344913806766272,0.00015271181473508477,-0.0009926267666742206
1761315014805111600,11.862111572265626,-0.00007635590736754239,-0.0004581354442052543,-0.0009926267666742206
1761315014824033300,11.881033203125,0.0005344913806766272,-0.0004581354442052543,-0.00038177953683771193
1761315014842954800,11.899954833984374,0.0005344913806766272,-0.0004581354442052543,-0.00038177953683771193
1761315014861876200,11.918876220703124,0.0005344913806766272,0.00015271181473508477,-0.0009926267666742206
1761315014880797700,11.937797607421874,0.0005344913806766272,-0.0004581354442052543,-0.0009926267666742206
1761315014899719400,11.956719482421875,0.0005344913806766272,-0.0004581354442052543,-0.0009926267666742206
1761315014918641000,11.975640869140625,-0.00007635590736754239,0.00015271181473508477,-0.0009926267666742206
1761315014937562400,11.994562255859375,0.0005344913806766272,-0.0004581354442052543,-0.0009926267666742206
1761315014956484000,12.013484130859375,-0.00007635590736754239,-0.0004581354442052543,-0.0009926267666742206
1761315014975405600,12.032405517578125,0.0005344913806766272,0.00015271181473508477,-0.00038177953683771193
1761315014994327000,12.0513271484375,0.0005344913806766272,-0.0004581354442052543,-0.0009926267666742206
1761315015013248800,12.070248779296875,0.0005344913806766272,-0.0004581354442052543,-0.0009926267666742206
1761315015032170200,12.089170166015625,-0.000687203137204051,-0.0004581354442052543,-0.0009926267666742206
1761315015051091700,12.108091796875,0.0005344913806766272,-0.0004581354442052543,-0.0009926267666742206
1761315015070013200,12.12701318359375,0.0005344913806766272,-0.0004581354442052543,-0.0016034740256145597
1761315015088935000,12.145934814453126,0.0005344913806766272,-0.0004581354442052543,-0.0009926267666742206
1761315015107856400,12.1648564453125,-0.00007635590736754239,-0.0004581354442052543,-0.0009926267666742206
1761315015126777900,12.18377783203125,0.0005344913806766272,-0.0004581354442052543,-0.0009926267666742206
1761315015145699300,12.20269921875,0.0005344913806766272,0.00015271181473508477,-0.0009926267666742206
1761315015164621000,12.22162109375,0.0005344913806766272,-0.0004581354442052543,-0.0009926267666742206
1761315015183542500,12.24054248046875,-0.00007635590736754239,-0.0004581354442052543,-0.0009926267666742206
1761315015202464000,12.259464111328125,-0.00007635590736754239,0.00015271181473508477,-0.00038177953683771193
1761315015221385700,12.2783857421875,0.0005344913806766272,-0.0004581354442052543,-0.0009926267666742206
1761315015240307200,12.29730712890625,-0.000687203137204051,-0.0004581354442052543,-0.00038177953683771193
1761315015259228700,12.316228759765625,-0.00007635590736754239,-0.0004581354442052543,-0.00038177953683771193
1761315015278150100,12.335150146484375,0.0005344913806766272,-0.0004581354442052543,-0.0009926267666742206
1761315015297071900,12.35407177734375,-0.00007635590736754239,-0.0004581354442052543,-0.00038177953683771193
1761315015315993300,12.372993408203126,0.0005344913806766272,-0.0004581354442052543,-0.0016034740256145597
1761315015334914800,12.391914794921876,0.0005344913806766272,-0.0004581354442052543,-0.00038177953683771193
1761315015353836300,12.410836181640626,0.0005344913806766272,-0.0004581354442052543,-0.00038177953683771193
1761315015372758000,12.429758056640624,0.0011453386396169662,-0.0004581354442052543,-0.0009926267666742206
1761315015391679500,12.448679443359374,0.0011453386396169662,-0.0004581354442052543,0.00022906772210262716
1761315015410601000,12.46760107421875,-0.00007635590736754239,-0.0004581354442052543,-0.0009926267666742206
1761315015429522400,12.4865224609375,-0.00007635590736754239,-0.0010689827613532543,-0.0009926267666742206
1761315015448444200,12.505444091796875,0.0005344913806766272,-0.0004581354442052543,-0.00038177953683771193
1761315015467365600,12.52436572265625,-0.00007635590736754239,-0.0004581354442052543,-0.0009926267666742206
1761315015486287000,12.543287109375,0.0005344913806766272,-0.0010689827613532543,-0.0009926267666742206
1761315015505208600,12.56220849609375,0.0005344913806766272,0.00015271181473508477,-0.0009926267666742206
1761315015524130300,12.58113037109375,-0.00007635590736754239,0.00015271181473508477,-0.00038177953683771193
1761315015543051800,12.6000517578125,-0.00007635590736754239,-0.0010689827613532543,-0.0009926267666742206
1761315015561973200,12.61897314453125,0.0005344913806766272,-0.0004581354442052543,0.00022906772210262716
1761315015580895000,12.63789501953125,0.0005344913806766272,-0.0004581354442052543,-0.0009926267666742206
1761315015599816400,12.65681640625,0.0005344913806766272,0.00015271181473508477,-0.00038177953683771193
1761315015618738000,12.675738037109374,0.0005344913806766272,-0.0010689827613532543,-0.0009926267666742206
1761315015637659400,12.694659423828124,-0.00007635590736754239,-0.0004581354442052543,-0.0009926267666742206
1761315015656581000,12.7135810546875,-0.00007635590736754239,-0.0004581354442052543,-0.00038177953683771193
1761315015675502600,12.732502685546875,0.0011453386396169662,-0.0004581354442052543,-0.0009926267666742206
1761315015694424000,12.751424072265625,0.0005344913806766272,0.00015271181473508477,-0.0009926267666742206
1761315015713345800,12.770345703125,-0.00007635590736754239,0.00015271181473508477,-0.0009926267666742206
1761315015732267300,12.789267333984375,0.0005344913806766272,-0.0004581354442052543,-0.0009926267666742206
1761315015751188700,12.808188720703125,0.0005344913806766272,-0.0004581354442052543,-0.0009926267666742206
1761315015770110200,12.827110107421875,0.0005344913806766272,-0.0004581354442052543,-0.0009926267666742206
1761315015789032000,12.846031982421875,-0.00007635590736754239,-0.0004581354442052543,-0.0009926267666742206
1761315015807953400,12.864953369140625,-0.00007635590736754239,-0.0004581354442052543,-0.00038177953683771193
1761315015826875000,12.883875,0.0005344913806766272,-0.0004581354442052543,-0.0009926267666742206
1761315015845796400,12.90279638671875,0.0005344913806766272,-0.0016798300202935934,-0.0009926267666742206
1761315015864718000,12.921718017578126,0.0005344913806766272,-0.0004581354442052543,-0.00038177953683771193
1761315015883639600,12.9406396484375,0.0011453386396169662,-0.0004581354442052543,-0.0009926267666742206
1761315015902561000,12.95956103515625,-0.00007635590736754239,0.00015271181473508477,-0.00038177953683771193
1761315015921482500,12.978482421875,0.0005344913806766272,-0.0004581354442052543,-0.0016034740256145597
1761315015940404200,12.997404296875,0.0005344913806766272,-0.0010689827613532543,-0.0009926267666742206
1761315015959325700,13.01632568359375,0.0005344913806766272,-0.0004581354442052543,-0.0009926267666742206
1761315015978247200,13.0352470703125,0.0005344913806766272,-0.0004581354442052543,-0.0009926267666742206
1761315015997168600,13.054168701171875,0.0005344913806766272,-0.0004581354442052543,-0.0009926267666742206
1761315016016090400,13.07309033203125,0.0005344913806766272,-0.0004581354442052543,-0.00038177953683771193
1761315016035011800,13.09201171875,0.0005344913806766272,-0.0004581354442052543,-0.0009926267666742206
1761315016053933300,13.110933349609375,0.0005344913806766272,-0.0004581354442052543,0.00022906772210262716
1761315016072855000,13.12985498046875,0.0005344913806766272,-0.0010689827613532543,-0.0009926267666742206
1761315016091776500,13.148776611328126,0.0005344913806766272,-0.0004581354442052543,-0.00038177953683771193
1761315016110698000,13.167697998046876,0.0005344913806766272,-0.0004581354442052543,-0.0016034740256145597
1761315016129619500,13.186619384765624,0.0005344913806766272,-0.0004581354442052543,-0.0016034740256145597
1761315016148541200,13.205541259765624,0.0011453386396169662,-0.0004581354442052543,-0.0016034740256145597
1761315016167462700,13.224462646484374,-0.00007635590736754239,0.00015271181473508477,-0.0009926267666742206
1761315016186384100,13.243384033203125,-0.00007635590736754239,-0.0010689827613532543,-0.0009926267666742206
1761315016205305600,13.2623056640625,0.0005344913806766272,-0.0010689827613532543,-0.0009926267666742206
1761315016224227300,13.281227294921875,0.0005344913806766272,-0.0004581354442052543,-0.0009926267666742206
1761315016243148800,13.300148681640625,0.0005344913806766272,0.00015271181473508477,-0.0016034740256145597
1761315016262070300,13.3190703125,0.0011453386396169662,-0.0004581354442052543,-0.0009926267666742206
1761315016280992000,13.337991943359375,0.0005344913806766272,0.00015271181473508477,-0.0016034740256145597
1761315016299913500,13.35691357421875,0.0005344913806766272,-0.0004581354442052543,-0.00038177953683771193
1761315016318835000,13.3758349609375,-0.00007635590736754239,-0.0010689827613532543,-0.00038177953683771193
1761315016337756400,13.39475634765625,0.0005344913806766272,-0.0004581354442052543,-0.0009926267666742206
1761315016356678100,13.41367822265625,0.0005344913806766272,-0.0004581354442052543,-0.0009926267666742206
1761315016375599600,13.432599609375,0.0005344913806766272,-0.0010689827613532543,-0.00038177953683771193
1761315016394521000,13.45152099609375,0.0005344913806766272,-0.0010689827613532543,-0.0009926267666742206
1761315016413442600,13.470442626953124,-0.00007635590736754239,-0.0004581354442052543,-0.0009926267666742206
1761315016432364300,13.4893642578125,0.0005344913806766272,0.00015271181473508477,-0.0009926267666742206
1761315016451285800,13.50828564453125,0.0005344913806766272,0.00015271181473508477,-0.0009926267666742206
1761315016470207200,13.527207275390625,0.0005344913806766272,0.00015271181473508477,-0.0009926267666742206
1761315016489128700,13.546128662109375,0.0005344913806766272,-0.0004581354442052543,-0.0009926267666742206
1761315016508050400,13.565050537109375,-0.00007635590736754239,-0.0010689827613532543,-0.0009926267666742206
1761315016526972000,13.583971923828125,-0.00007635590736754239,0.00015271181473508477,-0.0016034740256145597
1761315016545893400,13.602893310546875,0.0005344913806766272,-0.0004581354442052543,-0.0009926267666742206
1761315016564814800,13.62181494140625,-0.00007635590736754239,-0.0004581354442052543,-0.0009926267666742206
1761315016583736600,13.640736572265626,0.0005344913806766272,0.00015271181473508477,-0.0009926267666742206
1761315016602658000,13.659657958984376,-0.00007635590736754239,-0.0004581354442052543,-0.00038177953683771193
1761315016621579500,13.67857958984375,-0.00007635590736754239,-0.0004581354442052543,-0.00038177953683771193
1761315016640501000,13.6975009765625,0.0005344913806766272,-0.0010689827613532543,-0.0016034740256145597
1761315016659422700,13.716422607421874,-0.00007635590736754239,-0.0004581354442052543,-0.0016034740256145597
1761315016678344200,13.73534423828125,0.0011453386396169662,-0.0004581354442052543,-0.0009926267666742206
1761315016697265700,13.754265625,-0.00007635590736754239,-0.0010689827613532543,-0.0009926267666742206
1761315016716187100,13.773187255859375,0.0005344913806766272,-0.0004581354442052543,-0.0009926267666742206
1761315016735108900,13.79210888671875,0.0005344913806766272,-0.0004581354442052543,-0.00038177953683771193
1761315016754030300,13.8110302734375,0.0005344913806766272,-0.0004581354442052543,-0.0009926267666742206
1761315016772951800,13.829951904296875,0.0005344913806766272,0.00015271181473508477,-0.0009926267666742206
1761315016791873300,13.848873291015625,0.0005344913806766272,-0.0004581354442052543,-0.0009926267666742206
1761315016810795000,13.867794921875,0.0005344913806766272,-0.0010689827613532543,-0.0009926267666742206
1761315016829716500,13.886716552734375,0.0005344913806766272,-0.0004581354442052543,-0.0009926267666742206
1761315016848638000,13.905637939453126,-0.00007635590736754239,-0.0004581354442052543,-0.0009926267666742206
1761315016867559700,13.9245595703125,0.0005344913806766272,-0.0004581354442052543,-0.0009926267666742206
1761315016886481200,13.943481201171876,0.0005344913806766272,-0.0004581354442052543,-0.0009926267666742206
1761315016905402600,13.962402587890624,0.0005344913806766272,-0.0010689827613532543,-0.0009926267666742206
1761315016924324000,13.981323974609374,-0.00007635590736754239,-0.0004581354442052543,-0.0009926267666742206
1761315016943245800,14.000245849609374,0.0005344913806766272,-0.0004581354442052543,-0.0009926267666742206
1761315016962167300,14.019167236328125,0.0005344913806766272,0.00015271181473508477,-0.00038177953683771193
1761315016981088800,14.0380888671875,0.0005344913806766272,-0.0010689827613532543,-0.0009926267666742206
1761315017000010200,14.05701025390625,0.0005344913806766272,0.00015271181473508477,-0.0009926267666742206
1761315017018932000,14.075931884765625,0.0005344913806766272,-0.0004581354442052543,-0.00038177953683771193
1761315017037853400,14.094853515625,0.0005344913806766272,-0.0004581354442052543,-0.0009926267666742206
1761315017056775000,14.11377490234375,0.0005344913806766272,0.00015271181473508477,-0.0009926267666742206
1761315017075696400,14.1326962890625,-0.00007635590736754239,-0.0004581354442052543,-0.0016034740256145597
1761315017094618000,14.1516181640625,0.0005344913806766272,-0.0004581354442052543,-0.0016034740256145597
1761315017113539600,14.17053955078125,-0.00007635590736754239,-0.0004581354442052543,-0.0016034740256145597
1761315017132461000,14.1894609375,0.0005344913806766272,-0.0004581354442052543,-0.00038177953683771193
1761315017151382800,14.2083828125,0.0011453386396169662,0.00015271181473508477,-0.0009926267666742206
1761315017170304300,14.22730419921875,-0.00007635590736754239,-0.0004581354442052543,-0.00038177953683771193
1761315017189225700,14.246225830078124,0.0005344913806766272,0.00015271181473508477,-0.0009926267666742206
1761315017208147200,14.265147216796874,0.0005344913806766272,-0.0004581354442052543,-0.00038177953683771193
1761315017227069000,14.28406884765625,0.0005344913806766272,-0.0004581354442052543,-0.0009926267666742206
1761315017245990400,14.302990478515625,-0.00007635590736754239,-0.0004581354442052543,-0.0016034740256145597
1761315017264912000,14.321911865234375,0.0005344913806766272,0.00015271181473508477,-0.00038177953683771193
1761315017283833300,14.340833251953125,-0.00007635590736754239,-0.0010689827613532543,-0.00038177953683771193
1761315017302755000,14.359755126953125,0.0005344913806766272,0.00015271181473508477,-0.00038177953683771193
1761315017321676500,14.378676513671875,-0.00007635590736754239,-0.0010689827613532543,-0.0009926267666742206
1761315017340598000,14.397597900390625,0.0005344913806766272,-0.0010689827613532543,-0.0009926267666742206
1761315017359519500,14.41651953125,-0.00007635590736754239,-0.0004581354442052543,-0.00038177953683771193
1761315017378441200,14.435441162109376,-0.00007635590736754239,0.021532366052269936,0.007559234742075205
1761315017397362700,14.45436279296875,-0.0031305921729654074,0.11377029865980148,0.04115583375096321
1761315017416284200,14.4732841796875,0.004199574701488018,-0.15683503448963165,-0.057801421731710434
1761315017435205600,14.49220556640625,-0.00007635590736754239,0.012980503961443901,0.0032833039294928312
