time,seconds_elapsed,z,y,x
1761399359288760300,0.09476025390625,-0.053159262984991074,0.025563744828104973,-0.06140294671058655
1761399359298814500,0.104814453125,-0.058088820427656174,0.029710566624999046,-0.060053981840610504
1761399359308900400,0.114900390625,-0.056589968502521515,0.03470673784613609,-0.05489126965403557
1761399359318980400,0.12498046875,-0.05763916298747063,0.04233422502875328,-0.050960950553417206
1761399359329056500,0.135056396484375,-0.05943778529763222,0.04774674400687218,-0.0526929534971714
1761399359339138800,0.145138916015625,-0.060853369534015656,0.04831297695636749,-0.05455819144845009
1761399359349217800,0.1552177734375,-0.06196917966008186,0.04724712669849396,-0.055124424397945404
1761399359359298600,0.165298583984375,-0.06346803158521652,0.04271726682782173,-0.05649004504084587
1761399359369388300,0.17538818359375,-0.06564969569444656,0.04175134003162384,-0.059221286326646805
1761399359379468800,0.18546875,-0.06510011106729507,0.04368319362401962,-0.0626852959394455
1761399359389542700,0.195542724609375,-0.06360126286745071,0.04426607862114906,-0.06766481697559357
1761399359399647000,0.20564697265625,-0.05967094004154205,0.04541520029306412,-0.07266099005937576
1761399359409688800,0.215688720703125,-0.057505931705236435,0.046147968620061874,-0.07435968518257141
1761399359419808500,0.22580859375,-0.054591499269008636,0.05077775567770004,-0.07279422134160995
1761399359429850000,0.23585009765625,-0.05307599529623985,0.06263533234596252,-0.06716519594192505
1761399359439970000,0.245969970703125,-0.05314261093735695,0.07742400467395782,-0.05778905004262924
1761399359450051800,0.2560517578125,-0.051210757344961166,0.08575095236301422,-0.04701397195458412
1761399359460105200,0.266105224609375,-0.05027813836932182,0.09196285903453827,-0.04250076413154602
1761399359470211800,0.2762119140625,-0.054874617606401443,0.10188858956098557,-0.04959532991051674
1761399359480288500,0.28628857421875,-0.05942113324999809,0.11103158444166183,-0.05937116965651512
1761399359490373400,0.296373291015625,-0.05925459414720535,0.11529498547315598,-0.06246879696846008
1761399359500452900,0.306452880859375,-0.055174387991428375,0.10560241341590881,-0.05712289363145828
1761399359510534000,0.316533935546875,-0.05004498362541199,0.0848349928855896,-0.0493621751666069
1761399359520614700,0.32661474609375,-0.052209991961717606,0.061785988509655,-0.048912517726421356
1761399359530695200,0.336695068359375,-0.05599042773246765,0.043433383107185364,-0.05594046786427498
1761399359540771800,0.346771728515625,-0.057172853499650955,0.03718816861510277,-0.06806451082229614
1761399359550856200,0.356856201171875,-0.0526929534971714,0.03578924015164375,-0.0815042108297348
1761399359560937000,0.36693701171875,-0.04659762606024742,0.028827909380197525,-0.08903177827596664
1761399359571017700,0.377017822265625,-0.04656431823968887,0.011674387380480766,-0.0935782939195633
1761399359581098200,0.38709814453125,-0.046114660799503326,-0.006078675389289856,-0.10125574469566345
1761399359591179000,0.397178955078125,-0.04270061105489731,-0.023648545145988464,-0.11544486880302429
1761399359601255400,0.40725537109375,-0.04300038143992424,-0.0329081155359745,-0.12220635265111923
1761399359611340300,0.41734033203125,-0.046697549521923065,-0.04305034503340721,-0.1255204826593399
1761399359621421000,0.427421142578125,-0.04626454785466194,-0.057505931705236435,-0.12312231957912445
1761399359631501600,0.43750146484375,-0.044782351702451706,-0.07584188133478165,-0.1254538595676422
1761399359641582300,0.447582275390625,-0.046947356313467026,-0.09216270595788956,-0.14402297139167786
1761399359651662800,0.457662841796875,-0.04688074067234993,-0.1075342670083046,-0.16315831243991852
1761399359661743600,0.46774365234375,-0.047696784138679504,-0.12562040984630585,-0.17121879756450653
1761399359671820500,0.477820556640625,-0.041934531182050705,-0.14397300779819489,-0.17315064370632172
1761399359681905000,0.48790478515625,-0.028944486752152443,-0.16139298677444458,-0.17989547550678253
1761399359691986000,0.49798583984375,-0.01392266433686018,-0.17106890678405762,-0.1916031688451767
1761399359702066000,0.50806591796875,-0.006078675389289856,-0.1789628565311432,-0.19714891910552979
1761399359712147200,0.518147216796875,-0.009426110424101353,-0.184525266289711,-0.1900710165500641
1761399359722227700,0.528227783203125,-0.013356431387364864,-0.1868901252746582,-0.17743070423603058
1761399359732304600,0.5383046875,-0.012290582060813904,-0.1903541386127472,-0.16645577549934387
1761399359742389000,0.548388916015625,-0.007943912409245968,-0.19273564219474792,-0.16197587549686432
1761399359752469500,0.558469482421875,-0.0003663859097287059,-0.19495061039924622,-0.1653566211462021
1761399359762541000,0.568541015625,0.004879594314843416,-0.19943051040172577,-0.1718849539756775
1761399359772631000,0.578631103515625,0.012074081227183342,-0.21032217144966125,-0.17743070423603058
1761399359782690800,0.58869091796875,0.016770482063293457,-0.22456125915050507,-0.18374253809452057
1761399359792792300,0.598792236328125,0.01615428738296032,-0.23095634579658508,-0.19156986474990845
1761399359802891500,0.6088916015625,0.010741768404841423,-0.23656871914863586,-0.1952170729637146
1761399359812929000,0.618928955078125,-0.0006828100886195898,-0.24704402685165405,-0.19296880066394806
1761399359823038000,0.629037841796875,-0.018818913027644157,-0.2572028934955597,-0.18817247450351715
1761399359833089800,0.63908984375,-0.039136677980422974,-0.2691437602043152,-0.18242686986923218
1761399359843196400,0.649196533203125,-0.062185682356357574,-0.27702105045318604,-0.1791127473115921
1761399359853276200,0.659276123046875,-0.07998870313167572,-0.28251683712005615,-0.1790461242198944
1761399359863331800,0.669331787109375,-0.0923292487859726,-0.29265907406806946,-0.18544122576713562
1761399359873424000,0.679423828125,-0.10498621314764023,-0.3051161766052246,-0.19919735193252563
1761399359883493000,0.6894931640625,-0.1173267588019371,-0.3156081438064575,-0.21608442068099976
1761399359893573600,0.69957373046875,-0.12741902470588684,-0.3171069920063019,-0.2315891981124878
1761399359903680300,0.70968017578125,-0.13979287445545197,-0.3084303140640259,-0.24642783403396606
1761399359913735200,0.719735107421875,-0.1513340324163437,-0.2942078709602356,-0.26141634583473206
1761399359923837700,0.729837646484375,-0.16505685448646545,-0.27861982583999634,-0.2714586555957794
1761399359933896000,0.73989599609375,-0.18072818219661713,-0.26301512122154236,-0.27410662174224854
1761399359944003300,0.75000341796875,-0.19664931297302246,-0.2476269155740738,-0.26966002583503723
1761399359954062800,0.760062744140625,-0.20905646681785583,-0.23122280836105347,-0.2606002986431122
1761399359964163800,0.770163818359375,-0.2174333781003952,-0.2172168791294098,-0.25510451197624207
1761399359974244900,0.780244873046875,-0.2222297042608261,-0.20214509963989258,-0.2530560791492462
1761399359984325600,0.79032568359375,-0.2274257242679596,-0.18214376270771027,-0.24955876171588898
1761399359994402000,0.800402099609375,-0.23288820683956146,-0.1740332990884781,-0.2442295104265213
1761399360004486400,0.810486328125,-0.24108192324638367,-0.1680045872926712,-0.2309063971042633
1761399360014567200,0.820567138671875,-0.24421286582946777,-0.1645239293575287,-0.2197149693965912
1761399360024648000,0.83064794921875,-0.24146497249603271,-0.15684647858142853,-0.21287021040916443
1761399360034728700,0.840728759765625,-0.237984299659729,-0.15096764266490936,-0.20522606372833252
1761399360044809000,0.85080908203125,-0.2447790950536728,-0.15223334729671478,-0.1996636688709259
1761399360054890000,0.860889892578125,-0.26406431198120117,-0.15889491140842438,-0.19155322015285492
1761399360064970000,0.870969970703125,-0.2797189950942993,-0.1584952175617218,-0.17373353242874146
1761399360075051000,0.881051025390625,-0.2817840576171875,-0.14219103753566742,-0.14826971292495728
1761399360085131500,0.891131591796875,-0.28216710686683655,-0.10560241341590881,-0.12508748471736908
1761399360095212300,0.90121240234375,-0.29549023509025574,-0.0663658082485199,-0.10423678904771805
1761399360105292800,0.911292724609375,-0.3077475130558014,-0.05668989196419716,-0.07291079312562943
1761399360115353000,0.92135302734375,-0.2979050576686859,-0.03217534348368645,-0.012290582060813904
1761399360125434400,0.931434326171875,-0.3003198802471161,0.04108518362045288,0.03232523053884506
1761399360135535600,0.94153564453125,-0.3006696105003357,0.0712287500500679,0.08238686621189117
1761399360145615600,0.95161572265625,-0.27390676736831665,0.06225229799747467,0.1412084549665451
1761399360155697200,0.961697265625,-0.2029944509267807,-0.009359494782984257,0.2008294314146042
1761399360165777000,0.97177685546875,-0.1012224331498146,-0.16808785498142242,0.2355528324842453
1761399360175857700,0.981857666015625,0.029927067458629608,-0.4281885325908661,0.2699764370918274
1761399360185939000,0.99193896484375,0.0992739275097847,-0.5362223982810974,0.26299846172332764
1761399360196019000,1.00201904296875,0.06166940927505493,-0.6990976333618164,0.22699272632598877
1761399360206099500,1.012099365234375,0.051543835550546646,-0.9289880990982056,0.20211179554462433
1761399360216180200,1.02218017578125,0.12377182394266129,-1.0495623350143433,0.1948007196187973
1761399360226261000,1.032260986328125,0.22294582426548004,-1.0943114757537842,0.20211179554462433
1761399360236342800,1.0423427734375,0.29840466380119324,-1.1095830202102661,0.2632482647895813
1761399360246396700,1.052396728515625,0.3498319387435913,-1.0682480335235596,0.4206276834011078
1761399360256503300,1.06250341796875,0.3736303448677063,-0.9746364951133728,0.6653234958648682
1761399360266584000,1.072583984375,0.3713487684726715,-0.9326852560043335,0.877577543258667
1761399360276664300,1.082664306640625,0.35104766488075256,-0.9541188478469849,1.0232325792312622
1761399360286744800,1.092744873046875,0.3639877438545227,-0.9430273771286011,1.1497856378555298
1761399360296825600,1.10282568359375,0.44366002082824707,-0.9342840313911438,1.3513145446777344
1761399360306906000,1.112906005859375,0.5840524435043335,-0.8808416724205017,1.6103160381317139
1761399360316987000,1.12298681640625,0.7291745543479919,-0.7846487164497375,1.811045527458191
1761399360327067400,1.1330673828125,0.8400729298591614,-0.6158447265625,1.9178470373153687
1761399360337149000,1.14314892578125,0.904123842716217,-0.40943625569343567,1.9495893716812134
1761399360347229000,1.15322900390625,0.9359993934631348,-0.218965545296669,1.9278393983840942
1761399360357309400,1.163309326171875,0.9426442980766296,-0.12020788341760635,1.8394070863723755
1761399360367390200,1.17339013671875,0.9181298017501831,-0.15053464472293854,1.6898550987243652
1761399360377471000,1.183470947265625,0.868717610836029,-0.19748200476169586,1.5406360626220703
1761399360387551500,1.193551513671875,0.8293477892875671,-0.16442400217056274,1.4456422328948975
1761399360397632300,1.20363232421875,0.832012414932251,-0.06649903953075409,1.4292380809783936
1761399360407733200,1.213733154296875,0.8479335904121399,-0.003080972470343113,1.4531031847000122
1761399360417793500,1.22379345703125,0.8759287595748901,-0.04474904388189316,1.4524869918823242
1761399360427849000,1.233848876953125,0.8884358406066895,-0.11759322136640549,1.4023420810699463
1761399360437956600,1.24395654296875,0.9175635576248169,-0.1533491611480713,1.3047335147857666
1761399360448034300,1.254034423828125,0.9424445033073425,-0.20747435092926025,1.1727346181869507
1761399360458112000,1.264112060546875,0.9170639514923096,-0.2256271094083786,1.0462149381637573
1761399360468194300,1.2741943359375,0.8438699841499329,-0.32944753766059875,0.9348169565200806
1761399360478278000,1.28427783203125,0.7796192169189453,-0.5023650527000427,0.8274825811386108
1761399360488358100,1.294358154296875,0.7038439512252808,-0.6792628169059753,0.7411986589431763
1761399360498414600,1.30441455078125,0.6140294671058655,-0.8295809626579285,0.6663560271263123
1761399360508494300,1.314494384765625,0.5310930013656616,-0.9530196785926819,0.5828700065612793
1761399360518601000,1.32460107421875,0.48780953884124756,-0.9736539125442505,0.4997004270553589
1761399360528681500,1.334681396484375,0.4551345705986023,-0.9185627698898315,0.4177798628807068
1761399360538761500,1.344761474609375,0.4145823121070862,-0.8468177318572998,0.335093230009079
1761399360548842200,1.35484228515625,0.4332679808139801,-0.7834829688072205,0.2530560791492462
1761399360558919000,1.3649189453125,0.43148601055145264,-0.6997637748718262,0.16430743038654327
1761399360568962600,1.374962646484375,0.330047070980072,-0.6266531348228455,0.08266998082399368
1761399360579084300,1.385084228515625,0.1868901252746582,-0.6040704250335693,-0.006744831334799528
1761399360589162000,1.395161865234375,0.06048698350787163,-0.5756422281265259,-0.08761619031429291
1761399360599246300,1.405246337890625,0.035006508231163025,-0.4559172987937927,-0.13597913086414337
1761399360609301000,1.415301025390625,-0.030626531690359116,-0.3504314720630646,-0.15441501140594482
1761399360619407600,1.42540771484375,-0.11722683906555176,-0.21994812786579132,-0.15303273499011993
1761399360629467000,1.435466796875,-0.21085508167743683,-0.07084570825099945,-0.15816213190555573
1761399360639569700,1.445569580078125,-0.2912767827510834,0.07444295287132263,-0.190837100148201
1761399360649624000,1.4556240234375,-0.3378744125366211,0.21232062578201294,-0.26419755816459656
1761399360659730200,1.465730224609375,-0.36548659205436707,0.3355428874492645,-0.36915045976638794
1761399360669810700,1.475810791015625,-0.3915999233722687,0.4471740126609802,-0.465060293674469
1761399360679891000,1.485890869140625,-0.4158480167388916,0.543883204460144,-0.4993673264980316
1761399360689967900,1.4959677734375,-0.40712136030197144,0.6044034957885742,-0.4143824577331543
1761399360700052200,1.50605224609375,-0.3318290412425995,0.5927457809448242,-0.22337882220745087
1761399360710133800,1.5161337890625,-0.19518376886844635,0.5740434527397156,-0.11909207701683044
1761399360720213500,1.526213623046875,-0.026946017518639565,0.466808944940567,-0.1548813134431839
1761399360730294800,1.536294677734375,0.1295340657234192,0.22232963144779205,-0.16762155294418335
1761399360740351200,1.546351318359375,0.2521401047706604,0.05385872721672058,-0.08989778161048889
1761399360750430500,1.556430419921875,0.3512974679470062,-0.027162518352270126,0.014722052030265331
1761399360760532200,1.5665322265625,0.42220979928970337,-0.04543185234069824,0.09346171468496323
1761399360770617300,1.576617431640625,0.4618127942085266,-0.0271791722625494,0.09820807725191116
1761399360780697600,1.586697509765625,0.47996553778648376,-0.0037637825589627028,-0.0025313934311270714
1761399360790778400,1.5967783203125,0.48750975728034973,-0.008010528050363064,-0.14677086472511292
1761399360800859000,1.60685888671875,0.47725096344947815,-0.021350305527448654,-0.23398736119270325
1761399360810940700,1.616940673828125,0.384039044380188,-0.0370049774646759,-0.23290486633777618
1761399360821016300,1.627016357421875,0.10277124494314194,0.03205876797437668,-0.31945520639419556
1761399360831101000,1.637100830078125,-0.3237352669239044,0.2911435663700104,-0.5216169357299805
1761399360841181400,1.647181396484375,-0.7076910138130188,0.6465878486633301,-0.7011293768882751
1761399360851262200,1.65726220703125,-0.8493824601173401,0.8954305052757263,-0.7318891286849976
1761399360861342700,1.6673427734375,-0.6698033809661865,0.8041837811470032,-0.6753324866294861
1761399360871423500,1.677423583984375,-0.2817840576171875,0.9019421935081482,-0.5573895573616028
1761399360881500700,1.687500732421875,0.14150823652744293,0.7550880312919617,-0.3377245366573334
1761399360891585000,1.6975849609375,0.3997936248779297,0.3315625786781311,-0.056007083505392075
1761399360901665300,1.707665283203125,0.3723979592323303,0.31382617354393005,0.07792361825704575
1761399360911746300,1.717746337890625,0.11472874879837036,0.5184027552604675,-0.042567379772663116
1761399360921826800,1.727826904296875,-0.28604745864868164,0.5950773358345032,-0.3137096166610718
1761399360931907600,1.737907470703125,-0.7614331841468811,0.45177048444747925,-0.6027048230171204
1761399360941988400,1.74798828125,-1.1758322715759277,0.13594582676887512,-0.8212040662765503
1761399360952065000,1.75806494140625,-1.3094133138656616,-0.2784366309642792,-1.0387040376663208
1761399360962124500,1.76812451171875,-1.0070116519927979,-0.611115038394928,-1.3001370429992676
1761399360972188400,1.7781884765625,-0.444242924451828,-0.6937017440795898,-1.4005934000015259
1761399360982285600,1.78828564453125,-0.07494257390499115,-0.3778104782104492,-1.1183263063430786
1761399360992391400,1.798391357421875,-0.008143759332597256,-0.08048832416534424,-0.6718685030937195
1761399361002458000,1.8084580078125,-0.12813514471054077,0.017936255782842636,-0.42355877161026
1761399361012549000,1.818549072265625,-0.29454097151756287,0.041135143488645554,-0.5486962199211121
1761399361022608100,1.828608154296875,-0.41324999928474426,0.1353129744529724,-0.8948476314544678
1761399361032714500,1.838714599609375,-0.4136829972267151,0.2614330053329468,-1.238417625427246
1761399361042795000,1.848794921875,-0.3435201048851013,0.41066864132881165,-1.4314197301864624
1761399361052875800,1.858875732421875,-0.289777934551239,0.4700064957141876,-1.4327020645141602
1761399361062956000,1.8689560546875,-0.27855321764945984,0.42510756850242615,-1.2625324726104736
1761399361073024000,1.87902392578125,-0.31104499101638794,0.3475170433521271,-0.9735872745513916
1761399361083100700,1.8891005859375,-0.3764781653881073,0.32291921973228455,-0.703527569770813
1761399361093174800,1.8991748046875,-0.4559839069843292,0.37694448232650757,-0.5944944620132446
1761399361103279600,1.909279541015625,-0.5026814341545105,0.3997270166873932,-0.6146956086158752
1761399361113339000,1.9193388671875,-0.5152884721755981,0.3889852464199066,-0.682327151298523
1761399361123441000,1.92944091796875,-0.5056291818618774,0.347883403301239,-0.731039822101593
1761399361133513500,1.939513427734375,-0.4749860167503357,0.2726244330406189,-0.7288414835929871
1761399361143597800,1.949597900390625,-0.4334844946861267,0.14242419600486755,-0.6851583123207092
1761399361153656800,1.95965673828125,-0.40400707721710205,0.01119142398238182,-0.626619815826416
1761399361163763700,1.969763671875,-0.41351646184921265,-0.07281087338924408,-0.5754257440567017
1761399361173844500,1.979844482421875,-0.4477902054786682,-0.09534360468387604,-0.5301271080970764
1761399361183924500,1.989924560546875,-0.5040137767791748,0.021700037643313408,-0.5169038772583008
1761399361194005000,2.0000048828125,-0.5796391367912292,0.11216405034065247,-0.5545417070388794
1761399361204081400,2.010081298828125,-0.6307500004768372,0.1266196370124817,-0.6247379183769226
1761399361214167000,2.0201669921875,-0.6575794219970703,0.055757272988557816,-0.7164010405540466
1761399361224246800,2.030246826171875,-0.6778805255889893,-0.08095463365316391,-0.8056492805480957
1761399361234328300,2.040328369140625,-0.7073579430580139,-0.2699264883995056,-0.8619228601455688
1761399361244408300,2.050408203125,-0.6616429686546326,-0.4066217541694641,-0.8697168827056885
1761399361254488800,2.06048876953125,-0.6282352805137634,-0.40538933873176575,-0.878593385219574
1761399361264569300,2.0705693359375,-0.6328983306884766,-0.41103503108024597,-0.8480168581008911
1761399361274650600,2.080650634765625,-0.598224937915802,-0.46802470088005066,-0.7336544394493103
1761399361284731000,2.09073095703125,-0.578057050704956,-0.30599886178970337,-0.66017746925354
1761399361294811400,2.100811279296875,-0.6690373420715332,-0.08491826057434082,-0.6626588702201843
1761399361304892200,2.11089208984375,-0.7468443512916565,-0.04814643785357475,-0.6424244046211243
1761399361314972700,2.12097265625,-0.736518919467926,-0.10958269238471985,-0.5698300004005432
1761399361325032200,2.1310322265625,-0.6492191553115845,-0.16880397498607635,-0.4807316064834595
1761399361335134200,2.14113427734375,-0.526663064956665,-0.19878101348876953,-0.39254918694496155
1761399361345189600,2.151189697265625,-0.41649749875068665,-0.2198648452758789,-0.3057990074157715
1761399361355296500,2.161296630859375,-0.32082080841064453,-0.22546055912971497,-0.21463552117347717
1761399361365376300,2.171376220703125,-0.2320721596479416,-0.2245112955570221,-0.11442898213863373
1761399361375456800,2.181456787109375,-0.1548147052526474,-0.23535297811031342,-0.00979249645024538
1761399361385537500,2.19153759765625,-0.10422013700008392,-0.1851581186056137,0.0969090685248375
1761399361395618300,2.201618408203125,-0.0700463205575943,-0.08541787415742874,0.212703675031662
1761399361405699300,2.21169921875,-0.017419984564185143,-0.0671985074877739,0.3173235058784485
1761399361415779600,2.221779541015625,0.08804919570684433,-0.1979316622018814,0.3929155766963959
1761399361425860400,2.2318603515625,0.2527729570865631,-0.4790828824043274,0.4439764618873596
1761399361435915500,2.24191552734375,0.45043817162513733,-0.855061411857605,0.47545233368873596
1761399361446021600,2.252021728515625,0.6465378999710083,-1.2339544296264648,0.507660984992981
1761399361456079000,2.2620791015625,0.8213372826576233,-1.6180434226989746,0.5727277994155884
1761399361466180900,2.272180908203125,1.0152053833007812,-1.710555911064148,0.643973171710968
1761399361476263700,2.282263671875,1.0644842386245728,-1.5205014944076538,0.6737003922462463
1761399361486341600,2.292341552734375,1.0220834016799927,-1.4145992994308472,0.7607170939445496
1761399361496425000,2.302425048828125,0.940895676612854,-1.3618897199630737,1.031859278678894
1761399361506528000,2.312528076171875,0.8304635882377625,-1.2004634141921997,1.4985183477401733
1761399361516586200,2.322586181640625,0.7472773790359497,-0.8804919719696045,2.057539939880371
1761399361526676200,2.33267626953125,0.7370518445968628,-0.5495288968086243,2.5582728385925293
1761399361536732000,2.34273193359375,0.7519571185112,-0.33735814690589905,2.848400592803955
1761399361546803200,2.35280322265625,0.7877629995346069,-0.21390275657176971,2.88775372505188
1761399361556909300,2.362909423828125,0.923325777053833,-0.14029249548912048,2.6834936141967773
1761399361566950400,2.372950439453125,1.1335647106170654,-0.04959532991051674,2.3241190910339355
1761399361577045000,2.383044921875,1.341605305671692,0.054708078503608704,1.9436439275741577
1761399361587133400,2.393133544921875,1.5118248462677002,0.13344773650169373,1.677880883216858
1761399361597209600,2.403209716796875,1.6281523704528809,0.18206048011779785,1.5942949056625366
1761399361607295500,2.41329541015625,1.6762654781341553,0.1439896672964096,1.6508516073226929
1761399361617393200,2.42339306640625,1.7056928873062134,-0.061303023248910904,1.7364859580993652
1761399361627454000,2.433453857421875,1.6633920669555664,-0.37506258487701416,1.7124876976013184
1761399361637540000,2.4435400390625,1.4995675086975098,-0.7410821318626404,1.521767258644104
1761399361647609900,2.45360986328125,1.2604007720947266,-1.0354232788085938,1.2062256336212158
1761399361657694700,2.46369482421875,1.0272295475006104,-1.2311898469924927,0.8501152396202087
1761399361667771600,2.473771728515625,0.9005932211875916,-1.3281655311584473,0.5677982568740845
1761399361677876700,2.483876708984375,0.8448193073272705,-1.3924329280853271,0.402391642332077
1761399361687955000,2.493954833984375,0.7780038118362427,-1.4610470533370972,0.3195384740829468
1761399361698036500,2.504036376953125,0.6856579184532166,-1.635513424873352,0.22932426631450653
1761399361708108800,2.51410888671875,0.5905308127403259,-1.816524624824524,0.1205909252166748
1761399361718196500,2.524196533203125,0.519951581954956,-1.8680684566497803,0.017170175909996033
1761399361728271000,2.53427099609375,0.47168853878974915,-1.7278425693511963,-0.035422854125499725
1761399361738361300,2.544361328125,0.47163859009742737,-1.4960203170776367,-0.06731508672237396
1761399361748458200,2.554458251953125,0.5511110424995422,-1.2936420440673828,-0.1262865662574768
1761399361758523000,2.56452294921875,0.7764217257499695,-1.136129379272461,-0.23571936786174774
1761399361768603600,2.574603759765625,0.8607404232025146,-0.9329517483711243,-0.3705660402774811
1761399361778679600,2.584679443359375,0.8339110016822815,-0.9069550037384033,-0.5422511696815491
1761399361788764700,2.5947646484375,0.7596345543861389,-0.9671089053153992,-0.7278922200202942
1761399361798845200,2.60484521484375,0.6722848415374756,-0.9910572171211243,-0.8597911596298218
1761399361808900400,2.614900390625,0.577157735824585,-0.9285551309585571,-0.911318302154541
1761399361819006200,2.625006103515625,0.44219449162483215,-0.7775208353996277,-0.9052063226699829
1761399361829086700,2.635086669921875,0.27210813760757446,-0.5415183901786804,-0.8660529851913452
1761399361839164200,2.6451640625,0.08017189800739288,-0.2849816083908081,-0.8370752334594727
1761399361849248300,2.655248291015625,-0.08773276954889297,-0.02011791616678238,-0.8438034057617188
1761399361859329800,2.665329833984375,-0.2234620898962021,0.15603043138980865,-0.858908474445343
1761399361869409800,2.675409912109375,-0.36965006589889526,0.18162748217582703,-0.8297974467277527
1761399361879490300,2.685490234375,-0.5642842650413513,0.08968127518892288,-0.7568866610527039
1761399361889571300,2.6955712890625,-0.7960899472236633,-0.07054594159126282,-0.6959666609764099
1761399361899651600,2.705651611328125,-0.9901579022407532,-0.3698166012763977,-0.5903143286705017
1761399361909728300,2.715728271484375,-1.0351067781448364,-0.7768380641937256,-0.3899345397949219
1761399361919812600,2.7258125,-0.8915334939956665,-1.0519771575927734,-0.32125383615493774
1761399361929893600,2.7358935546875,-0.5821539163589478,-1.181344747543335,-0.43768128752708435
1761399361939974400,2.745974365234375,-0.2293742299079895,-1.086617350578308,-0.4700064957141876
1761399361950055000,2.756054931640625,0.08291979134082794,-0.8794427514076233,-0.32138705253601074
1761399361960136000,2.766135986328125,0.31973832845687866,-0.6718685030937195,-0.06731508672237396
1761399361970212400,2.77621240234375,0.5254140496253967,-0.34200459718704224,0.10941615700721741
1761399361980281300,2.78628125,0.7325220108032227,0.10889988392591476,0.047830015420913696
1761399361990352100,2.79635205078125,0.8663694262504578,0.41804632544517517,-0.1703694462776184
1761399362000458200,2.806458251953125,0.9175468683242798,0.4843788146972656,-0.38318970799446106
1761399362010538800,2.816538818359375,0.8961299657821655,0.34283727407455444,-0.47378695011138916
1761399362020619500,2.82661962890625,0.705026388168335,0.10861676931381226,-0.39046746492385864
1761399362040777200,2.846777099609375,-0.43240198493003845,-0.3893183469772339,-0.6462547779083252
1761399362050861600,2.856861572265625,-1.0175368785858154,-0.3830065131187439,-1.024248480796814
1761399362060942000,2.866942138671875,-1.3684513568878174,-0.48466193675994873,-1.2127540111541748
1761399362071022800,2.87702294921875,-1.308680534362793,-0.7876297831535339,-0.8568933606147766
1761399362081103400,2.887103271484375,-0.7117712497711182,-0.953918993473053,-0.1893882006406784
1761399362091184000,2.89718408203125,0.15055130422115326,-1.0897482633590698,0.4035407602787018
1761399362101260500,2.907260498046875,0.8327951431274414,-1.187723159790039,0.7499586343765259
1761399362111345700,2.917345703125,1.0504117012023926,-1.0147724151611328,0.6338309645652771
1761399362121417700,2.927417724609375,0.845402181148529,-1.0142061710357666,0.030043644830584526
1761399362131507000,2.9375068359375,0.2775373160839081,-1.297489047050476,-0.7591515779495239
1761399362141587500,2.94758740234375,-0.4461747705936432,-1.5393370389938354,-1.475036382675171
1761399362151643000,2.957642822265625,-1.0370053052902222,-1.8316797018051147,-1.976718544960022
1761399362161745200,2.9677451171875,-1.273557424545288,-2.2838997840881348,-2.180812120437622
1761399362171804000,2.977803955078125,-1.154948353767395,-2.4911909103393555,-2.1377952098846436
1761399362181907700,2.98790771484375,-0.71085524559021,-2.3300976753234863,-1.9224767684936523
1761399362191965000,2.99796484375,-0.15125076472759247,-1.785881519317627,-1.526613473892212
1761399362202071600,3.008071533203125,0.21665064990520477,-1.1872402429580688,-1.0273793935775757
1761399362212142800,3.018142822265625,0.3021850883960724,-0.9045068621635437,-0.6964330077171326
1761399362222232800,3.02823291015625,0.1505013406276703,-0.7244948148727417,-0.6676550507545471
1761399362232288000,3.0382880859375,-0.08824904263019562,-0.5181695818901062,-0.8578925728797913
1761399362242395100,3.04839501953125,-0.3025514781475067,-0.31022894382476807,-1.1278190612792969
1761399362252475400,3.058475341796875,-0.43373429775238037,-0.17291750013828278,-1.332895278930664
1761399362262555600,3.0685556640625,-0.4679747223854065,-0.126419797539711,-1.3811249732971191
1761399362272610800,3.07861083984375,-0.43814757466316223,-0.14339011907577515,-1.2813847064971924
1761399362282716400,3.08871630859375,-0.4088866710662842,-0.1984146237373352,-1.0674653053283691
1761399362292793300,3.09879345703125,-0.4034741520881653,-0.29062730073928833,-0.8141427636146545
1761399362302878000,3.1088779296875,-0.4197450280189514,-0.37721094489097595,-0.5854180455207825
1761399362312959200,3.118959228515625,-0.45212021470069885,-0.4400794208049774,-0.43053674697875977
1761399362323039500,3.12903955078125,-0.505812406539917,-0.5020152926445007,-0.38353943824768066
1761399362333120300,3.139120361328125,-0.5559406280517578,-0.5712456107139587,-0.4454253315925598
1761399362343200800,3.14920068359375,-0.5916132926940918,-0.6452388763427734,-0.5945610404014587
1761399362353281500,3.159281494140625,-0.6035041809082031,-0.6851749420166016,-0.7868303656578064
1761399362363358500,3.1693583984375,-0.5876996517181396,-0.6995972394943237,-0.9926226735115051
1761399362373442800,3.17944287109375,-0.5682145953178406,-0.6957501769065857,-1.1784802675247192
1761399362383523300,3.1895234375,-0.5809048414230347,-0.6816443204879761,-1.3077645301818848
1761399362393604400,3.199604248046875,-0.6396765112876892,-0.6669555902481079,-1.3562606573104858
1761399362403685600,3.209685546875,-0.6846420168876648,-0.6194086670875549,-1.3384077548980713
1761399362413750000,3.21975,-0.7108219861984253,-0.531326174736023,-1.2822507619857788
1761399362423842000,3.229842041015625,-0.7240784764289856,-0.4271726608276367,-1.2167842388153076
1761399362433909200,3.2399091796875,-0.7217469215393066,-0.34185469150543213,-1.1661896705627441
1761399362444008000,3.250008056640625,-0.7137697339057922,-0.283466100692749,-1.131799340248108
1761399362454063000,3.26006298828125,-0.6873399615287781,-0.2595177888870239,-1.1120644807815552
1761399362464169500,3.27016943359375,-0.6791961789131165,-0.21255378425121307,-1.128735065460205
1761399362474249700,3.280249755859375,-0.6966994404792786,-0.17859648168087006,-1.1303671598434448
1761399362484320800,3.29032080078125,-0.7264932990074158,-0.21265371143817902,-1.1348470449447632
1761399362494385700,3.3003857421875,-0.710105836391449,-0.3798089623451233,-1.102921485900879
1761399362504491500,3.310491455078125,-0.6501851081848145,-0.6313661932945251,-1.013406753540039
1761399362514572800,3.32057275390625,-0.5774741768836975,-0.8385241031646729,-0.8578925728797913
1761399362524652800,3.33065283203125,-0.493188738822937,-0.9561672806739807,-0.6515507102012634
1761399362534708200,3.340708251953125,-0.4092697203159332,-0.9501385688781738,-0.41185107827186584
1761399362544789500,3.35078955078125,-0.3595578074455261,-0.8163910508155823,-0.14846956729888916
1761399362554870000,3.3608701171875,-0.35449501872062683,-0.6061188578605652,0.10252143442630768
1761399362564950800,3.37095068359375,-0.3492490351200104,-0.40928637981414795,0.2847151458263397
1761399362575031000,3.381031005859375,-0.30696478486061096,-0.3062819540500641,0.37699443101882935
1761399362585111600,3.391111572265625,-0.20142897963523865,-0.38538801670074463,0.39936062693595886
1761399362595192800,3.40119287109375,-0.055840544402599335,-0.5773742198944092,0.361123263835907
1761399362605261300,3.41126123046875,0.06521669030189514,-0.815275251865387,0.30085280537605286
1761399362615342000,3.421342041015625,0.12174004316329956,-1.02886164188385,0.2536722719669342
1761399362625443300,3.431443359375,0.1665390431880951,-1.2789698839187622,0.21586792171001434
1761399362635506200,3.441506103515625,0.24382981657981873,-1.5308935642242432,0.1961829960346222
1761399362645595600,3.451595703125,0.4164642095565796,-1.7050933837890625,0.2604670822620392
1761399362655668200,3.461668212890625,0.6518504619598389,-1.8240522146224976,0.4708225429058075
1761399362665782000,3.471781982421875,0.8452023267745972,-1.933368444442749,0.8445528149604797
1761399362675863000,3.481863037109375,0.9257405996322632,-1.9622130393981934,1.2429141998291016
1761399362685944300,3.4919443359375,0.9399464130401611,-1.8755793571472168,1.6008899211883545
1761399362696024600,3.502024658203125,0.9795160889625549,-1.664391279220581,1.9316364526748657
1761399362706104800,3.512104736328125,1.0599377155303955,-1.4439934492111206,2.192969560623169
1761399362716186400,3.522186279296875,1.120757818222046,-1.2781705856323242,2.32723331451416
1761399362726266400,3.532266357421875,1.1984483003616333,-1.0702465772628784,2.3152923583984375
1761399362736327000,3.542326904296875,1.3374251127243042,-0.7765049934387207,2.16505765914917
1761399362746428200,3.55242822265625,1.506395697593689,-0.4477235674858093,1.900426983833313
1761399362756508700,3.5625087890625,1.6229729652404785,-0.2112547755241394,1.5842026472091675
1761399362766566400,3.57256640625,1.6520839929580688,-0.1267695277929306,1.3148257732391357
1761399362776669700,3.582669677734375,1.6473376750946045,-0.10162212699651718,1.1694039106369019
1761399362786750000,3.59275,1.6811283826828003,-0.08175402134656906,1.1722849607467651
1761399362796831500,3.60283154296875,1.7755061388015747,-0.05449157580733299,1.3042006492614746
1761399362806910000,3.612909912109375,1.8593918085098267,-0.00696133216843009,1.4447596073150635
1761399362816992500,3.622992431640625,1.8347606658935547,0.13219869136810303,1.47038996219635
1761399362827073000,3.633072998046875,1.7408493757247925,0.2501915991306305,1.3166576623916626
1761399362837153500,3.643153564453125,1.7033780813217163,0.1455884426832199,1.03309166431427
1761399362847235000,3.653235107421875,1.6881730556488037,-0.19586656987667084,0.7370185852050781
1761399362857314800,3.663314697265625,1.6403263807296753,-0.6470874547958374,0.4623457193374634
1761399362867396400,3.673396240234375,1.5371054410934448,-1.103004813194275,0.25293949246406555
1761399362877476400,3.683476318359375,1.359391689300537,-1.5024986267089844,0.10815045982599258
1761399362887557600,3.6935576171875,1.1637415885925293,-1.6750330924987793,0.09409455955028534
1761399362897638000,3.703637939453125,1.0113250017166138,-1.6842093467712402,0.19664931297302246
1761399362907693000,3.713693115234375,0.8733307719230652,-1.5772247314453125,0.3294975161552429
1761399362917765600,3.723765625,0.7465612292289734,-1.4087704420089722,0.4439764618873596
1761399362927879700,3.733879638671875,0.693635106086731,-1.2147358655929565,0.5158213973045349
1761399362937967000,3.743967041015625,0.7034776210784912,-1.099507451057434,0.49646955728530884
1761399362948039200,3.7540390625,0.7255273461341858,-1.11952543258667,0.3606569766998291
1761399362958117400,3.764117431640625,0.8364423513412476,-1.1294678449630737,0.1927856057882309
1761399362968200700,3.77420068359375,0.9265400171279907,-1.067798376083374,0.022865811362862587
1761399362978283000,3.784282958984375,0.9077710509300232,-0.98760986328125,-0.11744333803653717
1761399362988363500,3.794363525390625,0.834010899066925,-0.8731808662414551,-0.2170170396566391
1761399362998441200,3.804441162109375,0.7243449091911316,-0.7255939841270447,-0.28404900431632996
1761399363008525600,3.814525634765625,0.5474305152893066,-0.565500020980835,-0.3347434997558594
1761399363018606000,3.824606201171875,0.308713436126709,-0.3878527879714966,-0.4031410813331604
1761399363028686300,3.834686279296875,0.03578924015164375,-0.20006336271762848,-0.5299106240272522
1761399363038767000,3.84476708984375,-0.2193152755498886,-0.014405627734959126,-0.7085736989974976
1761399363048822300,3.854822265625,-0.41038551926612854,0.11474540084600449,-0.9029247760772705
1761399363058924300,3.86492431640625,-0.5498120188713074,0.18928828835487366,-1.0783569812774658
1761399363068989400,3.874989501953125,-0.678413450717926,0.2192986160516739,-1.2009130716323853
1761399363079089700,3.885089599609375,-0.8076977133750916,0.1995304375886917,-1.215185523033142
1761399363089145600,3.8951455078125,-0.9117347002029419,0.07544218748807907,-1.0708627700805664
1761399363099250700,3.905250732421875,-0.9179465770721436,-0.22289586067199707,-0.773024320602417
1761399363109332000,3.91533203125,-0.7701098918914795,-0.6116479635238647,-0.44287729263305664
1761399363119408000,3.925408203125,-0.46599289774894714,-0.9100526571273804,-0.23445367813110352
1761399363129492700,3.93549267578125,-0.06408422440290451,-1.0090267658233643,-0.14647109806537628
1761399363139573800,3.94557373046875,0.34345346689224243,-0.9902411699295044,-0.08966462314128876
1761399363149654300,3.955654296875,0.685824453830719,-0.941511869430542,-0.03543950989842415
1761399363159710000,3.9657099609375,0.9053895473480225,-0.8089134693145752,0.01928522251546383
1761399363169815600,3.975815673828125,0.9786500334739685,-0.5531094670295715,0.07779038697481155
1761399363179896300,3.985896240234375,0.9308533668518066,-0.25627028942108154,0.09639280289411545
1761399363189973000,3.995972900390625,0.8162744641304016,-0.048446208238601685,0.04474904388189316
1761399363200058400,4.006058349609375,0.6481033563613892,0.10002335160970688,-0.07124540209770203
1761399363210138400,4.016138427734375,0.41962844133377075,0.1413416862487793,-0.15984417498111725
1761399363220219000,4.026218994140625,0.10646841675043106,0.07967227697372437,-0.17336714267730713
1761399363230299600,4.036299560546875,-0.3189389407634735,0.030876340344548225,-0.3292643427848816
1761399363240380200,4.046380126953125,-0.8535959124565125,-0.026113322004675865,-0.7065085768699646
1761399363250457000,4.05645703125,-1.28961181640625,0.05840524286031723,-1.1488863229751587
1761399363260541700,4.066541748046875,-1.421110987663269,0.48952487111091614,-1.4919899702072144
1761399363270622200,4.076622314453125,-1.1399763822555542,0.8811081647872925,-1.6950677633285522
1761399363280703000,4.086702880859375,-0.5896148681640625,0.5684977173805237,-1.2962234020233154
1761399363290783200,4.096783203125,0.06568299978971481,-0.15916137397289276,-0.4472406208515167
1761399363300864300,4.1068642578125,0.557472825050354,-0.40420693159103394,0.1930021047592163
1761399363310944800,4.11694482421875,0.5379877686500549,-0.19573333859443665,0.3334278166294098
1761399363321022200,4.127022216796875,0.10555244982242584,-0.1752157360315323,0.11669391393661499
1761399363331085300,4.137085205078125,-0.5273458957672119,-0.4243747889995575,-0.28613072633743286
1761399363341187300,4.147187255859375,-1.0615698099136353,-0.7691106200218201,-0.6919697523117065
1761399363351242200,4.1572421875,-1.2698935270309448,-1.1674220561981201,-1.0251810550689697
1761399363361347800,4.167347900390625,-1.1222233772277832,-1.438048005104065,-1.2729412317276
1761399363371429000,4.17742919921875,-0.6902044415473938,-1.3701833486557007,-1.4271563291549683
1761399363381484300,4.187484375,-0.25079116225242615,-0.8396732211112976,-1.4250080585479736
1761399363391591200,4.197591064453125,-0.02050095610320568,-0.32480111718177795,-1.2503418922424316
1761399363401671000,4.2076708984375,-0.049245595932006836,-0.1738334596157074,-1.0068618059158325
1761399363411751700,4.217751708984375,-0.2524232268333435,-0.040352411568164825,-0.8859544396400452
1761399363421832000,4.22783203125,-0.4456418454647064,0.12253943085670471,-0.9912071228027344
1761399363431913000,4.237912841796875,-0.5373382568359375,0.2156181037425995,-1.1881228685379028
1761399363441989000,4.247989013671875,-0.5515106916427612,0.20151224732398987,-1.3269665241241455
1761399363452074000,4.258073974609375,-0.5466144680976868,0.08410222083330154,-1.3388906717300415
1761399363462154800,4.26815478515625,-0.5171869993209839,-0.05828866735100746,-1.2310566902160645
1761399363472210000,4.2782099609375,-0.49024099111557007,-0.14510546624660492,-1.0450325012207031
1761399363482316500,4.288316650390625,-0.47015640139579773,-0.16225899755954742,-0.8488994836807251
1761399363492371700,4.298371826171875,-0.48166424036026,-0.10631852596998215,-0.7174668908119202
1761399363502477600,4.3084775390625,-0.5216003060340881,-0.035256315022706985,-0.6698533892631531
1761399363512555000,4.318554931640625,-0.5609201788902283,0.0009825803572311997,-0.6756822466850281
1761399363522638800,4.328638916015625,-0.5773242712020874,-0.036255549639463425,-0.7060089707374573
1761399363532674300,4.33867431640625,-0.5742266178131104,-0.16755492985248566,-0.7469109892845154
1761399363542801000,4.34880078125,-0.5739935040473938,-0.3399728238582611,-0.7959234118461609
1761399363552881000,4.358880859375,-0.5962597727775574,-0.44392648339271545,-0.8433370590209961
1761399363562962000,4.3689619140625,-0.6504848599433899,-0.46086350083351135,-0.8893185257911682
1761399363573038300,4.379038330078125,-0.670802652835846,-0.4040403962135315,-0.911934494972229
1761399363583122700,4.389122802734375,-0.7129369974136353,-0.28759628534317017,-0.9627289175987244
1761399363593203500,4.399203369140625,-0.7649471759796143,-0.30501627922058105,-1.0320924520492554
1761399363603284200,4.4092841796875,-0.8321623206138611,-0.39951053261756897,-1.0850019454956055
1761399363613365000,4.419364990234375,-0.882790207862854,-0.45150402188301086,-1.087566614151001
1761399363623445500,4.429445556640625,-0.9001601934432983,-0.4570830762386322,-1.0283786058425903
1761399363633505800,4.439505859375,-0.8890354037284851,-0.4568499028682709,-0.9305202960968018
1761399363643603000,4.44960302734375,-0.8678849339485168,-0.44615811109542847,-0.8232691287994385
1761399363653687300,4.459687255859375,-0.8493824601173401,-0.41373294591903687,-0.7399163246154785
1761399363663768800,4.469768798828125,-0.8386906385421753,-0.37624502182006836,-0.6970492005348206
1761399363673849000,4.47984912109375,-0.824334979057312,-0.3635047674179077,-0.6947009563446045
1761399363683904800,4.48990478515625,-0.8401062488555908,-0.38199061155319214,-0.7059923410415649
1761399363694010600,4.5000107421875,-0.7903443574905396,-0.35008174180984497,-0.7063087821006775
1761399363704086500,4.51008642578125,-0.7397997379302979,-0.2770543694496155,-0.68657386302948
1761399363724252200,4.530252197265625,-0.5824702978134155,-0.2324885129928589,-0.45703309774398804
1761399363734333400,4.54033349609375,-0.48794275522232056,-0.21843262016773224,-0.283332884311676
1761399363744413200,4.5504130859375,-0.3813410997390747,-0.252839595079422,-0.12165677547454834
1761399363754494200,4.560494140625,-0.2455451786518097,-0.4234921336174011,0.021566806361079216
1761399363764575500,4.570575439453125,-0.14360661804676056,-0.4360325336456299,0.09401129186153412
1761399363774656000,4.580656005859375,-0.07121209800243378,-0.5403359532356262,0.12603674829006195
1761399363784736800,4.59073681640625,-0.002431470202282071,-0.49931737780570984,0.14104191958904266
1761399363794791400,4.60079150390625,-0.07276090979576111,-0.43148601055145264,0.10168874263763428
1761399363804872000,4.610871826171875,-0.17997874319553375,-0.5298439860343933,0.04876263439655304
1761399363814963000,4.620962890625,-0.1802951693534851,-0.7884791493415833,-0.005096094682812691
1761399363825059600,4.6310595703125,-0.029360834509134293,-1.133747935295105,-0.014555512927472591
1761399363835160600,4.64116064453125,0.18297645449638367,-1.5371720790863037,0.015504785813391209
1761399363845221000,4.65122119140625,0.34791672229766846,-1.9460420608520508,0.08789931237697601
1761399363855300900,4.66130078125,0.4179297387599945,-2.250025749206543,0.19253578782081604
1761399363865381400,4.67138134765625,0.4926224946975708,-2.302269220352173,0.360507071018219
1761399363875462000,4.6814619140625,0.6471874117851257,-2.2346043586730957,0.6314494609832764
1761399363885543000,4.69154296875,0.7672953605651855,-2.256770610809326,0.8485164642333984
1761399363895624400,4.70162451171875,0.8385740518569946,-2.3055331707000732,1.0093598365783691
1761399363905704200,4.7117041015625,0.9174136519432068,-2.298804998397827,1.213936448097229
1761399363915785500,4.721785400390625,0.9759687781333923,-2.2428979873657227,1.5300441980361938
1761399363925865500,4.731865478515625,0.994188129901886,-2.1399102210998535,1.8799760341644287
1761399363935921200,4.741921142578125,0.961479902267456,-2.0288453102111816,2.094095230102539
1761399363946027800,4.75202783203125,0.9283552765846252,-1.7662965059280396,2.1559479236602783
1761399363956107800,4.762107666015625,0.9562172293663025,-1.3948644399642944,2.0964767932891846
1761399363966163000,4.772162841796875,1.0349901914596558,-0.9979186058044434,1.9637118577957153
1761399363976270000,4.78227001953125,1.1601109504699707,-0.6125472784042358,1.8264670372009277
1761399363986349300,4.792349365234375,1.3368256092071533,-0.3312794864177704,1.7455123662948608
1761399363996405200,4.8024052734375,1.5335915088653564,-0.2635313868522644,1.761799931526184
1761399364006486000,4.812486083984375,1.7244285345077515,-0.3442528545856476,1.8581761121749878
1761399364016591600,4.822591552734375,1.8379249572753906,-0.44684091210365295,1.937681794166565
1761399364026673200,4.832673095703125,1.8265336751937866,-0.4270893931388855,1.8992446660995483
1761399364036753700,4.842753662109375,1.7501754760742188,-0.3377411961555481,1.7094067335128784
1761399364046807300,4.852807373046875,1.6985317468643188,-0.2769877314567566,1.3920665979385376
1761399364056914200,4.8629140625,1.6717356443405151,-0.34665101766586304,1.0190024375915527
1761399364066995700,4.87299560546875,1.6746667623519897,-0.6048365235328674,0.6344138383865356
1761399364077076000,4.883075927734375,1.6663564443588257,-1.0253809690475464,0.27682119607925415
1761399364087156700,4.89315673828125,1.6085174083709717,-1.4416452646255493,-0.01144123263657093
1761399364097236700,4.90323681640625,1.4976524114608765,-1.6562142372131348,-0.20144563913345337
1761399364107317800,4.91331787109375,1.356910228729248,-1.6800792217254639,-0.3179396986961365
1761399364117398300,4.923398193359375,1.2073748111724854,-1.5639514923095703,-0.35028156638145447
1761399364127478800,4.933478759765625,1.1208910942077637,-1.501715898513794,-0.35799235105514526
1761399364137534500,4.943534423828125,1.1230061054229736,-1.4420117139816284,-0.36340487003326416
1761399364147640000,4.95364013671875,1.1485031843185425,-1.2019789218902588,-0.31985488533973694
1761399364157721000,4.96372119140625,1.1540656089782715,-0.948090136051178,-0.27322396636009216
1761399364167801900,4.9738017578125,1.1401430368423462,-0.821320652961731,-0.29702240228652954
1761399364177882400,4.98388232421875,1.1091333627700806,-0.8216537237167358,-0.3894016146659851
1761399364187963400,4.99396337890625,1.0347570180892944,-0.84080570936203,-0.5103755593299866
1761399364198040300,5.004040283203125,0.907687783241272,-0.8326452970504761,-0.6283185482025146
1761399364208120600,5.01412060546875,0.7555710077285767,-0.8595413565635681,-0.7556875944137573
1761399364218181400,5.024181396484375,0.6762318015098572,-0.8050830960273743,-0.8295643329620361
1761399364228286000,5.034285888671875,0.5562570691108704,-0.691786527633667,-0.8559107780456543
1761399364238366000,5.044365966796875,0.39886102080345154,-0.5600541830062866,-0.8314461708068848
1761399364248447000,5.054447021484375,0.2119542509317398,-0.4000767469406128,-0.7766715288162231
1761399364258527500,5.064527587890625,0.015604709275066853,-0.24972529709339142,-0.7245614528656006
1761399364268608800,5.07460888671875,-0.1681378185749054,-0.1398928016424179,-0.7137030959129333
1761399364278685000,5.084684814453125,-0.3495654761791229,-0.05179364234209061,-0.7488262057304382
1761399364288769500,5.09476953125,-0.5281453132629395,0.006894716527312994,-0.8065152764320374
1761399364298850600,5.1048505859375,-0.6654400825500488,-0.00018319295486435294,-0.828315258026123
1761399364308930800,5.114930908203125,-0.7201814651489258,-0.07186160236597061,-0.806498646736145
1761399364319011600,5.125011474609375,-0.6625089645385742,-0.15784570574760437,-0.7598177790641785
1761399364329092400,5.13509228515625,-0.4694402813911438,-0.21543490886688232,-0.721147358417511
1761399364339147500,5.1451474609375,-0.16245883703231812,-0.25675323605537415,-0.6856245994567871
1761399364349254700,5.155254638671875,0.21008901298046112,-0.32541730999946594,-0.6115147471427917
1761399364359334700,5.165334716796875,0.5444661378860474,-0.26508021354675293,-0.43231871724128723
1761399364369404200,5.175404052734375,0.7381176948547363,0.060470327734947205,-0.20217840373516083
1761399364379496200,5.18549609375,0.8621227145195007,0.3130934238433838,-0.11721017956733704
1761399364389551000,5.195551025390625,0.93485027551651,0.2981548607349396,-0.1979316622018814
1761399364399668500,5.20566845703125,0.9681414365768433,0.01623755693435669,-0.31062862277030945
1761399364409712600,5.215712646484375,0.943360447883606,-0.31619104743003845,-0.4210606813430786
1761399364419818200,5.225818359375,0.7708426117897034,-0.541351854801178,-0.48281335830688477
1761399364429898800,5.235898681640625,0.23973296582698822,-0.5170204639434814,-0.6782968640327454
1761399364439979500,5.2459794921875,-0.5416349172592163,-0.5458816885948181,-1.1019889116287231
1761399364450061000,5.25606103515625,-1.2544387578964233,-0.28016865253448486,-1.4404128789901733
1761399364460141000,5.26614111328125,-1.5384711027145386,0.3563602566719055,-1.4683747291564941
1761399364470206700,5.276206787109375,-1.2153021097183228,0.8279488682746887,-1.4080876111984253
1761399364480302300,5.28630224609375,-0.4507712423801422,0.31702372431755066,-0.9302204847335815
1761399364490383600,5.296383544921875,0.3617727756500244,-0.6637580394744873,-0.07232791185379028
1761399364500464000,5.306464111328125,1.0107587575912476,-0.7192322015762329,0.35199692845344543
1761399364510519600,5.31651953125,1.082703709602356,-0.43498334288597107,0.24449597299098969
1761399364520625200,5.326625244140625,0.5037972927093506,-0.11824272572994232,0.0019318530103191733
1761399364530700800,5.33670068359375,-0.5075610280036926,0.20066289603710175,-0.3709490895271301
1761399364540761000,5.346760986328125,-1.49582040309906,0.49843472242355347,-0.7248112559318542
1761399364550867000,5.356866943359375,-2.126786947250366,0.4980516731739044,-1.02046799659729
1761399364560947500,5.366947509765625,-2.1418588161468506,-0.09924061596393585,-1.372281789779663
1761399364571003000,5.3770029296875,-1.6986316442489624,-0.7405325174331665,-1.5343408584594727
1761399364581109200,5.387109130859375,-0.9222599267959595,-0.5330082178115845,-1.1548317670822144
1761399364591189500,5.397189453125,-0.011124808341264725,0.08235356211662292,-0.5325918793678284
1761399364601266700,5.4072666015625,0.42179346084594727,0.5560905337333679,-0.14838628470897675
1761399364611351000,5.41735107421875,0.25668662786483765,0.8269829750061035,-0.17331719398498535
1761399364631512600,5.4375126953125,-0.5481632947921753,0.8904010057449341,-0.910702109336853
1761399364641593000,5.447593017578125,-0.6521003246307373,0.9623125791549683,-1.095593810081482
1761399364651673900,5.457673828125,-0.5299938917160034,1.0583722591400146,-1.104103922843933
1761399364661751000,5.4677509765625,-0.35063132643699646,1.130500316619873,-1.010658860206604
1761399364671835100,5.477835205078125,-0.26556316018104553,1.0394700765609741,-0.8597578406333923
1761399364681890300,5.487890380859375,-0.2926090955734253,0.8931655883789062,-0.6873732805252075
1761399364691997000,5.497996826171875,-0.36665236949920654,0.8274326324462891,-0.5325086116790771
1761399364702051800,5.5080517578125,-0.46404439210891724,0.8612067103385925,-0.4306366741657257
1761399364712158000,5.518157958984375,-0.5620526075363159,0.9147323966026306,-0.39872777462005615
1761399364722213000,5.528213134765625,-0.6263033747673035,0.9045068621635437,-0.4404791295528412
1761399364732319500,5.538319580078125,-0.6660395860671997,0.8314794898033142,-0.5348068475723267
1761399364742374700,5.548374755859375,-0.6800289154052734,0.7095395922660828,-0.6411753296852112
1761399364752480300,5.558480224609375,-0.6585453748703003,0.511374831199646,-0.7010294795036316
1761399364762535400,5.568535400390625,-0.642740786075592,0.39866116642951965,-0.7132534384727478
1761399364772641500,5.5786416015625,-0.7043436169624329,0.332894891500473,-0.7144525051116943
1761399364782722600,5.58872265625,-0.7912769913673401,0.28001874685287476,-0.7072247266769409
1761399364792799000,5.598799072265625,-0.8690174221992493,0.2538221776485443,-0.722246527671814
1761399364802883800,5.6088837890625,-0.9157649278640747,0.21455225348472595,-0.7731741666793823
1761399364812939000,5.61893896484375,-0.9558008909225464,0.1575959026813507,-0.8611733913421631
1761399364823046000,5.6290458984375,-1.0105922222137451,0.10956604033708572,-0.9634117484092712
1761399364833126700,5.639126708984375,-1.056207299232483,0.06881393492221832,-1.0251810550689697
1761399364843207000,5.64920703125,-1.0648339986801147,0.05339241772890091,-1.0108753442764282
1761399364853283300,5.659283447265625,-1.0218836069107056,0.09824138134717941,-0.918113112449646
1761399364863368700,5.66936865234375,-0.9822139739990234,0.21078847348690033,-0.8059990406036377
1761399364873425200,5.679425048828125,-0.94439297914505,0.2866969704627991,-0.7356529235839844
1761399364883529700,5.68952978515625,-0.9162479043006897,0.3237685561180115,-0.6688207983970642
1761399364893609500,5.699609375,-0.8731975555419922,0.30744773149490356,-0.5826868414878845
1761399364903691300,5.709691162109375,-0.7838659882545471,0.23030684888362885,-0.5055126547813416
1761399364913771000,5.71977099609375,-0.6702364087104797,0.18905512988567352,-0.44134512543678284
1761399364923848400,5.729848388671875,-0.5222164988517761,0.19768184423446655,-0.35158059000968933
1761399364933907200,5.7399072265625,-0.34147167205810547,0.18137767910957336,-0.25162383913993835
1761399364943987500,5.749987548828125,-0.17240121960639954,0.14868606626987457,-0.1496020257472992
1761399364954093600,5.760093505859375,-0.07632484287023544,0.08343606442213058,-0.04638112336397171
1761399364964174300,5.77017431640625,0.08463514596223831,0.11111485213041306,0.13053330779075623
1761399364974232600,5.780232666015625,0.09162978082895279,0.3944644033908844,0.23698507249355316
1761399364984321800,5.79032177734375,0.0588715523481369,0.4471573531627655,0.3026014566421509
1761399364994416600,5.800416748046875,0.11392936110496521,0.31272703409194946,0.34048908948898315
1761399365004471800,5.810471923828125,0.2890118658542633,0.04621458426117897,0.36527010798454285
1761399365014578400,5.820578369140625,0.4784000813961029,-0.2647637724876404,0.4130668044090271
1761399365024659000,5.830658935546875,0.618942379951477,-0.5237320065498352,0.46044716238975525
1761399365034739200,5.8407392578125,0.7472107410430908,-0.7692771553993225,0.4330514967441559
1761399365044820200,5.8508203125,0.8858378529548645,-0.9620128273963928,0.4353996813297272
1761399365054900200,5.860900146484375,1.049695611000061,-1.0092432498931885,0.5813878178596497
1761399365064974300,5.870974365234375,1.1378780603408813,-0.9995840191841125,0.7820673584938049
1761399365075061800,5.881061767578125,1.1343806982040405,-0.9896916151046753,1.0556743144989014
1761399365085142300,5.891142333984375,1.132415533065796,-0.8911004662513733,1.463495135307312
1761399365095223000,5.90122314453125,1.1556977033615112,-0.6546649932861328,1.9623463153839111
1761399365105261600,5.911261474609375,1.1631920337677002,-0.31659072637557983,2.4555516242980957
1761399365115385300,5.92138525390625,1.1626757383346558,-0.026196591556072235,2.8083980083465576
1761399365125465600,5.931465576171875,1.1518839597702026,0.1939014196395874,2.9222774505615234
1761399365135512800,5.941512939453125,1.166789174079895,0.40698811411857605,2.8397905826568604
1761399365145601800,5.951601806640625,1.1962833404541016,0.6484197974205017,2.6660571098327637
1761399365155708000,5.9617080078125,1.2267266511917114,0.8679515719413757,2.506679058074951
1761399365165788000,5.971787841796875,1.2647475004196167,0.9898414611816406,2.438264846801758
1761399365175868400,5.981868408203125,1.3361427783966064,1.0413353443145752,2.507661819458008
1761399365185949000,5.991948974609375,1.3698502779006958,1.02548086643219,2.6222238540649414
1761399365196030000,6.002030029296875,1.317257285118103,0.836958646774292,2.6460890769958496
1761399365206087700,6.012087646484375,1.2012795209884644,0.4594479203224182,2.494838237762451
1761399365216191700,6.022191650390625,1.0303771495819092,0.18136101961135864,2.1337316036224365
1761399365226271200,6.032271240234375,0.8329949975013733,-0.09979020059108734,1.6873736381530762
1761399365236353300,6.042353271484375,0.8066985011100769,-0.3523299992084503,1.347700595855713
1761399365246433800,6.052433837890625,0.8647706508636475,-0.5021485090255737,1.1400597095489502
1761399365256514300,6.062514404296875,0.8705828785896301,-0.6300172209739685,1.0199017524719238
1761399365266595600,6.072595703125,0.8124107718467712,-0.7628820538520813,0.9400463104248047
1761399365276675000,6.082675048828125,0.6794293522834778,-0.8959967494010925,0.8715155124664307
1761399365286755600,6.092755615234375,0.49127355217933655,-0.9925227761268616,0.7825836539268494
1761399365296836600,6.102836669921875,0.30916309356689453,-1.0741102695465088,0.6242383122444153
1761399365306944500,6.112944580078125,0.18767285346984863,-1.0565403699874878,0.4470740854740143
1761399365316970000,6.122969970703125,0.13792763650417328,-0.8820907473564148,0.3169737756252289
1761399365327079000,6.133078857421875,0.14179134368896484,-0.6979318261146545,0.20457656681537628
1761399365337134000,6.143134033203125,0.17303407192230225,-0.556989848613739,0.1014222800731659
1761399365347240700,6.15324072265625,0.1875063180923462,-0.44918912649154663,-0.003247511340305209
1761399365357320200,6.1633203125,0.08888188749551773,-0.3474504053592682,-0.11669391393661499
1761399365367401500,6.1734013671875,-0.024414625018835068,-0.24651110172271729,-0.2475602924823761
1761399365377481500,6.1834814453125,-0.12542055547237396,-0.10130570083856583,-0.37449637055397034
1761399365387562200,6.193562255859375,-0.20980589091777802,0.07346037775278091,-0.4693570137023926
1761399365397643000,6.20364306640625,-0.28897854685783386,0.2787197530269623,-0.5377545952796936
1761399365407723800,6.213723876953125,-0.3963962495326996,0.5155216455459595,-0.5859842896461487
1761399365417804300,6.22380419921875,-0.555141270160675,0.7871301770210266,-0.6408089399337769
1761399365427885000,6.233885009765625,-0.7021619081497192,1.086883783340454,-0.7329882979393005
1761399365437965600,6.243965576171875,-0.801152765750885,1.3199385404586792,-0.8500819206237793
1761399365448043000,6.25404296875,-0.8638713359832764,1.4092200994491577,-0.9288049340248108
1761399365458123300,6.264123291015625,-0.8782936334609985,1.2909773588180542,-0.8581923842430115
1761399365468199000,6.274198974609375,-0.820004940032959,0.9389471411705017,-0.5081272721290588
1761399365478288600,6.28428857421875,-0.6873899102210999,0.6074678301811218,-0.0678979679942131
1761399365488345000,6.294344970703125,-0.4205110967159271,0.5131234526634216,0.10005666315555573
1761399365498450400,6.304450439453125,-0.0386703684926033,0.4602140188217163,0.17186829447746277
1761399365508505300,6.31450537109375,0.35048142075538635,0.42129382491111755,0.3456684350967407
1761399365518611500,6.324611572265625,0.743446946144104,0.3270493745803833,0.48023200035095215
1761399365528692000,6.33469189453125,0.9645774960517883,0.18845558166503906,0.5055459141731262
1761399365538747400,6.344747314453125,0.9919232130050659,0.01895214430987835,0.4912402331829071
1761399365548854000,6.35485400390625,0.8811247944831848,-0.06804785877466202,0.387503057718277
1761399365558930000,6.364929931640625,0.7216470241546631,-0.02513074316084385,0.09949042648077011
1761399365569015300,6.375015380859375,0.5397363901138306,-0.02224961668252945,-0.22469449043273926
1761399365579095000,6.385094970703125,0.23815083503723145,0.0884488895535469,-0.3418214023113251
1761399365589175300,6.39517529296875,-0.24411293864250183,0.28201723098754883,-0.3142092227935791
1761399365599256300,6.40525634765625,-0.7557375431060791,0.45974770188331604,-0.2503415048122406
1761399365609337000,6.415337158203125,-1.0964597463607788,0.7324553728103638,-0.15651339292526245
1761399365619413800,6.425413818359375,-1.0917134284973145,0.8887356519699097,-0.12781871855258942
1761399365629498600,6.43549853515625,-0.6789130568504333,1.1677218675613403,-0.4264732003211975
1761399365639556600,6.445556640625,-0.006161944940686226,1.3336946964263916,-0.7561538815498352
1761399365649660000,6.455659912109375,0.6041370630264282,0.9431605935096741,-0.7268263697624207
1761399365659741200,6.4657412109375,0.7928590774536133,0.6825436353683472,-0.3698332607746124
1761399365669798100,6.475798095703125,0.5082105398178101,0.8249844908714294,-0.0893481969833374
1761399365679897900,6.48589794921875,0.008560107089579105,0.959214985370636,-0.025147397071123123
1761399365689982500,6.495982421875,-0.578323483467102,0.9940049648284912,-0.15734609961509705
1761399365700063000,6.50606298828125,-1.1556810140609741,0.915032148361206,-0.38282331824302673
1761399365710143700,6.516143798828125,-1.5813215970993042,0.824951171875,-0.5736437439918518
1761399365720200000,6.526199951171875,-1.6964999437332153,0.6667224168777466,-0.7458784580230713
1761399365730305300,6.53630517578125,-1.3278990983963013,0.4356328547000885,-0.9094864130020142
1761399365740385800,6.5463857421875,-0.6253374814987183,0.38860222697257996,-0.9595147371292114
1761399365750462500,6.55646240234375,-0.003080972470343113,0.6733173727989197,-0.7713255882263184
1761399365760547600,6.566547607421875,0.22121381759643555,0.8264999985694885,-0.4787498116493225
1761399365770627600,6.576627685546875,0.08719984441995621,0.8341774344444275,-0.3434867858886719
1761399365780708900,6.586708984375,-0.16400764882564545,0.8936318755149841,-0.4517538249492645
1761399365790765300,6.596765380859375,-0.3665024936199188,1.0709959268569946,-0.7233956456184387
1761399365800842000,6.606842041015625,-0.4608302116394043,1.2214140892028809,-0.962978720664978
1761399365810924800,6.6169248046875,-0.4778338372707367,1.3271663188934326,-1.0296443700790405
1761399365821006000,6.627006103515625,-0.4557507634162903,1.339673399925232,-0.9382476806640625
1761399365831086300,6.63708642578125,-0.45704975724220276,1.2568202018737793,-0.7719751000404358
1761399365841155800,6.64715576171875,-0.4577825367450714,1.1029881238937378,-0.5940947532653809
1761399365851236400,6.657236328125,-0.45621708035469055,0.9877097606658936,-0.43108633160591125
1761399365861338000,6.667338134765625,-0.4570164680480957,0.9240086078643799,-0.31494200229644775
1761399365871418400,6.67741845703125,-0.46364471316337585,0.8616563677787781,-0.27653810381889343
1761399365881499400,6.68749951171875,-0.47210490703582764,0.8148922324180603,-0.32013800740242004
1761399365891596000,6.697595947265625,-0.4692404270172119,0.7727745175361633,-0.40755435824394226
1761399365901677000,6.707677001953125,-0.45788246393203735,0.6852915287017822,-0.48606085777282715
1761399365911757000,6.717757080078125,-0.45683327317237854,0.5630185604095459,-0.5312595367431641
1761399365921838300,6.72783837890625,-0.5005830526351929,0.4076709449291229,-0.5434668660163879
1761399365931918600,6.737918701171875,-0.5538589358329773,0.3856378197669983,-0.5339741706848145
1761399365941995500,6.74799560546875,-0.6264033317565918,0.45371899008750916,-0.5584887266159058
1761399365952054500,6.758054443359375,-0.6749494671821594,0.46747511625289917,-0.613113522529602
1761399365962161000,6.768160888671875,-0.6636747717857361,0.5039804577827454,-0.650901198387146
1761399365972251400,6.77825146484375,-0.6900712251663208,0.5008495450019836,-0.6903876066207886
1761399365982322400,6.788322509765625,-0.7428141236305237,0.4381309151649475,-0.7066418528556824
1761399365992403000,6.79840283203125,-0.7795859575271606,0.37061598896980286,-0.6957501769065857
1761399366002463500,6.80846337890625,-0.7829999923706055,0.3336609899997711,-0.6678715348243713
1761399366012539000,6.818538818359375,-0.7681447267532349,0.33277833461761475,-0.6432403922080994
1761399366022644500,6.82864453125,-0.7392168641090393,0.32610011100769043,-0.6321322917938232
1761399366032725800,6.838725830078125,-0.7520403861999512,0.3151751458644867,-0.6396098732948303
1761399366042805800,6.8488056640625,-0.7768047451972961,0.25515449047088623,-0.6702197194099426
1761399366052872400,6.85887255859375,-0.7844155430793762,0.1639077365398407,-0.6553311347961426
1761399366062967300,6.86896728515625,-0.7191156148910522,0.11234724521636963,-0.5550246834754944
1761399366073044000,6.8790439453125,-0.5744431614875793,0.15653005242347717,-0.4007095992565155
1761399366083128800,6.88912890625,-0.4212605357170105,0.25293949246406555,-0.2601339817047119
1761399366093209000,6.899208984375,-0.3061653971672058,0.3628053069114685,-0.1525830775499344
1761399366103265000,6.90926513671875,-0.21418586373329163,0.4538189172744751,-0.06042036786675453
1761399366113371400,6.919371337890625,-0.10731776058673859,0.4813977777957916,0.023531967774033546
1761399366123451600,6.92945166015625,-0.021983154118061066,0.4555675685405731,0.10791730135679245
1761399366133501400,6.93950146484375,0.028161752969026566,0.39857789874076843,0.19679918885231018
1761399366143612200,6.949612060546875,0.06378445774316788,0.3608068525791168,0.2783200442790985
1761399366153693200,6.959693115234375,0.10831699520349503,0.3428039848804474,0.3553277254104614
1761399366163774000,6.96977392578125,0.1716850996017456,0.31599119305610657,0.42287594079971313
1761399366173817300,6.9798173828125,0.2917764186859131,0.19401799142360687,0.4784833490848541
1761399366183912000,6.989911865234375,0.4436933398246765,-0.011874234303832054,0.5336077809333801
1761399366194015700,7.000015625,0.6000068783760071,-0.31167784333229065,0.588682234287262
1761399366204072000,7.010072021484375,0.7460116744041443,-0.6663393974304199,0.650151789188385
1761399366214177500,7.020177490234375,0.9036741852760315,-0.9370652437210083,0.7225629687309265
1761399366224257800,7.0302578125,1.016837477684021,-1.1297509670257568,0.786663830280304
1761399366234338800,7.0403388671875,1.1245049238204956,-1.0036475658416748,0.9165809750556946
1761399366244419300,7.05041943359375,1.1169108152389526,-0.7336544394493103,1.138960599899292
1761399366254500400,7.060500244140625,1.1273361444473267,-0.5300271511077881,1.545965313911438
1761399366264581600,7.07058154296875,1.1676884889602661,-0.2858309745788574,2.068514823913574
1761399366274661400,7.080661376953125,1.1839927434921265,0.015887824818491936,2.572678565979004
1761399366284742400,7.090742431640625,1.1486531496047974,0.31084513664245605,2.963345766067505
1761399366294823700,7.10082373046875,1.052426815032959,0.6177765727043152,3.15266752243042
1761399366304878600,7.110878662109375,0.9384142160415649,0.9095363616943359,3.1248886585235596
1761399366314958800,7.120958740234375,0.8875365257263184,1.1316494941711426,2.9343180656433105
1761399366325065500,7.1310654296875,0.8773776888847351,1.1933188438415527,2.6450564861297607
1761399366335121000,7.141120849609375,0.8797925114631653,1.1497689485549927,2.404390811920166
1761399366345226800,7.151226806640625,0.9192789196968079,1.0996906757354736,2.343803882598877
1761399366355306500,7.161306396484375,0.9549515843391418,1.0487796068191528,2.413200855255127
1761399366365387500,7.171387451171875,0.9359827637672424,0.8597078919410706,2.460031509399414
1761399366375468000,7.181468017578125,0.863721489906311,0.42260947823524475,2.4086875915527344
1761399366385548500,7.191548583984375,0.7507080435752869,-0.06308498978614807,2.161910057067871
1761399366395630600,7.201630615234375,0.6932854056358337,-0.32653310894966125,1.7647310495376587
1761399366405709800,7.211709716796875,0.7283252477645874,-0.3750292956829071,1.3808585405349731
1761399366415790800,7.221790771484375,0.7467111349105835,-0.4332846403121948,1.1076178550720215
1761399366425870800,7.231870849609375,0.6826269030570984,-0.594511091709137,0.9427109360694885
1761399366435926800,7.2419267578125,0.5273792147636414,-0.8102124929428101,0.8428374528884888
1761399366446032400,7.252032470703125,0.356426864862442,-0.9290880560874939,0.764863908290863
1761399366456113700,7.26211376953125,0.20052966475486755,-0.9076710939407349,0.6932187676429749
1761399366466194200,7.272194091796875,0.06714854389429092,-0.8241351246833801,0.6119310855865479
1761399366476275000,7.28227490234375,-0.014105857349932194,-0.8543453216552734,0.4411785900592804
1761399366486356000,7.29235595703125,-0.018219372257590294,-0.6822105646133423,0.29064396023750305
1761399366496436500,7.3024365234375,0.0026146629825234413,-0.5002833008766174,0.16580627858638763
1761399366506509600,7.312509521484375,-0.00009992343257181346,-0.3546116054058075,0.06280187517404556
1761399366516597500,7.322597412109375,-0.04205111041665077,-0.22081412374973297,-0.026862747967243195
1761399366526679000,7.332678955078125,-0.12437136471271515,-0.11469544470310211,-0.134480282664299
1761399366536735000,7.34273486328125,-0.2123039811849594,-0.006111983209848404,-0.24198123812675476
1761399366546839800,7.35283984375,-0.2935250699520111,0.09224598109722137,-0.3300970494747162
1761399366556919600,7.36291943359375,-0.366202712059021,0.20890657603740692,-0.38996782898902893
1761399366567000800,7.373000732421875,-0.4648604393005371,0.35735949873924255,-0.4301536977291107
1761399366577081300,7.383081298828125,-0.5810880661010742,0.5498786568641663,-0.49245595932006836
1761399366587137000,7.393136962890625,-0.670802652835846,0.7918099164962769,-0.6089833378791809
1761399366597243400,7.403243408203125,-0.7276923656463623,1.0154885053634644,-0.744895875453949
1761399366607323100,7.4133232421875,-0.7689107656478882,1.1836429834365845,-0.845535397529602
1761399366617404200,7.423404052734375,-0.8011693954467773,1.2509413957595825,-0.875245988368988
1761399366627485200,7.433485107421875,-0.8119111657142639,1.168920874595642,-0.7945244908332825
1761399366637566200,7.443566162109375,-0.7698433995246887,0.9490393996238708,-0.5290113091468811
1761399366647646200,7.453646240234375,-0.6949008107185364,0.7629153728485107,-0.16052699089050293
1761399366657727200,7.463727294921875,-0.5569398999214172,0.6518172025680542,0.11819276213645935
1761399366667780000,7.473780029296875,-0.33617570996284485,0.5983747839927673,0.2735403776168823
1761399366677888500,7.483888427734375,-0.009059724397957325,0.7376347780227661,0.360990047454834
1761399366687953200,7.493953125,0.3683010935783386,0.8744798898696899,0.4860941767692566
1761399366698045400,7.50404541015625,0.654265284538269,0.8552113175392151,0.591296911239624
1761399366708105700,7.514105712890625,0.8099959492683411,0.7381176948547363,0.6443395614624023
1761399366718200000,7.524199951171875,0.8620727062225342,0.4628619849681854,0.6845088005065918
1761399366728291300,7.534291259765625,0.8407557606697083,0.24206450581550598,0.6567800641059875
1761399366738347000,7.544346923828125,0.7720417380332947,0.26926034688949585,0.4481898844242096
1761399366748452900,7.554452880859375,0.6791961789131165,0.2695101499557495,0.13917668163776398
1761399366758534000,7.564533935546875,0.5392367839813232,0.13681182265281677,-0.10978253930807114
1761399366768610000,7.574610107421875,0.26446402072906494,0.06571631133556366,-0.2122873216867447
1761399366778671900,7.584671875,-0.13173238933086395,0.10108920186758041,-0.13213208317756653
1761399366788776000,7.59477587890625,-0.517470121383667,0.29903751611709595,-0.11126473546028137
1761399366798856000,7.60485595703125,-0.9859111905097961,0.4975687265396118,-0.4255572259426117
1761399366808937000,7.61493701171875,-1.4366158246994019,0.6953504681587219,-0.8446527719497681
1761399366819017200,7.625017333984375,-1.652650237083435,0.9356330037117004,-0.9197118878364563
1761399366829073200,7.6350732421875,-1.3751628398895264,1.198914647102356,-0.8641045093536377
1761399366839155500,7.645155517578125,-0.6292678117752075,1.4470077753067017,-0.6012059450149536
1761399366849259500,7.655259521484375,0.3975953161716461,1.3556944131851196,-0.19621630012989044
1761399366859340000,7.665340087890625,0.9780338406562805,1.3114783763885498,0.18415887653827667
1761399366869420500,7.675420654296875,0.8389737606048584,1.2791697978973389,0.28486505150794983
1761399366879456500,7.68545654296875,0.3469674587249756,1.1478204727172852,0.18027852475643158
1761399366889582600,7.69558251953125,-0.18172740936279297,1.0194854736328125,-0.025663666427135468
1761399366899658500,7.705658447265625,-0.6538988947868347,1.0495623350143433,-0.27399003505706787
1761399366909718300,7.71571826171875,-1.048879623413086,1.108683705329895,-0.5478302240371704
1761399366929905200,7.7359052734375,-1.2920266389846802,1.3863710165023804,-1.0332415103912354
1761399366939985400,7.7459853515625,-0.7956069707870483,1.4395135641098022,-1.1953840255737305
1761399366950066700,7.756066650390625,-0.04979517683386803,1.4876766204833984,-1.1463549137115479
1761399366960121600,7.76612158203125,0.49120691418647766,1.4947378635406494,-0.8227195739746094
1761399366970202400,7.776202392578125,0.6115646958351135,1.5921965837478638,-0.3813244700431824
1761399366980308200,7.78630810546875,0.39116692543029785,1.8294148445129395,-0.07845654338598251
1761399366990389200,7.79638916015625,0.025330590084195137,2.0160884857177734,-0.07204478979110718
1761399367000469200,7.80646923828125,-0.3226860463619232,2.0427346229553223,-0.32563379406929016
1761399367010550300,7.81655029296875,-0.5403026342391968,1.9433774948120117,-0.6068849563598633
1761399367020620500,7.82662060546875,-0.5538755655288696,1.8370423316955566,-0.7303736209869385
1761399367030707700,7.836707763671875,-0.44842302799224854,1.6315664052963257,-0.7115713953971863
1761399367040792600,7.84679248046875,-0.3334944546222687,1.4369155168533325,-0.5321588516235352
1761399367050837000,7.8568369140625,-0.23510317504405975,1.3108954429626465,-0.2684609591960907
1761399367060954400,7.866954345703125,-0.17941251397132874,1.2357697486877441,-0.052626337856054306
1761399367071011300,7.87701123046875,-0.16718855500221252,1.175865650177002,0.04922894388437271
1761399367081115400,7.887115478515625,-0.17857982218265533,1.1756991147994995,0.054874617606401443
1761399367091191800,7.89719189453125,-0.20366060733795166,1.3051499128341675,0.00929287914186716
1761399367101276200,7.907276123046875,-0.23996610939502716,1.4618297815322876,-0.06739835441112518
1761399367111357700,7.917357666015625,-0.2713753879070282,1.5433672666549683,-0.15393203496932983
1761399367121430000,7.927429931640625,-0.288645476102829,1.5576896667480469,-0.2409653514623642
1761399367131518500,7.9375185546875,-0.2860974371433258,1.5098429918289185,-0.28764623403549194
1761399367141599500,7.947599609375,-0.26987653970718384,1.4448760747909546,-0.2528895437717438
1761399367151680500,7.957680419921875,-0.2500084340572357,1.3825405836105347,-0.13281488418579102
1761399367161756200,7.967756103515625,-0.2391001135110855,1.3102959394454956,-0.00023315467115025967
1761399367171841000,7.977841064453125,-0.2628152668476105,1.2388173341751099,0.0671985074877739
1761399367181921300,7.98792138671875,-0.30591556429862976,1.1989978551864624,0.05507446452975273
1761399367192002300,7.998002197265625,-0.3355262279510498,1.166672706604004,0.02792859822511673
1761399367202082800,8.008082763671876,-0.35194697976112366,1.1274027824401855,0.028528138995170593
1761399367212163300,8.018163330078124,-0.3434368371963501,1.0585721731185913,0.06460049748420715
1761399367222240500,8.028240478515626,-0.35199692845344543,0.9441431760787964,0.07515907287597656
1761399367232324900,8.038324951171875,-0.40991920232772827,0.8653202652931213,0.011707695201039314
1761399367242405600,8.048405517578125,-0.4606803059577942,0.8345937728881836,-0.09074712544679642
1761399367252486000,8.05848583984375,-0.5029645562171936,0.8398064374923706,-0.18344275653362274
1761399367262558500,8.068558349609376,-0.5412518978118896,0.863238513469696,-0.23661868274211884
1761399367272648000,8.07864794921875,-0.5847019553184509,0.8622725605964661,-0.24476243555545807
1761399367282724600,8.088724609375,-0.6344138383865356,0.8455853462219238,-0.23100630939006805
1761399367292783000,8.098783203125,-0.6834263205528259,0.8268496990203857,-0.22830837965011597
1761399367302889500,8.108889404296875,-0.7140527963638306,0.7941247820854187,-0.2487427294254303
1761399367312970200,8.11897021484375,-0.7383342385292053,0.8003033995628357,-0.29625630378723145
1761399367323051300,8.12905126953125,-0.7668623328208923,0.8203713297843933,-0.352313369512558
1761399367333131300,8.13913134765625,-0.7887622117996216,0.832495391368866,-0.4055059254169464
1761399367343187500,8.1491875,-0.817540168762207,0.8411054611206055,-0.431236207485199
1761399367353289200,8.159289306640625,-0.8354265093803406,0.8551613688468933,-0.40337422490119934
1761399367363373600,8.16937353515625,-0.774523138999939,0.8862541913986206,-0.3444860279560089
1761399367373454000,8.1794541015625,-0.6600275635719299,0.9207277894020081,-0.2930421233177185
1761399367383525400,8.189525390625,-0.5437166690826416,0.9376148581504822,-0.24952545762062073
1761399367393590500,8.199590576171875,-0.4240250587463379,0.9569999575614929,-0.1848083883523941
1761399367403697200,8.209697265625,-0.2778870463371277,0.9671422243118286,-0.07141194492578506
1761399367413773600,8.219773681640625,-0.1248210147023201,0.9740702509880066,0.09932389110326767
1761399367423857400,8.229857421875,0.014372319914400578,1.0038974285125732,0.30056968331336975
1761399367433920000,8.239919921875,0.14049233496189117,1.0676817893981934,0.49780187010765076
1761399367444019700,8.250019775390625,0.24947549402713776,1.1599944829940796,0.6640244722366333
1761399367454099500,8.260099365234375,0.40247491002082825,1.1795461177825928,0.8038673400878906
1761399367464180500,8.270180419921875,0.6190922856330872,1.0869004726409912,0.9540688991546631
1761399367474240300,8.280240234375,0.8635216355323792,0.8805086016654968,1.1139464378356934
1761399367484337700,8.290337646484375,1.1091333627700806,0.609399676322937,1.29915452003479
1761399367494422300,8.30042236328125,1.3112618923187256,0.33957311511039734,1.460480809211731
1761399367504502800,8.310502685546876,1.3873202800750732,0.18347607553005219,1.5599379539489746
1761399367514558500,8.320558349609374,1.4271230697631836,0.16767151653766632,1.696150302886963
1761399367524663800,8.330663818359374,1.4311366081237793,0.23030684888362885,1.9580328464508057
1761399367534745600,8.34074560546875,1.439030647277832,0.3651535212993622,2.404923677444458
1761399367544825900,8.350825927734375,1.4636950492858887,0.6556975245475769,2.897496223449707
1761399367554906400,8.36090625,1.4827970266342163,1.0538758039474487,3.3143768310546875
1761399367564961500,8.37096142578125,1.3859878778457642,1.5233492851257324,3.5518782138824463
1761399367575072300,8.381072265625,1.1716687679290771,1.9299544095993042,3.5228004455566406
1761399367585148400,8.3911484375,0.9566502571105957,2.167922019958496,3.271376371383667
1761399367595203300,8.401203369140624,0.8290480375289917,2.1817615032196045,2.8867878913879395
1761399367605310500,8.411310546875,0.8042503595352173,2.011392116546631,2.4754698276519775
1761399367615390000,8.421389892578125,0.856293797492981,1.7653138637542725,2.230990409851074
1761399367625470700,8.431470703125,0.9526366591453552,1.4774844646453857,2.209956407546997
1761399367635552300,8.44155224609375,1.015521764755249,1.2576695680618286,2.312877655029297
1761399367645632000,8.451632080078125,1.0265634059906006,0.8867371678352356,2.3618900775909424
1761399367655713000,8.461713134765626,0.9246081709861755,0.401742160320282,2.196367025375366
1761399367665793500,8.47179345703125,0.7420147061347961,0.088515505194664,1.8846558332443237
1761399367675874800,8.481874755859375,0.6215237379074097,-0.09246248006820679,1.5598880052566528
1761399367685955600,8.49195556640625,0.5656831860542297,-0.23058997094631195,1.3019189834594727
1761399367696022500,8.5020224609375,0.48141443729400635,-0.31514182686805725,1.1345971822738647
1761399367706116600,8.51211669921875,0.34068894386291504,-0.3412052094936371,1.0268298387527466
1761399367716197400,8.522197265625,0.16815447807312012,-0.3610067069530487,0.9714555740356445
1761399367726252300,8.532252197265626,0.00791060458868742,-0.3481498658657074,0.9482566714286804
1761399367736359200,8.542359130859374,-0.08620060980319977,-0.3292143940925598,0.9279555678367615
1761399367746438700,8.552438720703124,-0.08590084314346313,-0.2785032391548157,0.8938650488853455
1761399367756520200,8.562520263671875,-0.0164873655885458,-0.15687978267669678,0.8518971800804138
1761399367766575400,8.572575439453125,0.06718185544013977,-0.039802830666303635,0.8127438426017761
1761399367776681000,8.582680908203125,0.033924005925655365,0.09016424417495728,0.7818508744239807
1761399367786762500,8.592762451171875,-0.08616730570793152,0.1750825047492981,0.7435802221298218
1761399367796842200,8.60284228515625,-0.21560145914554596,0.24084876477718353,0.6896548271179199
1761399367806923800,8.612923828125,-0.3151251971721649,0.330530047416687,0.6014224886894226
1761399367817003500,8.62300341796875,-0.36908385157585144,0.42004477977752686,0.46844103932380676
1761399367827062800,8.633062744140625,-0.4203778803348541,0.4746529459953308,0.3169071674346924
1761399367837165800,8.643165771484375,-0.48024865984916687,0.5457984209060669,0.17631489038467407
1761399367847245600,8.65324560546875,-0.5721781849861145,0.6085503101348877,0.07237786799669266
1761399367857326000,8.663326171875,-0.6755489706993103,0.623871922492981,-0.00464643957093358
1761399367867408100,8.673408203125,-0.7531895041465759,0.6196584701538086,-0.10075612366199493
1761399367877487900,8.68348779296875,-0.7942080497741699,0.6301171183586121,-0.2325051724910736
1761399367887568400,8.693568359375,-0.8123608231544495,0.6408588886260986,-0.37221476435661316
1761399367897628400,8.70362841796875,-0.8275824785232544,0.6300005912780762,-0.46327832341194153
1761399367907704300,8.713704345703125,-0.8315794467926025,0.540519118309021,-0.4509877562522888
1761399367917811500,8.7238115234375,-0.819738507270813,0.392715722322464,-0.30613207817077637
1761399367927891000,8.733890869140625,-0.8052828907966614,0.24439606070518494,-0.032042112201452255
1761399367937973500,8.743973388671876,-0.7779538631439209,0.18793931603431702,0.19663265347480774
1761399367948048400,8.75404833984375,-0.7016289830207825,0.2763881981372833,0.23087307810783386
1761399367958129700,8.764129638671875,-0.5495288968086243,0.3365420997142792,0.17881298065185547
1761399367968211500,8.77421142578125,-0.35742610692977905,0.23676855862140656,0.14685413241386414
1761399367978294000,8.7842939453125,-0.1732006072998047,0.11669391393661499,0.13441365957260132
1761399367988332300,8.794332275390625,-0.03232523053884506,0.04253407195210457,0.10904976725578308
1761399367998455800,8.804455810546875,0.07492591440677643,-0.007694104220718145,0.06631585210561752
1761399368008536300,8.814536376953125,0.19067054986953735,-0.028611408546566963,0.030126914381980896
1761399368018617900,8.824617919921875,0.2991541028022766,-0.039186637848615646,-0.013556278310716152
1761399368028675000,8.834675048828124,0.34345346689224243,0.004030244890600443,-0.05285949259996414
1761399368038778600,8.844778564453126,0.29662269353866577,0.1961829960346222,-0.09161312878131866
1761399368048855000,8.85485498046875,0.1119142398238182,0.5659663081169128,-0.16878733038902283
1761399368058914000,8.8649140625,-0.11849253624677658,1.010042667388916,-0.13274827599525452
1761399368069020700,8.875020751953125,-0.32215312123298645,1.439630150794983,0.01941845379769802
1761399368079054300,8.885054443359374,-0.3563435971736908,1.641875147819519,0.10893318802118301
1761399368089181700,8.895181640625,-0.12598678469657898,1.3919999599456787,0.21613436937332153
1761399368099262500,8.905262451171875,0.23806756734848022,1.1609770059585571,0.380441814661026
1761399368109317600,8.915317626953126,0.5153883695602417,1.3799092769622803,0.36803463101387024
1761399368119420000,8.925419921875,0.5552079081535339,1.5033646821975708,0.1544649600982666
1761399368129504300,8.935504150390624,0.328298419713974,1.500150442123413,-0.005495788529515266
1761399368139585000,8.9455849609375,-0.023498659953475,1.5188027620315552,0.0013489662669599056
1761399368149665800,8.955665771484375,-0.42192667722702026,1.5388708114624023,-0.027795366942882538
1761399368159746300,8.965746337890625,-0.8697001934051514,1.4490230083465576,-0.19574999809265137
1761399368169826800,8.975826904296875,-1.3279657363891602,1.2771546840667725,-0.44024598598480225
1761399368179904000,8.985904052734375,-1.586500883102417,1.0356730222702026,-0.712587296962738
1761399368189988600,8.995988525390626,-1.4469245672225952,0.6554310917854309,-0.9954538345336914
1761399368200069400,9.0060693359375,-0.9022086262702942,0.3891684412956238,-1.1399763822555542
1761399368210150400,9.016150390625,-0.2626154124736786,0.43766462802886963,-0.9420781135559082
1761399368220231000,9.02623095703125,0.019801493734121323,0.5302603244781494,-0.5281619429588318
1761399368230285800,9.036285888671875,-0.05790562555193901,0.5725445747375488,-0.22529402375221252
1761399368240388000,9.04638818359375,-0.2631983160972595,0.6157281398773193,-0.23848392069339752
1761399368250472400,9.056472412109375,-0.4520202875137329,0.6528164148330688,-0.45245328545570374
1761399368260553000,9.066552978515626,-0.5685642957687378,0.7522901892662048,-0.6822105646133423
1761399368270634200,9.07663427734375,-0.5743265748023987,0.8823238611221313,-0.8293144702911377
1761399368280714500,9.086714599609374,-0.5046799182891846,0.9323521852493286,-0.8713822364807129
1761399368290795000,9.096794921875,-0.43643224239349365,0.9714722037315369,-0.8099959492683411
1761399368300875800,9.106875732421875,-0.41295021772384644,1.0350068807601929,-0.6677049994468689
1761399368310953000,9.116952880859374,-0.41539835929870605,1.0489295721054077,-0.5142392516136169
1761399368321037000,9.127037109375,-0.4147987961769104,0.9801155924797058,-0.39353176951408386
1761399368331118600,9.13711865234375,-0.41136810183525085,0.8609235882759094,-0.32105398178100586
1761399368341177000,9.147177001953125,-0.45038819313049316,0.7055426836013794,-0.3149752914905548
1761399368351279000,9.157279052734374,-0.4911569654941559,0.5121408700942993,-0.37136542797088623
1761399368361328400,9.167328369140625,-0.4881925582885742,0.3332446217536926,-0.4629785418510437
1761399368371437600,9.1774375,-0.445475310087204,0.20554248988628387,-0.5637513399124146
1761399368381495800,9.187495849609375,-0.4002766013145447,0.1141958236694336,-0.6450057625770569
1761399368391601700,9.1976015625,-0.3837059736251831,0.03670520707964897,-0.6811280250549316
1761399368401682700,9.2076826171875,-0.4129835367202759,0.025280628353357315,-0.6726345419883728
1761399368411739000,9.21773876953125,-0.4747195541858673,0.08651703596115112,-0.6546983122825623
1761399368421844000,9.227843994140626,-0.5353730916976929,0.18254345655441284,-0.6794793009757996
1761399368431924000,9.237924072265624,-0.5845187306404114,0.31855589151382446,-0.7266598343849182
1761399368442001000,9.2480009765625,-0.6384440660476685,0.34581834077835083,-0.7678616046905518
1761399368452085800,9.258085693359375,-0.6547149419784546,0.24574501812458038,-0.7650970220565796
1761399368462166500,9.26816650390625,-0.6351965665817261,0.13601243495941162,-0.7442463636398315
1761399368472247300,9.278247314453125,-0.598358154296875,0.04771343618631363,-0.7136697769165039
1761399368482327800,9.288327880859375,-0.5685809850692749,-0.02621324546635151,-0.6572629809379578
1761399368492409600,9.29840966796875,-0.5660662055015564,-0.09820807725191116,-0.5955935716629028
1761399368502485000,9.308485107421875,-0.5782735347747803,-0.1827266365289688,-0.5500285029411316
1761399368512571000,9.31857080078125,-0.6013225317001343,-0.24136504530906677,-0.5297940373420715
1761399368522651000,9.32865087890625,-0.6359127163887024,-0.30361732840538025,-0.5228826403617859
1761399368532731600,9.338731689453125,-0.5865671634674072,-0.32328560948371887,-0.49238935112953186
1761399368542790400,9.348790283203124,-0.5273125767707825,-0.2969058156013489,-0.4864439070224762
1761399368552892400,9.358892333984375,-0.5422844290733337,-0.34103867411613464,-0.4459582567214966
1761399368562969000,9.368968994140625,-0.5320090055465698,-0.28023526072502136,-0.3729974925518036
1761399368573054700,9.3790546875,-0.5240817070007324,-0.19693242013454437,-0.30280131101608276
1761399368583134500,9.389134521484374,-0.5519770383834839,-0.11372951418161392,-0.20510949194431305
1761399368593215200,9.39921533203125,-0.5502283573150635,-0.07442630082368851,-0.06584954261779785
1761399368603271200,9.409271240234375,-0.4872766137123108,-0.04914567247033119,0.09391137212514877
1761399368613376300,9.419376220703125,-0.374746173620224,0.010924961417913437,0.22084742784500122
1761399368623457000,9.42945703125,-0.273040771484375,0.12886790931224823,0.2835327386856079
1761399368633501400,9.43950146484375,-0.23035681247711182,0.14653770625591278,0.2899944484233856
1761399368643618600,9.44961865234375,-0.21716691553592682,-0.10090600699186325,0.23578599095344543
1761399368653699800,9.459699951171874,-0.20747435092926025,-0.44629132747650146,0.1562635898590088
1761399368663780400,9.4697802734375,-0.1602272242307663,-0.6836761236190796,0.0996236577630043
1761399368673860900,9.47986083984375,-0.09890753775835037,-0.8511477708816528,0.08631718903779984
1761399368683941400,9.48994140625,-0.03460681438446045,-0.7837993502616882,0.09464414417743683
1761399368694017500,9.500017578125,-0.03485662117600441,-0.6343972086906433,0.0630350261926651
1761399368704103200,9.510103271484375,-0.00634513795375824,-0.7346537113189697,0.003430704353377223
1761399368714177300,9.52017724609375,0.1349632441997528,-1.1393601894378662,-0.03152584284543991
1761399368724282000,9.5302822265625,0.33652544021606445,-1.763298749923706,-0.02058422565460205
1761399368734345200,9.54034521484375,0.6018388271331787,-1.9947880506515503,0.05693969875574112
1761399368744401000,9.55040087890625,0.7794360518455505,-1.8864710330963135,0.1475202888250351
1761399368764582700,9.570582763671876,0.8999437093734741,-1.7125043869018555,0.37992551922798157
1761399368774667300,9.580667236328125,0.9050231575965881,-1.7817180156707764,0.5932120680809021
1761399368784747800,9.590747802734375,0.8417050242424011,-1.9961702823638916,0.9437601566314697
1761399368794828300,9.600828369140626,0.7666957974433899,-2.2126543521881104,1.4313031435012817
1761399368804909300,9.610909423828126,0.7144525051116943,-2.266429901123047,1.9799160957336426
1761399368814989800,9.62098974609375,0.6997138261795044,-2.1671559810638428,2.4640119075775146
1761399368825071000,9.631071044921875,0.7386006712913513,-1.9692742824554443,2.7359867095947266
1761399368835151400,9.6411513671875,0.836209237575531,-1.6644078493118286,2.7594354152679443
1761399368845206500,9.65120654296875,0.9610302448272705,-1.3132603168487549,2.56581711769104
1761399368855313000,9.66131298828125,1.0771578550338745,-1.1064854860305786,2.2017295360565186
1761399368865393700,9.6713935546875,1.2262603044509888,-1.0984748601913452,1.780235767364502
1761399368875448600,9.681448486328126,1.468441367149353,-1.1138298511505127,1.491906762123108
1761399368885529900,9.69152978515625,1.785531759262085,-1.1222233772277832,1.4533196687698364
1761399368895626800,9.701626708984374,1.9990015029907227,-1.1997640132904053,1.5163713693618774
1761399368905716700,9.711716796875,2.0114586353302,-1.280335545539856,1.475852370262146
1761399368915796500,9.72179638671875,1.9000107049942017,-1.2894119024276733,1.2776376008987427
1761399368925853000,9.73185302734375,1.8252179622650146,-1.4287718534469604,0.9587153196334839
1761399368935937300,9.741937255859375,1.826949954032898,-1.7442799806594849,0.6160778999328613
1761399368946038300,9.752038330078125,1.8605742454528809,-2.0437839031219482,0.27578866481781006
1761399368956119300,9.762119384765626,1.8296478986740112,-2.321904182434082,-0.012490428984165192
1761399368966199800,9.77219970703125,1.724878191947937,-2.6596951484680176,-0.2651967704296112
1761399368976280600,9.782280517578124,1.660127878189087,-2.91976261138916,-0.48890867829322815
1761399368986361000,9.792361083984375,1.6599613428115845,-2.9284393787384033,-0.6185593605041504
1761399368996416000,9.802416015625,1.7207647562026978,-2.804567575454712,-0.6496188640594482
1761399369006523100,9.812523193359375,1.8247017860412598,-2.6902050971984863,-0.6348135471343994
1761399369016604000,9.82260400390625,1.9778510332107544,-2.581321954727173,-0.6171936988830566
1761399369026658800,9.832658935546876,2.1047370433807373,-2.449972629547119,-0.6529829502105713
1761399369036765000,9.842764892578124,2.1596450805664062,-2.3543457984924316,-0.7764883041381836
1761399369046819800,9.85281982421875,2.0883498191833496,-2.326650381088257,-0.9589151740074158
1761399369056900900,9.86290087890625,2.0103261470794678,-2.3894855976104736,-1.159261703491211
1761399369066981600,9.872981689453125,1.973021388053894,-2.422377109527588,-1.3309301137924194
1761399369077067800,9.88306787109375,1.9178470373153687,-2.413050889968872,-1.4474741220474243
1761399369087142700,9.893142578125,1.8410059213638306,-2.3663034439086914,-1.530260682106018
1761399369097223400,9.903223388671876,1.7398834228515625,-2.2728750705718994,-1.6095999479293823
1761399369107293000,9.91329296875,1.5982252359390259,-2.1548819541931152,-1.698731541633606
1761399369117394000,9.923393798828124,1.406288981437683,-2.013906717300415,-1.789778470993042
1761399369127474400,9.933474365234375,1.19575035572052,-1.8637884855270386,-1.880558967590332
1761399369137555200,9.94355517578125,0.9958535432815552,-1.7534396648406982,-1.9745702743530273
1761399369147652000,9.953652099609375,0.8199383616447449,-1.6876734495162964,-2.0604376792907715
1761399369157732900,9.96373291015625,0.657429575920105,-1.6396435499191284,-2.1319994926452637
1761399369167814100,9.973814208984376,0.5035474896430969,-1.6175605058670044,-2.2057430744171143
1761399369177870000,9.9838701171875,0.3197716176509857,-1.6179101467132568,-2.2914106845855713
1761399369187950000,9.9939501953125,0.12145692855119705,-1.6374619007110596,-2.377178430557251
1761399369198052000,10.004052001953125,-0.07860643416643143,-1.7168843746185303,-2.451171636581421
1761399369208132900,10.0141328125,-0.28168416023254395,-1.8368923664093018,-2.493589162826538
1761399369218214700,10.024214599609374,-0.46078023314476013,-1.9950711727142334,-2.4855620861053467
1761399369228297200,10.034297119140625,-0.590330958366394,-2.1740174293518066,-2.4214444160461426
1761399369238379000,10.04437890625,-0.6682212948799133,-2.37857723236084,-2.308114528656006
1761399369248412400,10.054412353515625,-0.6727678179740906,-2.629384994506836,-2.153083324432373
1761399369258540300,10.064540283203126,-0.5714454650878906,-2.813244104385376,-1.9627792835235596
1761399369268617000,10.074616943359375,-0.4897080659866333,-2.7693111896514893,-1.7406994104385376
1761399369278680000,10.08468017578125,-0.3796757161617279,-2.5873007774353027,-1.5709794759750366
1761399369288782300,10.0947822265625,-0.27125880122184753,-2.3036015033721924,-1.4493060111999512
1761399369298862800,10.10486279296875,-0.19040408730506897,-1.987143874168396,-1.2965731620788574
1761399369308943000,10.114943115234375,-0.0889318510890007,-1.632698893547058,-1.0786068439483643
1761399369319023600,10.125023681640625,0.1193418800830841,-1.2684946060180664,-0.7834662795066833
1761399369329079000,10.1350791015625,0.4330514967441559,-0.9781837463378906,-0.4900411367416382
1761399369339185000,10.145184814453126,0.6533826589584351,-0.5764749050140381,-0.4504714608192444
1761399369349265400,10.155265380859374,0.7064753174781799,-0.2062586098909378,-0.6782302856445312
1761399369359346000,10.165345947265624,0.6753491759300232,-0.19704900681972504,-0.8184228539466858
1761399369369427200,10.17542724609375,0.5394865870475769,-0.693984866142273,-0.708390474319458
1761399369379462100,10.185462158203125,0.366685688495636,-1.4854450225830078,-0.42289260029792786
1761399369389588700,10.195588623046875,0.26716193556785583,-2.189805269241333,-0.2375013381242752
1761399369399665200,10.2056650390625,0.1752157360315323,-2.3769118785858154,-0.3118610084056854
1761399369409750000,10.21575,0.04140160605311394,-2.2944750785827637,-0.6374948024749756
1761399369419831000,10.2258310546875,-0.08088801801204681,-2.36395525932312,-1.0796892642974854
1761399369429911000,10.2359111328125,-0.14602144062519073,-2.5411527156829834,-1.5001004934310913
1761399369439991600,10.245991455078125,-0.13716155290603638,-2.688523054122925,-1.8369090557098389
1761399369450072600,10.256072509765625,-0.041651416569948196,-2.7910611629486084,-2.0590221881866455
1761399369460149000,10.26614892578125,0.09407790750265121,-2.784449577331543,-2.1689212322235107
1761399369470234000,10.276234130859375,0.21668395400047302,-2.6522176265716553,-2.1641249656677246
1761399369480292000,10.2862919921875,0.27863648533821106,-2.5370559692382812,-2.0332751274108887
1761399369490361000,10.296361083984374,0.24960872530937195,-2.387637138366699,-1.8210878372192383
1761399369500476000,10.306475830078124,0.20525938272476196,-2.3246519565582275,-1.60556960105896
1761399369510531000,10.316531005859375,0.1741165816783905,-2.24472975730896,-1.429421305656433
1761399369520613400,10.32661328125,0.14770348370075226,-2.079206705093384,-1.3542789220809937
1761399369530717400,10.336717529296875,0.12468778342008591,-2.0339913368225098,-1.3892021179199219
1761399369540798200,10.346798095703125,0.0955934152007103,-2.1133971214294434,-1.4601644277572632
1761399369550878700,10.356878662109375,0.0701129361987114,-2.19386887550354,-1.4971860647201538
1761399369560959700,10.366959716796876,0.04228426516056061,-2.1533665657043457,-1.482913613319397
1761399369571040300,10.377040283203126,0.018236026167869568,-2.034024715423584,-1.4137166738510132
1761399369581120800,10.387120849609374,0.0009326186846010387,-1.8699671030044556,-1.3134268522262573
1761399369591197400,10.397197509765626,-0.04946209862828255,-1.6672223806381226,-1.227442741394043
1761399369601282800,10.40728271484375,-0.10568568110466003,-1.505712866783142,-1.1649906635284424
1761399369611350800,10.417350830078124,-0.139742910861969,-1.4567337036132812,-1.1235556602478027
1761399369621444400,10.4274443359375,-0.15118414163589478,-1.5089104175567627,-1.113963007926941
1761399369631524000,10.437524169921875,-0.15226665139198303,-1.6360962390899658,-1.1503351926803589
1761399369641580500,10.44758056640625,-0.141408309340477,-1.738551139831543,-1.2064588069915771
1761399369651681800,10.457681884765625,-0.10886657238006592,-1.8274829387664795,-1.2281922101974487
1761399369661766000,10.467765869140624,-0.0814375951886177,-1.858375906944275,-1.220398187637329
1761399369671847700,10.47784765625,-0.083652563393116,-1.8273330926895142,-1.2224632501602173
1761399369681927400,10.487927490234375,-0.11887557059526443,-1.771942138671875,-1.2452623844146729
1761399369692008200,10.49800830078125,-0.16222569346427917,-1.6985150575637817,-1.25905179977417
1761399369702089000,10.5080888671875,-0.2037605196237564,-1.589598536491394,-1.219149112701416
1761399369712169500,10.51816943359375,-0.2331213653087616,-1.4514211416244507,-1.1203081607818604
1761399369722246100,10.52824609375,-0.25793567299842834,-1.2954072952270508,-1.0061789751052856
1761399369732331000,10.5383310546875,-0.27808690071105957,-1.1861910820007324,-0.906322181224823
1761399369742411500,10.54841162109375,-0.27975228428840637,-1.1270862817764282,-0.8202880620956421
1761399369752492300,10.5584921875,-0.2620824873447418,-1.059837818145752,-0.7507413625717163
1761399369762572800,10.56857275390625,-0.24329689145088196,-0.9807484745979309,-0.7035775184631348
1761399369772653600,10.578653564453125,-0.25405532121658325,-0.9044235944747925,-0.6681047081947327
1761399369782731500,10.5887314453125,-0.2526896893978119,-0.8928824663162231,-0.6329982876777649
1761399369792815400,10.5988154296875,-0.2628485858440399,-0.8806585073471069,-0.6095829010009766
1761399369802896100,10.608896240234374,-0.2979050576686859,-0.8425377011299133,-0.6094163656234741
1761399369812952000,10.6189521484375,-0.3208707869052887,-0.8471841216087341,-0.634913444519043
1761399369823057400,10.629057373046875,-0.32839834690093994,-0.8676684498786926,-0.6868070363998413
1761399369833112600,10.639112548828125,-0.33660873770713806,-0.8713489770889282,-0.7416650056838989
1761399369843193900,10.64919384765625,-0.34471917152404785,-0.8659364581108093,-0.7685111165046692
1761399369853299700,10.6592998046875,-0.3412884771823883,-0.8807084560394287,-0.7663460969924927
1761399369863379500,10.66937939453125,-0.3435700535774231,-0.8958801627159119,-0.7392335534095764
1761399369873460700,10.679460693359376,-0.36047378182411194,-0.9326852560043335,-0.694884181022644
1761399369883521000,10.68952099609375,-0.3827233910560608,-0.9546850919723511,-0.6504515409469604
1761399369893596700,10.6995966796875,-0.39164987206459045,-0.9863608479499817,-0.6290346384048462
1761399369903703600,10.70970361328125,-0.39149999618530273,-1.0301939249038696,-0.6181429624557495
1761399369913779000,10.719779052734374,-0.37046611309051514,-1.0944945812225342,-0.5892817974090576
1761399369923864600,10.729864501953125,-0.34688419103622437,-1.1208244562149048,-0.5327750444412231
1761399369933919200,10.739919189453126,-0.3014523386955261,-1.165556788444519,-0.45808231830596924
1761399369944025900,10.75002587890625,-0.2429138571023941,-1.18620765209198,-0.378210186958313
1761399369954105600,10.760105712890624,-0.19738207757472992,-1.1999138593673706,-0.3010692894458771
1761399369964187000,10.770186767578124,-0.2042434960603714,-1.1729844808578491,-0.23303809762001038
1761399369974270500,10.7802705078125,-0.17266768217086792,-1.167771816253662,-0.17852985858917236
1761399369984347600,10.79034765625,-0.1321820467710495,-1.1841425895690918,-0.1190587654709816
1761399369994450000,10.800449951171874,-0.10521937161684036,-1.2079910039901733,-0.042317572981119156
1761399370004509200,10.81050927734375,-0.06614930927753448,-1.261883020401001,0.06871400773525238
1761399370014564400,10.820564453125,0.0026479708030819893,-1.300103783607483,0.19786503911018372
1761399370024645400,10.830645263671874,0.03152584284543991,-1.3272662162780762,0.3328782618045807
1761399370034751500,10.84075146484375,0.06115313991904259,-1.3149923086166382,0.4725545346736908
1761399370044827600,10.85082763671875,0.10243816673755646,-1.263465166091919,0.6233723163604736
1761399370054912300,10.860912353515625,0.13762786984443665,-1.2245949506759644,0.7901778221130371
1761399370064969700,10.8709697265625,0.1611931473016739,-1.2238621711730957,0.9750361442565918
1761399370075073800,10.88107373046875,0.14890256524085999,-1.2621994018554688,1.1695704460144043
1761399370085154300,10.891154296875,0.14916902780532837,-1.3145259618759155,1.3686012029647827
1761399370095235800,10.90123583984375,0.22427813708782196,-1.4443598985671997,1.4992011785507202
1761399370105316000,10.911316162109374,0.36999979615211487,-1.5688310861587524,1.5347405672073364
1761399370115393500,10.9213935546875,0.5276456475257874,-1.6386276483535767,1.5567570924758911
1761399370125477400,10.931477294921875,0.6852582097053528,-1.7038277387619019,1.5791232585906982
1761399370135550500,10.941550537109375,0.839156985282898,-1.7452459335327148,1.6023720502853394
1761399370145638400,10.951638427734375,1.0117413997650146,-1.7396669387817383,1.5732777118682861
1761399370155693600,10.961693603515625,1.1074180603027344,-1.6042872667312622,1.4985350370407104
1761399370165800200,10.97180029296875,1.1429908275604248,-1.4053231477737427,1.4775677919387817
1761399370175880400,10.98188037109375,1.1852251291275024,-1.2478604316711426,1.4737039804458618
1761399370185961000,10.9919609375,1.2512412071228027,-1.223196029663086,1.3840394020080566
1761399370196041700,11.002041748046874,1.2850319147109985,-1.2230128049850464,1.2032779455184937
1761399370206122500,11.01212255859375,1.2705763578414917,-1.2565704584121704,1.0014326572418213
1761399370216204300,11.022204345703125,1.266462802886963,-1.3868039846420288,0.812061071395874
1761399370226284000,11.032283935546875,1.2727247476577759,-1.48512864112854,0.6362624168395996
1761399370236340000,11.042340087890626,1.2715755701065063,-1.2509746551513672,0.5373215675354004
1761399370246445600,11.052445556640626,1.3383077383041382,-1.2932755947113037,0.43491673469543457
1761399370266616000,11.072615966796874,1.3984450101852417,-0.790860652923584,0.18026186525821686
1761399370276687400,11.082687255859375,1.353895902633667,-0.7249611020088196,0.08943147212266922
1761399370286767900,11.092767822265625,1.2998372316360474,-0.8866205811500549,0.0021150459069758654
1761399370296849000,11.102848876953125,1.2737072706222534,-1.1461050510406494,-0.15351569652557373
1761399370306934800,11.112934814453125,1.2875967025756836,-1.3378914594650269,-0.3708657920360565
1761399370317010400,11.123010498046876,1.3272995948791504,-1.3921664953231812,-0.5650003552436829
1761399370327091000,11.133091064453126,1.3559110164642334,-1.3505151271820068,-0.6562803983688354
1761399370337171500,11.14317138671875,1.3236356973648071,-1.2681282758712769,-0.6446226835250854
1761399370347243500,11.153243408203124,1.2754392623901367,-1.1886558532714844,-0.569746732711792
1761399370357332200,11.163332275390625,1.2392337322235107,-1.1894385814666748,-0.49202296137809753
1761399370367414000,11.1734140625,1.1908540725708008,-1.0943280458450317,-0.4308531582355499
1761399370377468700,11.18346875,1.1481701135635376,-0.8867871165275574,-0.39927735924720764
1761399370387574500,11.193574462890625,1.148220181465149,-0.7221466302871704,-0.43871381878852844
1761399370397655000,11.203655029296876,1.189638376235962,-0.6493024230003357,-0.5341573357582092
1761399370407736000,11.213736083984376,1.2284586429595947,-0.6112149357795715,-0.660443902015686
1761399370417816300,11.22381640625,1.23265540599823,-0.6694869995117188,-0.8014525175094604
1761399370427897000,11.23389697265625,1.2191158533096313,-0.7783868312835693,-0.9215937852859497
1761399370437981700,11.243981689453125,1.1897549629211426,-0.8904176950454712,-0.9893418550491333
1761399370448054300,11.25405419921875,1.1144793033599854,-0.9891420006752014,-0.9930390119552612
1761399370458135600,11.264135498046874,0.9847287535667419,-1.0323421955108643,-0.9587486386299133
1761399370468228600,11.274228515625,0.8124774098396301,-0.9824471473693848,-0.9196119904518127
1761399370478297000,11.284297119140625,0.2576858699321747,-0.8625223636627197,-0.8506314754486084
1761399370488382500,11.294382568359374,0.059720903635025024,-0.7415317893028259,-0.7211140990257263
1761399370498439000,11.30443896484375,0.06385107338428497,-0.7042603492736816,-0.5930289030075073
1761399370508542500,11.31454248046875,0.08630053699016571,-0.681094765663147,-0.6040204763412476
1761399370518603500,11.324603515625,0.07472606748342514,-0.6331814527511597,-0.6357461810112
1761399370528679700,11.3346796875,0.03782101720571518,-0.5356728434562683,-0.6941847205162048
1761399370538785000,11.344784912109375,-0.02931087277829647,-0.43976300954818726,-0.73625248670578
1761399370548861200,11.354861083984375,-0.12342208623886108,-0.35860854387283325,-0.7178998589515686
1761399370558945800,11.36494580078125,-0.16024386882781982,-0.3106119930744171,-0.6864572763442993
1761399370569026300,11.3750263671875,-0.17976224422454834,-0.30771419405937195,-0.6313661932945251
1761399370579107300,11.385107421875,-0.21448564529418945,-0.33604249358177185,-0.5574561357498169
1761399370589188600,11.395188720703125,-0.2860974371433258,-0.3481665253639221,-0.514872133731842
1761399370599269000,11.40526904296875,-0.3817574679851532,-0.3499651551246643,-0.488109290599823
1761399370609345300,11.41534521484375,-0.42136043310165405,-0.33111292123794556,-0.47626838088035583
1761399370619404500,11.425404541015626,-0.3726644217967987,-0.2927423417568207,-0.47954919934272766
1761399370629511000,11.435510986328126,-0.25065791606903076,-0.24657770991325378,-0.4722880721092224
1761399370639591700,11.445591796875,-0.07685776799917221,-0.18948812782764435,-0.4310363531112671
1761399370649671700,11.455671630859374,0.11188093572854996,-0.15309934318065643,-0.38034188747406006
1761399370659762000,11.465761962890625,0.23120616376399994,-0.17336714267730713,-0.3685009479522705
1761399370669833700,11.475833740234375,0.2782367765903473,-0.17899617552757263,-0.40775421261787415
1761399370679909600,11.48590966796875,0.2609500288963318,-0.23928330838680267,-0.46940696239471436
1761399370689995000,11.4959951171875,0.1834094524383545,-0.32869812846183777,-0.5148388147354126
1761399370700075300,11.5060751953125,0.07221133261919022,-0.3767779469490051,-0.5230991244316101
1761399370710156000,11.516156005859376,-0.08212040364742279,-0.3352597653865814,-0.5155549049377441
1761399370720236500,11.526236572265624,-0.27197492122650146,-0.2675616443157196,-0.5689806342124939
1761399370730317300,11.5363173828125,-0.4165308177471161,-0.16755492985248566,-0.6651902794837952
1761399370740394200,11.546394287109376,-0.49850133061408997,0.047197166830301285,-0.6179264783859253
1761399370750479000,11.55647900390625,-0.6118144989013672,0.25169047713279724,-0.4258236885070801
1761399370760539000,11.566538818359374,-0.7649304866790771,0.12027449905872345,-0.24592821300029755
1761399370770617300,11.576617431640624,-0.8697335124015808,-0.25350573658943176,-0.1554975062608719
1761399370780721000,11.586720947265626,-0.6953504681587219,-0.5848684906959534,-0.1566133201122284
1761399370790785000,11.596784912109374,-0.39429783821105957,-0.5584720373153687,-0.1311328411102295
1761399370800878000,11.606878173828125,-0.21843262016773224,-0.41165122389793396,-0.1913367062807083
1761399370810937900,11.616937744140625,-0.27029287815093994,-0.4543851315975189,-0.26198258996009827
1761399370821043700,11.627043701171875,-0.45663341879844666,-0.5324419736862183,-0.3637212812900543
1761399370831100000,11.637099853515625,-0.6043868660926819,-0.5216502547264099,-0.6074512004852295
1761399370841204500,11.64720458984375,-0.6810114979743958,-0.5150386691093445,-0.9968361258506775
1761399370851281200,11.65728125,-0.6866071820259094,-0.5200348496437073,-1.4209277629852295
1761399370861366300,11.6673662109375,-0.619425356388092,-0.7233123779296875,-1.6647909879684448
1761399370871442400,11.6774423828125,-0.6379611492156982,-1.0219168663024902,-1.719199299812317
1761399370881528000,11.687528076171875,-0.6370118856430054,-1.080422043800354,-1.6617265939712524
1761399370891607800,11.69760791015625,-0.6181263327598572,-0.8550781011581421,-1.5572733879089355
1761399370901688600,11.7076884765625,-0.5751426219940186,-0.4756022095680237,-1.453153133392334
1761399370911769000,11.71776904296875,-0.4926224946975708,-0.24892590939998627,-1.2859646081924438
1761399370921849900,11.727849853515625,-0.3582921028137207,-0.18096132576465607,-1.0537924766540527
1761399370931926800,11.7379267578125,-0.2774873673915863,-0.15339912474155426,-0.8164077401161194
1761399370942011600,11.74801171875,-0.19428445398807526,0.00011657733557512984,-0.5658330917358398
1761399370952054000,11.758053955078125,-0.09496056288480759,0.17934590578079224,-0.3474504053592682
1761399370962173000,11.7681728515625,-0.034956544637680054,0.5251309275627136,-0.1444726288318634
1761399370972254200,11.778254150390625,-0.009093032218515873,0.7659130692481995,-0.08520137518644333
1761399370982308600,11.78830859375,-0.028544792905449867,0.9002268314361572,-0.14782005548477173
1761399370992415000,11.7984150390625,-0.06846420466899872,0.9138996601104736,-0.23425382375717163
1761399371002491600,11.80849169921875,-0.11029881238937378,0.8171737790107727,-0.3223862946033478
1761399371012576300,11.818576171875,-0.14978522062301636,0.6281353235244751,-0.41623103618621826
1761399371022631400,11.82863134765625,-0.1784132868051529,0.3834728002548218,-0.5115746259689331
1761399371032737500,11.838737548828124,-0.1938347965478897,0.16395770013332367,-0.5945943593978882
1761399371042818800,11.84881884765625,-0.18810585141181946,0.0015155053697526455,-0.6612266302108765
1761399371052899300,11.8588994140625,-0.21182101964950562,-0.14513878524303436,-0.6900212168693542
1761399371062975500,11.8689755859375,-0.26433077454566956,-0.26606279611587524,-0.6802953481674194
1761399371073034800,11.87903466796875,-0.2897613048553467,-0.20585891604423523,-0.7391502857208252
1761399371083141000,11.88914111328125,-0.3174900412559509,-0.10390371084213257,-0.8377413749694824
1761399371093221600,11.8992216796875,-0.362738698720932,-0.03289146348834038,-0.9247246980667114
1761399371103302400,11.909302490234374,-0.41636428236961365,0.003946975339204073,-0.9872268438339233
1761399371113382700,11.919382568359374,-0.45759934186935425,-0.021350305527448654,-1.0311598777770996
1761399371123459300,11.929459228515626,-0.510408878326416,-0.0716450959444046,-1.0473641157150269
1761399371133504800,11.9395048828125,-0.5695302486419678,-0.1318989247083664,-1.0276957750320435
1761399371143624700,11.949624755859375,-0.6278855204582214,-0.15901148319244385,-0.9788998961448669
1761399371153716700,11.959716796875,-0.6436567902565002,-0.17108556628227234,-0.9013260006904602
1761399371163786000,11.969785888671876,-0.602338433265686,-0.17125210165977478,-0.7896948456764221
1761399371173866800,11.97986669921875,-0.5551745891571045,-0.17066921293735504,-0.661060094833374
1761399371183947300,11.989947265625,-0.5141393542289734,-0.212087482213974,-0.5477635860443115
1761399371194023700,12.000023681640625,-0.4842955470085144,-0.2281251847743988,-0.4833129644393921
1761399371204108500,12.010108642578125,-0.4453587234020233,-0.1774473488330841,-0.4289712905883789
1761399371214189600,12.020189453125,-0.39824482798576355,-0.15449827909469604,-0.383556067943573
1761399371234351400,12.040351318359376,-0.3456684350967407,-0.09522702544927597,-0.2313893586397171
1761399371244432400,12.050432373046876,-0.2987211048603058,-0.10132236033678055,-0.15811216831207275
1761399371254512400,12.060512451171874,-0.22053100168704987,-0.10165543854236603,-0.10904976725578308
1761399371264593400,12.070593505859375,-0.1491856724023819,-0.1108650416135788,-0.08451856672763824
1761399371274673400,12.08067333984375,-0.10845022648572922,-0.16442400217056274,-0.08468510955572128
1761399371284754000,12.09075390625,-0.1074010357260704,-0.2186158150434494,-0.11696037650108337
1761399371294834700,12.100834716796875,-0.13827736675739288,-0.2506246268749237,-0.15784570574760437
1761399371304915500,12.11091552734375,-0.18347607553005219,-0.24391308426856995,-0.17150190472602844
1761399371314996200,12.120996337890626,-0.2132032960653305,-0.21052201092243195,-0.13103292882442474
1761399371325077500,12.131077392578124,-0.23543624579906464,-0.1655731201171875,-0.03510643169283867
1761399371335155000,12.141155029296876,-0.22078081965446472,-0.10283786058425903,0.1021217480301857
1761399371345238300,12.15123828125,-0.19520041346549988,-0.039886102080345154,0.25029152631759644
1761399371355319300,12.1613193359375,-0.17250114679336548,-0.01300669927150011,0.3804917633533478
1761399371365367300,12.1713671875,-0.11601109802722931,-0.1062852218747139,0.48862555623054504
1761399371375480800,12.181480712890625,-0.0054624807089567184,-0.3547614812850952,0.5847352743148804
1761399371385552000,12.1915517578125,0.16805455088615417,-0.6894383430480957,0.6608935594558716
1761399371395641600,12.2016416015625,0.3513640761375427,-0.8896849155426025,0.7141527533531189
1761399371425883000,12.2318828125,0.9227429032325745,-1.3463183641433716,0.7670621871948242
1761399371435940000,12.241940185546875,1.0316760540008545,-1.3837230205535889,0.6969159841537476
1761399371446045200,12.252045166015625,1.0569900274276733,-1.2943414449691772,0.7291246056556702
1761399371456114700,12.26211474609375,0.9995840191841125,-1.2035610675811768,1.0080275535583496
1761399371466206700,12.272206787109376,0.9225097298622131,-1.1701033115386963,1.5068453550338745
1761399371476287500,12.28228759765625,0.8643209934234619,-1.1050865650177002,2.0420851707458496
1761399371486338300,12.29233837890625,0.8396399021148682,-0.9938217997550964,2.4678921699523926
1761399371496422700,12.302422607421875,0.872015118598938,-0.8794094324111938,2.7150027751922607
1761399371506528800,12.31252880859375,0.9537691473960876,-0.8030346632003784,2.706409454345703
1761399371516610000,12.322610107421875,1.0498955249786377,-0.7463613748550415,2.4512548446655273
1761399371526690000,12.33268994140625,1.1037875413894653,-0.6737003922462463,2.04691481590271
1761399371536745200,12.3427451171875,1.1190091371536255,-0.5050962567329407,1.6142463684082031
1761399371546851600,12.3528515625,1.136479139328003,-0.21450228989124298,1.3137599229812622
1761399371556933400,12.362933349609374,1.1941848993301392,0.07702431082725525,1.223462462425232
1761399371567013000,12.37301318359375,1.2425978183746338,0.17842993140220642,1.261350154876709
1761399371577093400,12.38309326171875,1.2490761280059814,-0.024781011044979095,1.2648807764053345
1761399371587174100,12.393174072265625,1.2479437589645386,-0.4089865982532501,1.155747652053833
1761399371597255000,12.4032548828125,1.141008973121643,-0.8031678795814514,0.9123175740242004
1761399371607335400,12.41333544921875,1.0560407638549805,-1.0480802059173584,0.6269362568855286
1761399371617416200,12.423416259765625,1.0596046447753906,-1.1104323863983154,0.40227508544921875
1761399371627497700,12.433497802734376,1.0694804191589355,-1.1642911434173584,0.2576359212398529
1761399371637577700,12.44357763671875,1.0317426919937134,-1.2554879188537598,0.1855078488588333
1761399371647658500,12.453658447265624,0.9548516273498535,-1.3669358491897583,0.15013495087623596
1761399371657739000,12.463739013671875,0.8853049278259277,-1.563884973526001,0.0737934559583664
1761399371667819500,12.473819580078125,0.8983449339866638,-1.748610019683838,-0.04864605516195297
1761399371677900000,12.483900146484375,0.9294877648353577,-1.6536494493484497,-0.17103560268878937
1761399371687985200,12.493985107421874,0.8504982590675354,-1.4287551641464233,-0.2943577766418457
1761399371698057500,12.504057373046875,0.7461448907852173,-1.2424145936965942,-0.4327183961868286
1761399371708138500,12.514138427734375,0.8043003082275391,-1.1349469423294067,-0.5855513215065002
1761399371718197200,12.524197265625,0.9938717484474182,-1.0701966285705566,-0.7414318323135376
1761399371728303900,12.534303955078125,1.0884325504302979,-1.010725498199463,-0.8817243576049805
1761399371738384100,12.544384033203125,1.0579559803009033,-1.0616364479064941,-1.0188525915145874
1761399371748437000,12.55443701171875,0.9451923966407776,-1.097459077835083,-1.1260371208190918
1761399371758542000,12.5645419921875,0.7742066979408264,-1.0671489238739014,-1.1765317916870117
1761399371768600800,12.574600830078126,0.6365788578987122,-1.0648506879806519,-1.1933188438415527
1761399371778707500,12.58470751953125,0.4937216639518738,-1.040769100189209,-1.1555144786834717
1761399371788780300,12.5947802734375,0.3084969222545624,-0.9229927062988281,-1.047314167022705
1761399371798869000,12.604868896484374,0.12608671188354492,-0.7406324744224548,-0.9023918509483337
1761399371808949500,12.614949462890625,-0.004763016942888498,-0.5486129522323608,-0.7638646364212036
1761399371819029800,12.62502978515625,-0.08252009749412537,-0.4181462526321411,-0.6809115409851074
1761399371829105700,12.635105712890624,-0.15513111650943756,-0.3136596381664276,-0.6687542200088501
1761399371839167700,12.645167724609376,-0.2679779827594757,-0.23998276889324188,-0.6955170035362244
1761399371849271600,12.655271484375,-0.3985612392425537,-0.1866070032119751,-0.7359693646430969
1761399371859327200,12.6653271484375,-0.5385706424713135,-0.17086906731128693,-0.7643642425537109
