time,seconds_elapsed,z,y,x
1761316290567914000,0.1249140625,0.06838011741638184,0.010831832885742188,-0.008981704711914062
1761316290586836200,0.143836181640625,0.041577816009521484,-0.005733013153076172,-0.03678274154663086
1761316290605758700,0.1627587890625,-0.029937267303466797,0.035152435302734375,-0.06522035598754883
1761316290624681200,0.18168115234375,-0.04366779327392578,-0.019136905670166016,0.027935504913330078
1761316290643603500,0.200603515625,-0.05004525184631348,-0.005905628204345703,0.08927679061889648
1761316290662526000,0.21952587890625,0.0019106864929199219,-0.008216381072998047,0.10385847091674805
1761316290681448200,0.2384482421875,0.12833070755004883,0.004562854766845703,0.048734188079833984
1761316290700370700,0.25737060546875,0.0280458927154541,-0.008982658386230469,-0.017069339752197266
1761316290719293200,0.276293212890625,-0.02362990379333496,-0.06175374984741211,0.012874126434326172
1761316290738215400,0.29521533203125,0.03589606285095215,-0.0550236701965332,0.07251119613647461
1761316290757138000,0.314137939453125,0.010160207748413086,-0.026955127716064453,0.0678248405456543
1761316290776060400,0.333060302734375,0.02231001853942871,0.008205890655517578,0.0932002067565918
1761316290794982700,0.351982666015625,0.07154321670532227,0.03768730163574219,0.03595304489135742
1761316290813905200,0.3709052734375,0.0864100456237793,0.0030226707458496094,-0.014091968536376953
1761316290832827400,0.389827392578125,0.01907181739807129,-0.014344215393066406,-0.01460409164428711
1761316290851750000,0.40875,-0.020583391189575195,0.05402565002441406,-0.021101951599121094
1761316290870672400,0.42767236328125,0.009566068649291992,0.10161924362182617,-0.011944293975830078
1761316290889594600,0.4465947265625,0.03313159942626953,0.06314849853515625,-0.09406852722167969
1761316290908517000,0.46551708984375,0.03408241271972656,0.12214899063110352,-0.1498265266418457
1761316290927439600,0.484439697265625,-0.04209494590759277,0.18834829330444336,-0.18192148208618164
1761316290946361900,0.50336181640625,0.07358908653259277,0.1594228744506836,-0.10669469833374023
1761316290965284400,0.522284423828125,0.05362701416015625,0.07160377502441406,-0.06693220138549805
1761316290984206800,0.541206787109375,0.04740190505981445,0.007330894470214844,-0.07440805435180664
1761316291003129000,0.560129150390625,0.03820204734802246,-0.0537261962890625,0.02061605453491211
1761316291022051600,0.579051513671875,-1.1960256099700928,0.07950830459594727,-0.29334402084350586
1761316291040973800,0.597973876953125,-0.06949639320373535,0.07709360122680664,-0.1380457878112793
1761316291059896300,0.616896240234375,0.32213258743286133,-0.11955976486206055,0.28984498977661133
1761316291078818800,0.63581884765625,0.047127485275268555,-0.44733667373657227,0.3076748847961426
1761316291097741000,0.654740966796875,0.03158283233642578,-0.3825840950012207,0.1663675308227539
1761316291116663600,0.67366357421875,0.07541799545288086,-0.5674333572387695,0.06839561462402344
1761316291135586000,0.6925859375,-0.10663175582885742,-0.4372067451477051,0.3347501754760742
1761316291154508300,0.71150830078125,0.08578848838806152,-0.6204819679260254,0.14003896713256836
1761316291173430800,0.7304306640625,0.39534735679626465,-0.17166519165039062,0.11133432388305664
1761316291192353300,0.749353271484375,0.5306804180145264,0.5919966697692871,-0.35582923889160156
1761316291211275500,0.768275634765625,0.16048479080200195,0.7124538421630859,-0.5347905158996582
1761316291230198000,0.787197998046875,0.002605915069580078,-0.9703078269958496,-0.5180678367614746
1761316291249120500,0.80612060546875,-0.006193637847900391,-1.195847988128662,-0.28112220764160156
1761316291268042800,0.825042724609375,-0.0038073062896728516,-0.27420806884765625,-0.34429311752319336
1761316291286965200,0.84396533203125,0.1805586814880371,0.7353420257568359,0.025737762451171875
1761316291305887700,0.8628876953125,0.1973886489868164,0.4929180145263672,0.23009395599365234
1761316291324810000,0.88181005859375,0.2962181568145752,0.27469730377197266,0.12344598770141602
1761316291343732500,0.900732421875,0.18073248863220215,0.5781335830688477,-0.23085546493530273
1761316291362654700,0.91965478515625,0.0760946273803711,1.6275506019592285,-0.22178888320922852
1761316291381577200,0.9385771484375,0.01286935806274414,2.369283676147461,0.13390254974365234
1761316291400499700,0.957499755859375,-0.036489248275756836,0.6140866279602051,0.29018688201904297
1761316291419422000,0.976421875,-0.12857580184936523,-0.13747262954711914,0.3771705627441406
1761316291438344400,0.995344482421875,0.09931516647338867,-0.30971193313598633,0.351226806640625
1761316291457267000,1.014266845703125,0.36017274856567383,-0.2594618797302246,0.18003225326538086
1761316291476189200,1.033189208984375,0.16540932655334473,-0.3174281120300293,-0.17713499069213867
1761316291495111700,1.052111572265625,0.024790525436401367,-0.14229297637939453,-0.24938201904296875
1761316291514034200,1.0710341796875,-0.08083629608154297,0.0711369514465332,-0.22366714477539062
1761316291532956400,1.089956298828125,-0.07384705543518066,0.11849546432495117,-0.18782854080200195
1761316291551879000,1.10887890625,-0.07585668563842773,0.17010736465454102,-0.13133478164672852
1761316291570801400,1.127801513671875,-0.6179347038269043,0.2621307373046875,-0.19806337356567383
1761316291589723600,1.1467236328125,-0.07655215263366699,0.12032461166381836,-0.06151723861694336
1761316291608646100,1.165646240234375,0.21414661407470703,-0.055306434631347656,-0.01890277862548828
1761316291627568600,1.184568603515625,0.22400903701782227,0.013971328735351562,0.0009980201721191406
1761316291646491000,1.203490966796875,0.3135697841644287,-0.01251840591430664,-0.04049539566040039
1761316291665413400,1.222413330078125,-0.13904714584350586,0.07770586013793945,-0.14593219757080078
1761316291684335900,1.2413359375,-0.3483133316040039,-0.12378835678100586,-0.23785734176635742
1761316291703258000,1.260258056640625,-0.20988249778747559,-0.007180690765380859,-0.2436532974243164
1761316291722180600,1.2791806640625,-0.11657118797302246,0.14320611953735352,-0.19324827194213867
1761316291741103000,1.29810302734375,-0.27768170833587646,0.11446666717529297,-0.12488269805908203
1761316291760025300,1.317025390625,-0.2590005397796631,0.1807541847229004,-0.06529998779296875
1761316291778947800,1.33594775390625,-0.18192124366760254,0.19217634201049805,-0.058670997619628906
1761316291797870300,1.354870361328125,-0.0878908634185791,0.21604251861572266,-0.06612205505371094
1761316291816792600,1.37379248046875,-0.05612003803253174,0.19637823104858398,-0.2630167007446289
1761316291835715000,1.392715087890625,-0.22439229488372803,0.2919178009033203,-0.3549232482910156
1761316291854637600,1.411637451171875,-0.13120520114898682,0.3821225166320801,-0.46923303604125977
1761316291873559800,1.430559814453125,0.01914060115814209,0.5176529884338379,-0.6224350929260254
1761316291892482300,1.449482421875,0.07028722763061523,0.48934221267700195,-0.5399150848388672
1761316291911404800,1.46840478515625,0.07323408126831055,0.40587711334228516,-0.4598555564880371
1761316291930327300,1.487327392578125,0.10042834281921387,-0.12807369232177734,-0.5031313896179199
1761316291949249500,1.50624951171875,-0.09207582473754883,-0.07826519012451172,-0.28699779510498047
1761316291968172000,1.525172119140625,0.04432821273803711,0.15674495697021484,-0.071624755859375
1761316291987094500,1.544094482421875,0.3173255920410156,0.2577972412109375,-0.1633439064025879
1761316292006016800,1.563016845703125,0.22376465797424316,0.4949073791503906,-0.18992376327514648
1761316292024939300,1.581939208984375,0.05461597442626953,0.7397565841674805,-0.21937274932861328
1761316292043861800,1.60086181640625,0.06595253944396973,0.7598381042480469,-0.3001441955566406
1761316292062784000,1.619783935546875,0.06320464611053467,1.1941423416137695,0.17210149765014648
1761316292081706500,1.63870654296875,-0.187774658203125,1.3700075149536133,0.024059295654296875
1761316292100629000,1.65762890625,0.06734001636505127,0.3865847587585449,-0.8904881477355957
1761316292119551200,1.67655126953125,0.3279764652252197,-0.3912239074707031,-0.4037151336669922
1761316292138473700,1.6954736328125,0.3774073123931885,0.1251077651977539,-0.007770061492919922
1761316292157396200,1.714396240234375,0.7416555881500244,0.9390335083007812,-0.2961549758911133
1761316292176318500,1.733318359375,0.8573663234710693,1.1237516403198242,-0.8272476196289062
1761316292195241000,1.752240966796875,0.9667463302612305,0.18848896026611328,-0.9987521171569824
1761316292214163500,1.77116357421875,0.7029702663421631,-0.04545879364013672,-0.7293148040771484
1761316292233085700,1.790085693359375,1.0550671815872192,0.015488624572753906,-0.3391990661621094
1761316292252008200,1.80900830078125,0.9979573488235474,0.9184880256652832,-0.6734623908996582
1761316292270930700,1.8279306640625,0.8429572582244873,1.1106443405151367,-0.7285928726196289
1761316292289853200,1.846853271484375,1.1240665912628174,0.9779787063598633,-0.48145008087158203
1761316292308775400,1.865775390625,0.20697760581970215,2.031156063079834,-1.071516990661621
1761316292327698000,1.884697998046875,0.207208514213562,1.674112319946289,-1.1430778503417969
1761316292346620400,1.903620361328125,0.5132149457931519,1.3208270072937012,-1.0765347480773926
1761316292365542700,1.922542724609375,0.934741735458374,0.7882065773010254,-1.0245838165283203
1761316292384465200,1.941465087890625,0.2684430480003357,0.5283780097961426,-1.9992408752441406
1761316292403387600,1.9603876953125,-0.3360878825187683,-0.06368827819824219,-3.0982537269592285
1761316292422310100,1.97931005859375,-0.9282304048538208,-0.33875560760498047,-3.9478721618652344
1761316292441232400,1.998232421875,-0.26614314317703247,-1.2939329147338867,-4.460360527038574
1761316292460155000,2.01715478515625,1.2275617122650146,-2.9216670989990234,-4.86691427230835
1761316292479077400,2.036077392578125,3.736828327178955,-3.81960391998291,-2.6048426628112793
1761316292497999600,2.05499951171875,4.0587687492370605,-3.933783531188965,-1.1389060020446777
1761316292516922000,2.073922119140625,1.580492615699768,-2.2996721267700195,-1.2858009338378906
1761316292535844600,2.0928447265625,0.019449472427368164,-0.8283653259277344,-1.1663331985473633
1761316292554766800,2.111766845703125,-0.8450669050216675,-0.21929550170898438,-0.5862140655517578
1761316292573689300,2.130689453125,-1.3020813465118408,-0.4989147186279297,0.0132904052734375
1761316292592611800,2.14961181640625,-1.512473702430725,-0.5541505813598633,0.5747928619384766
1761316292611534300,2.168534423828125,-0.5847258567810059,-0.4477653503417969,0.7458038330078125
1761316292630456600,2.18745654296875,-0.43270671367645264,0.013407707214355469,0.6167163848876953
1761316292649379000,2.206379150390625,0.07895898818969727,-0.458493709564209,0.049788475036621094
1761316292668301600,2.225301513671875,-0.2823452949523926,-1.595353126525879,0.12854766845703125
1761316292687224000,2.24422412109375,-1.1030216217041016,-2.1498546600341797,1.1955418586730957
1761316292706146300,2.263146240234375,-2.106055498123169,-2.12652587890625,1.9737162590026855
1761316292725068800,2.28206884765625,-1.4960458278656006,-1.3256540298461914,2.264552593231201
1761316292743991300,2.3009912109375,-0.8470759391784668,-1.2713384628295898,2.078752040863037
1761316292762913500,2.31991357421875,-1.0534918308258057,-1.5596880912780762,1.6557188034057617
1761316292781836000,2.3388359375,-1.0816099643707275,-1.4247431755065918,1.5479631423950195
1761316292800758500,2.357758544921875,-1.4562684297561646,-1.0836725234985352,1.562619686126709
1761316292819681000,2.376680908203125,-1.960301399230957,-0.9333229064941406,1.919233798980713
1761316292838603300,2.395603271484375,-1.72433340549469,-0.6640973091125488,2.2510061264038086
1761316292857525800,2.41452587890625,-2.044055461883545,-0.4196300506591797,2.551940441131592
1761316292876448300,2.4334482421875,-2.059446096420288,0.2249898910522461,2.8055357933044434
1761316292895370500,2.45237060546875,-1.968031883239746,0.7421460151672363,2.9121103286743164
1761316292914293000,2.47129296875,-1.8140933513641357,1.174769401550293,2.759080648422241
1761316292933215500,2.490215576171875,-1.5524511337280273,1.4148850440979004,2.7626590728759766
1761316292952138000,2.509137939453125,-1.208045482635498,1.373262882232666,2.530413866043091
1761316292971060200,2.528060302734375,-0.5776231288909912,1.3627734184265137,1.9691290855407715
1761316292989982700,2.546982666015625,0.12404060363769531,1.72367525100708,1.2891364097595215
1761316293008905200,2.5659052734375,0.6474566459655762,2.1387975215911865,0.21301889419555664
1761316293027827700,2.58482763671875,0.9755125045776367,2.0716495513916016,-0.8327250480651855
1761316293046750000,2.60375,2.0314717292785645,1.5945324897766113,-1.469040870666504
1761316293065672400,2.62267236328125,3.144937038421631,0.7704148292541504,-2.10636568069458
1761316293084595000,2.641594970703125,3.706223487854004,0.10689353942871094,-1.9865193367004395
1761316293103517400,2.660517333984375,3.49420166015625,0.06923723220825195,-1.9051117897033691
1761316293122439700,2.679439697265625,2.478793144226074,0.5036802291870117,-1.3829984664916992
1761316293141362200,2.698362060546875,2.111380100250244,1.581681251525879,-0.5601949691772461
1761316293160284700,2.71728466796875,1.442521095275879,2.443542003631592,0.04689598083496094
1761316293179207000,2.73620703125,0.22464656829833984,0.6873621940612793,-0.09226560592651367
1761316293198129400,2.75512939453125,0.9846944808959961,-2.5552587509155273,-1.7350616455078125
1761316293217052000,2.774052001953125,0.3989396095275879,-9.343482971191406,-4.903233528137207
1761316293235974400,2.792974365234375,-2.1816701889038086,-10.95211124420166,-3.318960189819336
1761316293254896600,2.811896728515625,-2.9523444175720215,-1.8616752624511719,3.9011807441711426
1761316293273819100,2.830819091796875,1.0902533531188965,0.34604787826538086,10.186996459960938
1761316293292741600,2.84974169921875,-4.9500412940979,1.6350488662719727,8.924790382385254
1761316293311664000,2.8686640625,-9.303316116333008,0.7451663017272949,4.354294300079346
1761316293330586400,2.88758642578125,-6.947127342224121,-1.4278564453125,0.24854278564453125
1761316293349508900,2.9065087890625,-3.720658779144287,-3.571946144104004,-1.3945989608764648
1761316293368431400,2.925431396484375,-1.2488311529159546,-5.688727378845215,-1.7064218521118164
1761316293387353900,2.944353759765625,-0.82975172996521,-3.0571489334106445,-0.18323421478271484
1761316293406276000,2.963276123046875,0.10154080390930176,-0.8471550941467285,1.2027273178100586
1761316293425198600,2.982198486328125,-1.6943368911743164,0.24901771545410156,1.6921324729919434
1761316293444121000,3.00112109375,-1.7927327156066895,0.5196199417114258,1.157562255859375
1761316293463043600,3.020043701171875,-2.038599729537964,0.1979970932006836,0.3770112991333008
1761316293481965800,3.0389658203125,-1.505702018737793,-0.2148580551147461,-0.347412109375
1761316293500888300,3.057888427734375,-1.560400128364563,-0.04430246353149414,-1.1755409240722656
1761316293519810800,3.076810791015625,-0.996160089969635,0.2621273994445801,-0.6681370735168457
1761316293538733300,3.0957333984375,-0.921610951423645,0.2921137809753418,-0.6955657005310059
1761316293557655600,3.114655517578125,-0.5911609530448914,0.13501691818237305,0.016743183135986328
1761316293576578000,3.133578125,-0.0305936336517334,0.19179868698120117,0.319913387298584
1761316293595500500,3.15250048828125,-0.30866748094558716,0.11695718765258789,0.6488285064697266
1761316293614423000,3.171423095703125,-0.476852148771286,0.004169464111328125,0.6240701675415039
1761316293633345300,3.19034521484375,-0.6505376696586609,0.5441460609436035,0.6316595077514648
1761316293652267800,3.209267822265625,-0.4406936764717102,1.0377774238586426,0.463712215423584
1761316293671190300,3.228190185546875,0.2851319909095764,1.4412474632263184,-0.3988170623779297
1761316293690112500,3.247112548828125,0.9825294017791748,1.4867048263549805,-1.675990104675293
1761316293709035000,3.266034912109375,1.4626595973968506,1.34505033493042,-2.6604294776916504
1761316293727957500,3.28495751953125,1.3279478549957275,1.3916449546813965,-2.7156715393066406
1761316293746880000,3.3038798828125,0.7958563566207886,1.2255558967590332,-2.0780577659606934
1761316293765802500,3.322802490234375,0.13776342570781708,0.8689312934875488,-1.5458264350891113
1761316293784724700,3.341724853515625,-0.048239320516586304,0.30014705657958984,-1.5401110649108887
1761316293803647200,3.360647216796875,-0.2386300414800644,-0.07044029235839844,-1.7547883987426758
1761316293822569700,3.37956982421875,-0.4620403051376343,-0.13361263275146484,-2.1143417358398438
1761316293841492200,3.3984921875,-0.7349728941917419,-0.08815574645996094,-2.947749137878418
1761316293860414500,3.41741455078125,-0.44730353355407715,0.0103759765625,-3.9734325408935547
1761316293879337000,3.4363369140625,0.5622852444648743,0.13564777374267578,-4.549973011016846
1761316293898259500,3.455259521484375,0.01647248864173889,-0.7634420394897461,-3.9554715156555176
1761316293917182000,3.474181884765625,1.3292452096939087,-2.8434104919433594,-3.073698043823242
1761316293936104200,3.493104248046875,3.387864112854004,-5.136804580688477,-1.2287592887878418
1761316293955026700,3.512026611328125,2.483160972595215,-5.455767631530762,1.2723236083984375
1761316293973949200,3.53094921875,0.11515331268310547,-3.909162998199463,2.565560817718506
1761316293992871700,3.54987158203125,-1.2100200653076172,-3.2948250770568848,2.6490485668182373
1761316294011794000,3.5687939453125,-1.5673608779907227,-3.160252094268799,2.2257587909698486
1761316294030716400,3.58771630859375,-0.28880739212036133,-1.687192440032959,2.0714058876037598
1761316294049639000,3.606638916015625,0.6079449653625488,-0.8447265625,0.3819117546081543
1761316294068561400,3.6255615234375,0.3940768241882324,-1.3777542114257812,-0.5906534194946289
1761316294087484000,3.64448388671875,-1.390089511871338,-1.0271711349487305,-0.2895212173461914
1761316294106406100,3.66340625,-2.1790685653686523,-0.3319830894470215,0.6007242202758789
1761316294125328600,3.68232861328125,-2.710433006286621,0.2328662872314453,1.6474919319152832
1761316294144251100,3.701251220703125,-2.544152021408081,0.030849933624267578,2.323484420776367
1761316294163173600,3.720173583984375,-2.093886375427246,-0.6394262313842773,2.7551541328430176
1761316294182096000,3.739095947265625,-1.526958703994751,-1.1178007125854492,2.9277849197387695
1761316294201018400,3.758018310546875,-1.1932682991027832,-1.245157241821289,3.145516872406006
1761316294219940900,3.77694091796875,-1.2082104682922363,-1.1454362869262695,3.295717477798462
1761316294238863400,3.79586328125,-1.35099196434021,-0.7990031242370605,3.477828025817871
1761316294257785900,3.814785888671875,-1.4424467086791992,-0.25456762313842773,3.620013475418091
1761316294276708000,3.8337080078125,-1.736433744430542,0.4211311340332031,3.5800936222076416
1761316294295630600,3.852630615234375,-1.3869786262512207,0.9267091751098633,3.172138214111328
1761316294314553000,3.871552978515625,-1.0196855068206787,1.0563311576843262,2.3833470344543457
1761316294333475600,3.8904755859375,-0.5541787147521973,1.0852489471435547,1.7794427871704102
1761316294352397800,3.909397705078125,-0.25937962532043457,1.2454299926757812,1.3203887939453125
1761316294371320300,3.9283203125,-0.1908280849456787,1.524681568145752,0.8562126159667969
1761316294390242800,3.947242919921875,0.026436805725097656,1.5495572090148926,0.15874481201171875
1761316294409165300,3.966165283203125,0.6597342491149902,1.2359576225280762,-0.4867405891418457
1761316294428087800,3.985087890625,1.5654966831207275,0.7225813865661621,-1.252265453338623
1761316294447010000,4.004010009765625,2.500197410583496,0.27030515670776367,-2.1060142517089844
1761316294465932500,4.0229326171875,3.2231225967407227,-0.1715693473815918,-3.0100626945495605
1761316294484855000,4.04185498046875,3.1230976581573486,-0.13886690139770508,-2.8263778686523438
1761316294503777500,4.060777587890625,2.943352222442627,0.09009790420532227,-1.5327281951904297
1761316294522699800,4.07969970703125,2.586944103240967,0.7919063568115234,-0.27333974838256836
1761316294541622300,4.098622314453125,2.631302833557129,1.6593761444091797,0.7236971855163574
1761316294560544800,4.117544677734375,1.7487883567810059,0.8028879165649414,1.0727791786193848
1761316294579467300,4.13646728515625,0.9331574440002441,-1.4362850189208984,-0.17823314666748047
1761316294598389800,4.1553896484375,2.174692153930664,-3.908252716064453,-1.7445573806762695
1761316294617312000,4.17431201171875,2.5271782875061035,-6.448043346405029,-2.350907325744629
1761316294636234500,4.193234375,1.2312006950378418,-6.426638126373291,-2.939082145690918
1761316294655157000,4.212156982421875,-3.851184606552124,-1.1277761459350586,1.391270637512207
1761316294674079500,4.23107958984375,-3.6698386669158936,1.0125141143798828,6.263168811798096
1761316294693002000,4.250001953125,-4.507697105407715,1.5979900360107422,8.084253311157227
1761316294711924200,4.26892431640625,-6.0997114181518555,-0.08381271362304688,5.608089923858643
1761316294730846700,4.2878466796875,-4.019039154052734,-1.6831254959106445,2.076354503631592
1761316294749769200,4.306769287109375,-3.2099997997283936,-4.442530632019043,1.4343552589416504
1761316294768691700,4.325691650390625,-4.381589889526367,-4.714878559112549,1.1052227020263672
1761316294787614200,4.3446142578125,-1.4191789627075195,-2.2786178588867188,0.21798324584960938
1761316294806536400,4.363536376953125,-0.41090071201324463,-0.6058168411254883,0.16133403778076172
1761316294825459000,4.382458984375,-0.32956433296203613,0.21732568740844727,0.051024436950683594
1761316294844381400,4.40138134765625,-0.671643078327179,0.5454621315002441,0.16670989990234375
1761316294863304000,4.420303955078125,-1.2655727863311768,0.4024081230163574,0.04160118103027344
1761316294882226200,4.43922607421875,-1.6543105840682983,0.37453269958496094,-0.15204906463623047
1761316294901148700,4.458148681640625,-1.3974673748016357,0.3595705032348633,-0.10077142715454102
1761316294920071200,4.4770712890625,-0.7029188275337219,0.08917903900146484,-0.08533430099487305
1761316294938993700,4.49599365234375,-0.2788242697715759,-0.19390583038330078,-0.14022159576416016
1761316294957916200,4.514916259765625,0.27826714515686035,0.06865310668945312,-0.2678208351135254
1761316294976838400,4.53383837890625,0.23805558681488037,0.3320131301879883,-0.28048181533813477
1761316294995761000,4.552760986328125,0.08489763736724854,0.3481884002685547,-0.013989925384521484
1761316295014683400,4.571683349609375,-0.020783424377441406,0.19729137420654297,0.1839919090270996
1761316295033606000,4.59060595703125,-0.0020682811737060547,0.28143739700317383,0.14319849014282227
1761316295052528400,4.6095283203125,-0.08087015151977539,0.42319345474243164,0.1322002410888672
1761316295071450600,4.62845068359375,0.1534917950630188,0.5534882545471191,-0.14148473739624023
1761316295090373000,4.647373046875,0.6633780002593994,0.8805942535400391,-0.2434244155883789
1761316295109295600,4.666295654296875,1.08677077293396,1.206861972808838,-0.44883108139038086
1761316295128218000,4.685218017578125,1.0402617454528809,1.2633209228515625,-0.9096822738647461
1761316295147140600,4.704140625,0.8658279776573181,1.0995078086853027,-1.3780646324157715
1761316295166062800,4.723062744140625,0.6334190368652344,1.3863739967346191,-1.8778586387634277
1761316295184985300,4.7419853515625,0.5369493961334229,1.6064200401306152,-2.528545379638672
1761316295203907800,4.760907958984375,0.2351188361644745,1.290980339050293,-2.9944400787353516
1761316295222830300,4.779830322265625,-0.28216004371643066,0.835141658782959,-3.0765676498413086
1761316295241752800,4.7987529296875,-0.43396466970443726,0.37967872619628906,-2.370819091796875
1761316295260675000,4.817675048828125,-0.10019978880882263,-0.0027713775634765625,-1.6362133026123047
1761316295279597600,4.83659765625,0.3563780188560486,-0.3283529281616211,-1.3121600151062012
1761316295298520000,4.85552001953125,0.5115476846694946,-0.6195945739746094,-2.290017604827881
1761316295317442600,4.874442626953125,1.0280941724777222,-0.3476600646972656,-3.1191020011901855
1761316295336365000,4.893364990234375,1.4141273498535156,-0.5712966918945312,-3.1447739601135254
1761316295355287300,4.912287353515625,0.5207123756408691,-0.5897588729858398,-2.7706971168518066
1761316295374209800,4.931209716796875,1.459854245185852,-0.6484174728393555,-3.1308207511901855
1761316295393132300,4.95013232421875,2.3665826320648193,-1.2564048767089844,-2.794828414916992
1761316295412054800,4.9690546875,1.4748687744140625,-1.8619375228881836,-1.31044340133667
1761316295430977300,4.987977294921875,0.621086597442627,-2.0445709228515625,0.4864692687988281
1761316295449899500,5.0068994140625,-0.8209749460220337,-3.3127975463867188,1.7177400588989258
1761316295468822000,5.025822021484375,-1.6669052839279175,-5.184800148010254,2.8942365646362305
1761316295487744500,5.04474462890625,-0.2607150077819824,-4.716972351074219,3.294508934020996
1761316295506667000,5.0636669921875,0.35642290115356445,-2.2112574577331543,2.1127138137817383
1761316295525589500,5.082589599609375,0.45424413681030273,-1.2501797676086426,0.6095523834228516
1761316295544511700,5.10151171875,0.3015100955963135,-1.7551965713500977,-0.8367056846618652
1761316295563434200,5.120434326171875,-1.3706985712051392,-1.5342650413513184,-0.36687183380126953
1761316295582356700,5.139356689453125,-1.8718698024749756,-0.8366050720214844,0.7221779823303223
1761316295601279200,5.158279296875,-2.7391133308410645,-0.05352449417114258,1.5275845527648926
1761316295620201700,5.17720166015625,-2.8013782501220703,0.23644256591796875,2.6047377586364746
1761316295639124200,5.196124267578125,-2.077958106994629,0.07941532135009766,3.212695837020874
1761316295658046500,5.21504638671875,-1.0900871753692627,-0.17318201065063477,3.443331480026245
1761316295676969000,5.233968994140625,-0.904839038848877,0.0536189079284668,2.5755257606506348
1761316295695891500,5.252891357421875,-0.9523200988769531,0.3124113082885742,2.3427987098693848
1761316295714814000,5.27181396484375,-1.1042006015777588,0.38640403747558594,2.794572353363037
1761316295733736400,5.290736328125,-1.3402585983276367,0.5074067115783691,3.09761118888855
1761316295752658700,5.30965869140625,-1.6115624904632568,0.398468017578125,3.250633716583252
1761316295771581200,5.328581298828125,-1.450770378112793,0.6852717399597168,3.2735815048217773
1761316295790503700,5.347503662109375,-0.7788832187652588,0.6069951057434082,2.48112154006958
1761316295809426200,5.36642626953125,-0.040073394775390625,0.73565673828125,1.5287065505981445
1761316295828348700,5.3853486328125,0.4646797180175781,1.0803122520446777,0.777501106262207
1761316295847271000,5.40427099609375,0.6943464279174805,1.5163702964782715,0.05553293228149414
1761316295866193400,5.423193359375,1.1234591007232666,1.738354206085205,-0.751227855682373
1761316295885116000,5.442115966796875,1.7259881496429443,1.5880050659179688,-1.8272700309753418
1761316295904038400,5.461038330078125,2.2333579063415527,1.157607078552246,-2.451456069946289
1761316295922961000,5.4799609375,2.758514165878296,0.38573408126831055,-2.599691390991211
1761316295941883100,5.498883056640625,2.5712878704071045,-0.30655431747436523,-3.2810468673706055
1761316295960805600,5.5178056640625,2.0776476860046387,-0.34212589263916016,-3.104525089263916
1761316295979728100,5.53672802734375,2.062734842300415,0.6298747062683105,-1.2898578643798828
1761316295998650600,5.555650634765625,1.654435157775879,2.3700952529907227,0.8210601806640625
1761316296017573000,5.574572998046875,1.8745207786560059,3.244349956512451,2.8263628482818604
1761316296036495600,5.59349560546875,1.621558427810669,3.130574941635132,3.3722193241119385
1761316296055417900,5.61241796875,0.35197997093200684,0.13015508651733398,1.9263172149658203
1761316296074340400,5.63134033203125,1.1864452362060547,-4.41970682144165,-1.6431012153625488
1761316296093262800,5.650262939453125,2.987889051437378,-8.465490341186523,-2.0093698501586914
1761316296112185300,5.669185302734375,2.7971348762512207,-7.578338146209717,-1.8721652030944824
1761316296131107800,5.68810791015625,-0.6758089065551758,-1.9530749320983887,1.2845563888549805
1761316296150030000,5.707030029296875,-2.9708659648895264,-0.10379838943481445,4.030559539794922
1761316296168952600,5.72595263671875,-3.4992096424102783,0.7232680320739746,4.120676040649414
1761316296187875000,5.744875,-5.962471961975098,-0.7959613800048828,2.565825939178467
1761316296206797600,5.763797607421875,-6.790337085723877,-2.4211297035217285,1.5229191780090332
1761316296225719800,5.7827197265625,-6.335886001586914,-2.1982297897338867,0.4933443069458008
1761316296244642300,5.801642333984375,-4.4240570068359375,-0.9943528175354004,0.04063749313354492
1761316296263564800,5.820564697265625,-2.3077523708343506,-0.5141348838806152,-0.10110807418823242
1761316296282487300,5.8394873046875,-0.37745964527130127,-0.9559216499328613,-0.05717945098876953
1761316296301409800,5.858409912109375,0.3001291751861572,-1.2540264129638672,0.3753786087036133
1761316296320332300,5.877332275390625,0.6517733335494995,-1.1751914024353027,0.49107933044433594
1761316296339254500,5.896254638671875,0.21895182132720947,-0.7935247421264648,0.9072198867797852
1761316296358177000,5.915177001953125,-0.4987449049949646,-0.10748434066772461,1.1130986213684082
1761316296377099500,5.934099609375,-0.6937879920005798,0.7304739952087402,0.49498653411865234
1761316296396022000,5.95302197265625,-1.1074376106262207,0.7993354797363281,0.2173318862915039
1761316296414944500,5.971944580078125,-1.2188292741775513,0.5367350578308105,-0.47176408767700195
1761316296433867000,5.990866943359375,-1.0486371517181396,0.2891712188720703,-0.8960628509521484
1761316296452789200,6.009789306640625,-0.2984490394592285,0.6862821578979492,-0.8559999465942383
1761316296471711700,6.028711669921875,-0.02299964427947998,1.0822577476501465,-0.5140218734741211
1761316296490634200,6.04763427734375,0.040122270584106445,0.9607901573181152,-0.023473739624023438
1761316296509556700,6.066556640625,0.10975313186645508,0.7219719886779785,0.06696319580078125
1761316296528479200,6.085479248046875,0.44579291343688965,0.4697303771972656,-0.02057647705078125
1761316296547401500,6.1044013671875,0.6612498760223389,0.39049291610717773,-0.027399539947509766
1761316296566324000,6.123323974609375,0.9759563207626343,0.595341682434082,-0.1585240364074707
1761316296585246500,6.14224658203125,0.9264347553253174,0.9369363784790039,-0.6589837074279785
1761316296604169000,6.1611689453125,0.5814883708953857,1.425370216369629,-1.208850383758545
1761316296623091500,6.180091552734375,0.43344730138778687,1.5854787826538086,-1.6061959266662598
1761316296642014000,6.199013916015625,0.938712477684021,1.4118475914001465,-1.9078660011291504
1761316296660936200,6.217936279296875,1.4262590408325195,1.0267667770385742,-2.1929941177368164
1761316296679858700,6.236858642578125,1.184387445449829,0.7549185752868652,-2.511683464050293
1761316296698781200,6.25578125,0.8625229001045227,0.4997882843017578,-2.4170432090759277
1761316296717703700,6.27470361328125,0.667418360710144,0.30422115325927734,-1.8537659645080566
1761316296736626200,6.293626220703125,1.3880925178527832,-0.35848236083984375,-1.3339967727661133
1761316296755548400,6.31254833984375,1.7495672702789307,-0.62005615234375,-2.2689762115478516
1761316296774471000,6.331470947265625,1.5297083854675293,-0.5585517883300781,-4.086325645446777
1761316296793393400,6.350393310546875,0.9585455656051636,-0.14147186279296875,-4.761636734008789
1761316296812316000,6.36931591796875,-0.9159805178642273,-0.11835670471191406,-4.312022686004639
1761316296831238400,6.38823828125,0.9635331630706787,-1.5675554275512695,-4.333014488220215
1761316296850160600,6.40716064453125,2.6856894493103027,-3.8501148223876953,-0.977078914642334
1761316296869083100,6.426083251953125,1.9994584321975708,-4.458789825439453,1.4678378105163574
1761316296888005600,6.445005615234375,0.46338802576065063,-3.8332462310791016,2.524897336959839
1761316296906928000,6.46392822265625,-1.095931053161621,-3.220426559448242,2.281334400177002
1761316296925850600,6.4828505859375,-1.0876424312591553,-2.405649185180664,1.938438892364502
1761316296944773000,6.501773193359375,-0.31865692138671875,-0.4956789016723633,1.3090543746948242
1761316296963695600,6.520695556640625,0.5558720827102661,-0.3934755325317383,-0.507148265838623
1761316296982617900,6.539617919921875,0.21653485298156738,-1.545741081237793,-0.7902512550354004
1761316297001540400,6.558540283203125,-0.6509850025177002,-1.7860608100891113,-0.5209465026855469
1761316297020462800,6.577462890625,-1.492997169494629,-1.4248270988464355,0.3450279235839844
1761316297039385300,6.59638525390625,-1.6185511350631714,-1.1079049110412598,1.0162882804870605
1761316297058307800,6.615307861328125,-2.3568458557128906,-0.9746499061584473,1.3453035354614258
1761316297077230000,6.63422998046875,-2.060415267944336,-1.188249111175537,1.7316632270812988
1761316297096152600,6.653152587890625,-1.6350573301315308,-1.2057929039001465,1.6864652633666992
1761316297115075000,6.672074951171875,-1.445862054824829,-0.812079906463623,1.8343734741210938
1761316297133997600,6.69099755859375,-1.7001454830169678,-0.3383903503417969,2.259122371673584
1761316297152920000,6.709920166015625,-2.04752254486084,-0.07772111892700195,2.8282151222229004
1761316297171842300,6.72884228515625,-2.0602331161499023,0.28099584579467773,3.2414169311523438
1761316297190764800,6.747764892578125,-1.9799013137817383,0.853179931640625,3.440904378890991
1761316297209687300,6.766687255859375,-1.5887479782104492,1.276432991027832,3.314836263656616
1761316297228609800,6.78560986328125,-0.8858489990234375,1.2506470680236816,2.900752544403076
1761316297247532300,6.8045322265625,-0.5038433074951172,1.14298677444458,2.1913819313049316
1761316297266454800,6.823454833984375,-0.03908061981201172,1.34895658493042,1.3913030624389648
1761316297285377300,6.842377197265625,0.3093390464782715,1.9182672500610352,0.5637569427490234
1761316297304299500,6.861299560546875,0.8361325263977051,2.4702091217041016,-0.22080087661743164
1761316297323222000,6.880221923828125,1.7676644325256348,2.5407612323760986,-0.843963623046875
1761316297342144500,6.89914453125,2.5889039039611816,2.108616352081299,-1.8560867309570312
1761316297361067000,6.91806689453125,2.755866527557373,1.270017147064209,-2.8113608360290527
1761316297379989500,6.936989501953125,2.737762928009033,0.5021610260009766,-2.513134479522705
1761316297398911700,6.955911865234375,2.7367005348205566,0.2790207862854004,-1.4691972732543945
1761316297417834200,6.974834228515625,2.2886714935302734,1.4164834022521973,-0.11950492858886719
1761316297436756700,6.9937568359375,1.8689632415771484,3.0537314414978027,1.4720511436462402
1761316297455679200,7.01267919921875,0.8700008392333984,4.128207206726074,2.7718758583068848
1761316297474601700,7.031601806640625,0.027038097381591797,3.124713182449341,3.788605213165283
1761316297493524200,7.050524169921875,-0.2706174850463867,-2.84981107711792,1.7327675819396973
1761316297512446500,7.069446533203125,5.010009288787842,-10.79619312286377,-1.9268288612365723
1761316297531369000,7.088368896484375,7.044375896453857,-17.046606063842773,-5.350245475769043
1761316297550291500,7.10729150390625,-3.4545326232910156,-7.043258190155029,-2.8035402297973633
1761316297569214000,7.1262138671875,-4.858502388000488,1.2756333351135254,5.536722183227539
1761316297588136400,7.145136474609375,-4.515167236328125,2.9448580741882324,8.471037864685059
1761316297607058700,7.16405859375,-7.6621246337890625,4.25703239440918,5.682262420654297
1761316297625981200,7.182981201171875,-8.112127304077148,0.7036776542663574,1.2011699676513672
1761316297644903700,7.201903564453125,-6.7762064933776855,-2.980834484100342,-2.0864181518554688
1761316297663826200,7.220826171875,-3.4502902030944824,-3.5163211822509766,-3.05269718170166
1761316297682748700,7.239748779296875,-1.2131147384643555,-2.459249973297119,-1.443406581878662
1761316297701671200,7.258671142578125,1.046363115310669,-1.0854759216308594,0.8678350448608398
1761316297720593400,7.277593505859375,0.46147704124450684,-0.3346824645996094,1.8327584266662598
1761316297739516000,7.296515869140625,0.18426501750946045,0.17612600326538086,1.9000048637390137
1761316297758438400,7.3154384765625,-0.3471682071685791,0.5601496696472168,0.7022490501403809
1761316297777361000,7.33436083984375,-1.4250411987304688,0.6279535293579102,-0.1512746810913086
1761316297796283400,7.353283447265625,-1.9931799173355103,0.6172633171081543,-0.7873744964599609
1761316297815206000,7.372205810546875,-2.0107622146606445,0.593010425567627,-0.5500283241271973
1761316297834128100,7.391128173828125,-1.4118249416351318,0.5213222503662109,-0.3624458312988281
1761316297853050600,7.410050537109375,-0.4442952275276184,0.5731182098388672,-0.6050372123718262
1761316297871973000,7.42897314453125,0.09561067819595337,0.4040226936340332,-0.7460427284240723
1761316297890895600,7.4478955078125,0.5079143643379211,0.6328964233398438,-0.6957864761352539
1761316297909818000,7.466818115234375,0.4537056088447571,0.5520286560058594,-0.48485326766967773
1761316297928740600,7.48574072265625,0.24432581663131714,0.5805497169494629,-0.4631342887878418
1761316297947662800,7.504662841796875,0.19438576698303223,0.7439594268798828,-0.6315517425537109
1761316297966585300,7.52358544921875,0.15337273478507996,1.0460915565490723,-0.886467456817627
1761316297985507800,7.5425078125,0.3681011199951172,1.157022476196289,-1.1924829483032227
1761316298004430300,7.561430419921875,0.6832749247550964,1.2235493659973145,-1.3372430801391602
1761316298023352800,7.580352783203125,1.2543596029281616,1.299713134765625,-1.4321670532226562
1761316298042275000,7.599275146484375,1.575911283493042,1.5109930038452148,-1.6433959007263184
1761316298061197600,7.618197509765625,1.2456673383712769,1.9053850173950195,-1.7086129188537598
1761316298080120000,7.6371201171875,0.9760769605636597,1.7639274597167969,-1.7639365196228027
1761316298099042600,7.65604248046875,0.9432097673416138,1.1665258407592773,-2.093001365661621
1761316298117965000,7.674965087890625,0.9619139432907104,0.42619991302490234,-2.3674941062927246
1761316298136887600,7.693887451171875,0.9858291149139404,-0.21676254272460938,-2.389346122741699
1761316298155810000,7.71281005859375,1.2569961547851562,-0.9948883056640625,-2.4331741333007812
1761316298174732300,7.731732177734375,1.4487924575805664,-1.3302268981933594,-2.584442615509033
1761316298193654800,7.75065478515625,1.402593731880188,-1.0295896530151367,-3.293348789215088
1761316298212577300,7.769577392578125,1.4378266334533691,-1.0206375122070312,-4.0811543464660645
1761316298231499800,7.788499755859375,0.3249977231025696,-1.1721534729003906,-4.0771636962890625
1761316298250422300,7.80742236328125,0.01140180230140686,-0.7282819747924805,-3.420656681060791
1761316298269344500,7.826344482421875,1.6589412689208984,-1.7792901992797852,-2.1851820945739746
1761316298288267000,7.84526708984375,1.2654786109924316,-2.600597381591797,-0.18663406372070312
1761316298307189500,7.864189453125,-0.11451223492622375,-3.2800397872924805,1.1883292198181152
1761316298326112000,7.883112060546875,-0.8106033205986023,-3.771847724914551,1.7819037437438965
1761316298345034500,7.902034423828125,-1.2754970788955688,-4.056967258453369,1.7646188735961914
1761316298363956700,7.920956787109375,-0.7890601754188538,-1.9822630882263184,2.276484727859497
1761316298382879200,7.939879150390625,0.24354267120361328,-0.7545166015625,0.26729536056518555
1761316298401801700,7.9588017578125,0.32610440254211426,-0.7222867012023926,-1.4516844749450684
1761316298420724200,7.97772412109375,-1.0254417657852173,-0.598905086517334,-1.4271416664123535
1761316298439646700,7.996646728515625,-2.2165110111236572,0.11133813858032227,-0.8290209770202637
1761316298458569200,8.0155693359375,-3.0323305130004883,0.4767112731933594,-0.08863449096679688
1761316298477491700,8.03449169921875,-3.016573429107666,0.23746585845947266,0.9195051193237305
1761316298496414000,8.0534140625,-2.7863078117370605,-0.4184389114379883,1.6989665031433105
1761316298515336400,8.07233642578125,-2.093862533569336,-1.5356988906860352,2.5557637214660645
1761316298534259000,8.091259033203125,-1.4522802829742432,-1.8969526290893555,3.0607426166534424
1761316298553181400,8.110181396484375,-1.3610973358154297,-1.6466302871704102,3.3505051136016846
1761316298572104000,8.12910400390625,-2.471052646636963,-0.8929247856140137,3.1329989433288574
1761316298591026200,8.148026123046876,-2.904343605041504,-0.08395576477050781,3.2269673347473145
1761316298609948700,8.16694873046875,-2.5963563919067383,0.762235164642334,3.621211528778076
1761316298628871200,8.18587109375,-1.9679005146026611,1.359323501586914,3.875159502029419
1761316298647793700,8.204793701171875,-1.4432106018066406,1.4447364807128906,3.633664131164551
1761316298666716200,8.223716064453125,-1.101334571838379,1.4752559661865234,3.0758514404296875
1761316298685638700,8.242638671875,-1.013901948928833,1.5946135520935059,2.3174545764923096
1761316298704561200,8.26156103515625,-0.666351318359375,2.030758857727051,1.6064419746398926
1761316298723483400,8.2804833984375,-0.013407230377197266,2.32839035987854,0.8827414512634277
1761316298742406000,8.299406005859375,1.0374436378479004,2.2512283325195312,-0.17160987854003906
1761316298761328400,8.318328369140625,2.323011875152588,1.6251797676086426,-1.5651350021362305
1761316298780251000,8.3372509765625,3.1957755088806152,0.5610466003417969,-3.257328510284424
1761316298799173400,8.35617333984375,3.7348098754882812,-0.5851163864135742,-4.3788557052612305
1761316298818095900,8.375095947265624,3.716426372528076,-1.2995386123657227,-3.6153621673583984
1761316298837018000,8.39401806640625,3.803408622741699,-0.7091612815856934,-1.7295575141906738
1761316298855940600,8.412940673828125,3.213430881500244,1.2387523651123047,0.43254947662353516
1761316298874863000,8.431863037109375,2.367941379547119,3.184884786605835,1.4484310150146484
1761316298893785600,8.45078564453125,1.2749786376953125,4.5325164794921875,1.1903576850891113
1761316298912708000,8.4697080078125,-0.13843822479248047,2.46633243560791,-0.3995027542114258
1761316298931630300,8.48863037109375,0.5679821968078613,-4.504917621612549,-2.7927398681640625
1761316298950552800,8.507552734375,1.9608476161956787,-10.238273620605469,-3.752432346343994
1761316298969475300,8.526475341796875,0.4328036308288574,-8.188161849975586,-2.593057155609131
1761316298988397800,8.545397705078125,-3.435345411300659,-3.6732873916625977,2.2844929695129395
1761316299007320300,8.5643203125,-1.9144706726074219,-0.49213600158691406,8.397378921508789
1761316299026242800,8.583242919921876,-2.712205410003662,0.8695259094238281,9.191879272460938
1761316299045165300,8.602165283203124,-7.721441268920898,1.7918853759765625,6.498537540435791
1761316299064087600,8.621087646484375,-6.96470308303833,0.6388053894042969,2.5279550552368164
1761316299083010000,8.640010009765625,-6.163620948791504,-1.563173770904541,-2.0511393547058105
1761316299101932500,8.6589326171875,-3.3049521446228027,-2.5742721557617188,-2.5932207107543945
1761316299120855000,8.67785498046875,-0.5700663328170776,-3.149306297302246,-1.45127534866333
1761316299139777500,8.696777587890624,2.2047548294067383,-1.99261474609375,0.1406230926513672
1761316299158699800,8.71569970703125,0.08392059803009033,-0.3246746063232422,0.09563779830932617
1761316299177622300,8.734622314453125,-0.7292932868003845,0.7648053169250488,-0.10196924209594727
1761316299196544800,8.753544677734375,-1.2610794305801392,1.2598471641540527,-0.11003971099853516
1761316299215467300,8.77246728515625,-1.4810291528701782,1.0638031959533691,-0.036342620849609375
1761316299234389800,8.7913896484375,-1.7263009548187256,0.5959482192993164,-0.6846203804016113
1761316299253312300,8.810312255859374,-1.9487431049346924,-0.2948780059814453,-0.982062816619873
1761316299272234500,8.829234375,-1.0692741870880127,-0.43422698974609375,-0.4755401611328125
1761316299291157000,8.848156982421875,-0.30337512493133545,0.1385049819946289,-0.38250255584716797
1761316299310079500,8.86707958984375,0.39014893770217896,0.43201684951782227,-0.1770620346069336
1761316299329002000,8.886001953125,0.3227590322494507,0.5861639976501465,-0.330049991607666
1761316299347924500,8.904924560546876,0.14207172393798828,0.6950030326843262,-0.027029991149902344
1761316299366847000,8.923846923828124,0.2846534848213196,0.5737228393554688,0.4949789047241211
1761316299385769200,8.942769287109375,0.42424556612968445,0.7327103614807129,0.6100602149963379
1761316299404691700,8.961691650390625,0.4186932444572449,0.9366974830627441,0.20352792739868164
1761316299423614200,8.9806142578125,0.5606147646903992,1.0923991203308105,-0.6007323265075684
1761316299442536700,8.99953662109375,0.8210847973823547,1.5391817092895508,-1.0987863540649414
1761316299461459200,9.018459228515624,0.9767491817474365,1.902773380279541,-1.4204134941101074
1761316299480381700,9.037381591796875,1.1429862976074219,2.030247211456299,-2.0319957733154297
1761316299499304000,9.056303955078125,0.8609105944633484,1.4642109870910645,-2.7047066688537598
1761316299518226400,9.075226318359375,0.4605124592781067,0.7218265533447266,-3.0932397842407227
1761316299537149000,9.09414892578125,0.48415607213974,0.22251033782958984,-3.054208278656006
1761316299556071400,9.113071533203126,0.07104790210723877,-0.23552608489990234,-3.073892593383789
1761316299574994000,9.131993896484374,-0.030185699462890625,-1.464944839477539,-3.504875659942627
1761316299593916400,9.15091650390625,-0.1435086727142334,-3.112405776977539,-4.113990306854248
1761316299612839000,9.1698388671875,-0.36567163467407227,-3.307711601257324,-4.260875701904297
1761316299631761200,9.18876123046875,1.3073111772537231,-3.506216049194336,-3.173856258392334
1761316299650683600,9.20768359375,4.247355937957764,-4.021734237670898,-1.747642993927002
1761316299669606100,9.226606201171874,4.228005409240723,-3.2533836364746094,-0.6321792602539062
1761316299688528600,9.245528564453124,1.6929324865341187,-1.6890602111816406,-1.5116686820983887
1761316299707451100,9.264451171875,0.7933741807937622,-0.23986434936523438,-2.1809468269348145
1761316299726373600,9.28337353515625,-0.09814049303531647,0.4766721725463867,-1.7350358963012695
1761316299745296000,9.3022958984375,-0.5372204780578613,1.0023770332336426,-1.8388080596923828
1761316299764218400,9.32121826171875,-1.3410223722457886,-0.1381216049194336,-0.8208136558532715
1761316299783140900,9.340140869140624,-0.11285871267318726,-1.2886409759521484,-0.1358504295349121
1761316299802063400,9.3590634765625,0.8019640445709229,-2.075751304626465,0.8269162178039551
1761316299820985900,9.37798583984375,1.3225849866867065,-2.9711012840270996,0.9428486824035645
1761316299839908000,9.396908203125,1.1888279914855957,-2.970451831817627,1.2432184219360352
1761316299858830600,9.41583056640625,0.36668241024017334,-2.2708282470703125,2.165316581726074
1761316299877753000,9.434753173828126,-0.8125180006027222,-1.33060884475708,2.0317459106445312
1761316299896675600,9.453675537109374,-1.5539159774780273,-0.8163890838623047,1.6301984786987305
1761316299915598000,9.47259814453125,-2.097311019897461,-0.3349609375,1.0720386505126953
1761316299934520600,9.4915205078125,-2.2464818954467773,0.06934642791748047,0.8046340942382812
1761316299953443000,9.510443115234375,-2.0437183380126953,0.3844609260559082,1.1874065399169922
1761316299972365300,9.529365234375,-2.235137939453125,-0.0486602783203125,1.9356136322021484
1761316299991287800,9.548287841796874,-1.511439561843872,-0.03271198272705078,3.072977066040039
1761316300010210300,9.567210205078124,-1.6629748344421387,0.06890678405761719,3.9161510467529297
1761316300029132800,9.5861328125,-2.534302234649658,0.18683671951293945,4.1117753982543945
1761316300048055300,9.60505517578125,-3.216702461242676,-0.06728363037109375,3.8914954662323
1761316300066977800,9.623977783203125,-3.235286235809326,0.06400299072265625,3.538449287414551
1761316300085900000,9.642900146484376,-2.886561632156372,0.48074865341186523,3.204129934310913
1761316300104822500,9.661822509765624,-2.2867636680603027,1.1150636672973633,2.96262788772583
1761316300123745000,9.6807451171875,-1.5105915069580078,1.7341375350952148,2.613956928253174
1761316300142667500,9.69966748046875,-0.7169194221496582,2.442986488342285,2.0479817390441895
1761316300161590000,9.718590087890625,0.3140902519226074,2.867151975631714,0.8929333686828613
1761316300180512300,9.73751220703125,1.5460991859436035,2.8199689388275146,-0.6203207969665527
1761316300199434800,9.756434814453126,2.420954704284668,2.3482911586761475,-1.5584230422973633
1761316300218357200,9.775357177734374,3.0866498947143555,1.8836853504180908,-1.9852471351623535
1761316300237279700,9.79427978515625,2.8927345275878906,1.2311134338378906,-2.1092777252197266
1761316300256202200,9.8132021484375,3.072765827178955,0.5614619255065918,-1.3727936744689941
1761316300275124700,9.832124755859375,3.258089065551758,0.9184403419494629,0.04532814025878906
1761316300294047200,9.851047119140626,3.7951302528381348,1.3775224685668945,1.6072921752929688
1761316300312969500,9.869969482421874,3.5183424949645996,-0.9228782653808594,1.921992301940918
1761316300331892000,9.88889208984375,2.5643186569213867,-8.00320816040039,-2.781928062438965
1761316300350814500,9.907814453125,1.1856365203857422,-13.02213191986084,-4.030694007873535
1761316300369737000,9.926737060546875,0.2407994270324707,-5.563207149505615,-1.3278131484985352
1761316300388659500,9.945659423828126,-0.8976874351501465,-0.5287842750549316,4.887812614440918
1761316300407582000,9.96458203125,-2.4523677825927734,1.186203956604004,7.111673355102539
1761316300426504200,9.983504150390624,-6.428374767303467,2.3539698123931885,4.540212154388428
1761316300445426700,10.0024267578125,-8.708504676818848,1.1335444450378418,0.7392354011535645
1761316300464349200,10.02134912109375,-5.690713405609131,-1.6726336479187012,-0.9419369697570801
1761316300483271700,10.040271728515625,0.4691026210784912,-3.39829158782959,-0.9687132835388184
1761316300502194200,10.059194091796876,0.5807335376739502,-3.9911632537841797,-0.4303874969482422
1761316300521116700,10.07811669921875,-1.2877964973449707,-2.1644935607910156,0.6353273391723633
1761316300540039200,10.0970390625,-1.9872159957885742,-0.11353874206542969,1.5070810317993164
1761316300558961400,10.11596142578125,-1.4066427946090698,1.411649227142334,1.0251154899597168
1761316300577884000,10.1348837890625,-1.5560762882232666,1.794206142425537,0.45238590240478516
1761316300596806400,10.153806396484375,-1.7457023859024048,1.5687155723571777,-0.4960513114929199
1761316300615729000,10.17272900390625,-1.3634605407714844,1.3392291069030762,-1.4215140342712402
1761316300634651400,10.1916513671875,-0.7746391296386719,0.8457522392272949,-1.8305182456970215
1761316300653573600,10.21057373046875,-0.6964504718780518,0.4717683792114258,-1.1470894813537598
1761316300672496000,10.22949609375,-0.43485450744628906,0.17743682861328125,-0.33524560928344727
1761316300691418600,10.248418701171875,-0.5889583826065063,0.1084585189819336,0.11874675750732422
1761316300710341000,10.267341064453126,-0.6444581151008606,0.212890625,0.3473062515258789
1761316300729263600,10.286263671875,-0.5638141632080078,0.3042898178100586,0.20896434783935547
1761316300748186000,10.30518603515625,-0.11947977542877197,0.3757801055908203,-0.09820270538330078
1761316300767108400,10.3241083984375,-0.25387632846832275,0.3696293830871582,-0.012790679931640625
1761316300786030800,10.34303076171875,0.02201610803604126,0.3235459327697754,-0.024215221405029297
1761316300804953300,10.361953369140625,0.02110236883163452,0.5970005989074707,0.09426069259643555
1761316300823875800,10.380875732421876,0.20608943700790405,1.0019850730895996,0.10384082794189453
1761316300842798300,10.39979833984375,0.37537211179733276,1.2584171295166016,-0.08639383316040039
1761316300861720800,10.418720947265625,0.7193437218666077,1.210155963897705,-0.1338953971862793
1761316300880643300,10.437643310546875,1.1199027299880981,1.0758147239685059,-0.3354802131652832
1761316300899565600,10.456565673828125,1.5377699136734009,0.9506955146789551,-1.0221924781799316
1761316300918488000,10.475488037109375,1.617187738418579,1.0088930130004883,-1.8021903038024902
1761316300937410600,10.49441064453125,1.4146404266357422,1.1608281135559082,-2.054089069366455
1761316300956333000,10.5133330078125,0.9397522211074829,0.9136171340942383,-2.341634750366211
1761316300975255600,10.532255615234375,0.7854284644126892,0.4941720962524414,-2.4737892150878906
1761316300994177800,10.551177734375,0.632561445236206,-0.05832862854003906,-2.4415454864501953
1761316301013100300,10.570100341796875,0.7172462344169617,-0.5850582122802734,-2.49296236038208
1761316301032022800,10.589022705078126,0.9884989261627197,-0.8139810562133789,-2.629131317138672
1761316301050945300,10.6079453125,0.5932450890541077,-1.5632991790771484,-3.9969983100891113
1761316301069867800,10.62686767578125,-0.10145390033721924,-2.1414613723754883,-5.510061264038086
1761316301088790300,10.645790283203125,0.7072354555130005,-2.1202917098999023,-5.546982765197754
1761316301107712500,10.66471240234375,0.8467278480529785,-2.899433135986328,-3.9272193908691406
1761316301126635000,10.683635009765625,3.2947986125946045,-3.1805686950683594,-1.0523457527160645
1761316301145557500,10.7025576171875,2.737295389175415,-2.9350385665893555,0.5625529289245605
1761316301164480000,10.72147998046875,0.4446558952331543,-1.7870397567749023,0.10898971557617188
1761316301183402500,10.740402587890625,-0.9366908073425293,-1.0765914916992188,-0.09102249145507812
1761316301202325000,10.759324951171875,-1.4773176908493042,-1.6316795349121094,0.4394493103027344
1761316301221247500,10.77824755859375,-1.5926405191421509,-1.0077533721923828,0.6566658020019531
1761316301240169700,10.797169677734376,-0.016187548637390137,-0.23167943954467773,0.042360782623291016
1761316301259092200,10.81609228515625,1.1471648216247559,-0.7917804718017578,-0.6842994689941406
1761316301278014700,10.8350146484375,0.2679295539855957,-1.2315168380737305,-0.26244592666625977
1761316301296937200,10.853937255859375,-0.9910784959793091,-0.7240180969238281,0.41262340545654297
1761316301315859700,10.872859619140625,-1.1276954412460327,-0.38373470306396484,1.3309659957885742
1761316301334782200,10.8917822265625,-1.6959114074707031,-0.9187583923339844,1.188000202178955
1761316301353704400,10.910704345703126,-2.481116533279419,-1.009420394897461,1.8174171447753906
1761316301372627000,10.929626953125,-2.287846088409424,-1.3595690727233887,2.1057591438293457
1761316301391549400,10.948549560546875,-2.140714406967163,-1.2183847427368164,2.007183074951172
1761316301410472000,10.967471923828125,-2.2547607421875,-0.8368864059448242,2.158937931060791
1761316301429394400,10.98639453125,-2.8111369609832764,-0.048604488372802734,2.6075057983398438
1761316301448317000,11.00531689453125,-2.6431400775909424,0.7200479507446289,2.8064029216766357
1761316301467239400,11.024239501953126,-2.763484477996826,1.1257638931274414,2.8853507041931152
1761316301486161700,11.04316162109375,-2.8168203830718994,1.4054603576660156,3.0421032905578613
1761316301505084200,11.062084228515625,-2.5867574214935303,1.0165023803710938,2.850468397140503
1761316301524006700,11.081006591796875,-1.943277359008789,0.8345847129821777,2.6320273876190186
1761316301542929200,11.09992919921875,-1.600038766860962,1.0985641479492188,2.507460117340088
1761316301561851600,11.1188515625,-1.2880182266235352,1.897097110748291,2.2408194541931152
1761316301580774000,11.13777392578125,-0.7928261756896973,2.463214635848999,1.6098175048828125
1761316301599696400,11.1566962890625,0.3347454071044922,2.546440362930298,0.7038226127624512
1761316301618619000,11.175618896484375,1.3826961517333984,1.9595036506652832,-0.44806671142578125
1761316301637541400,11.194541259765625,2.378934860229492,0.9774270057678223,-1.4588193893432617
1761316301656464000,11.2134638671875,3.2840652465820312,0.21585464477539062,-2.056082248687744
1761316301675386400,11.232386474609376,3.9858837127685547,-0.45576000213623047,-2.562873363494873
1761316301694308600,11.25130859375,4.246586322784424,-0.6357593536376953,-2.1000304222106934
1761316301713231000,11.270231201171875,3.7189173698425293,0.6883282661437988,-1.058725357055664
1761316301732153600,11.289153564453125,3.5145769119262695,2.363868474960327,-0.843595027923584
1761316301751076000,11.308076171875,3.1204285621643066,1.3996353149414062,-1.5851306915283203
1761316301769998600,11.32699853515625,3.1645584106445312,-3.1608409881591797,-4.184929370880127
1761316301788921000,11.345921142578124,1.954953670501709,-7.2747087478637695,-6.102010250091553
1761316301807843600,11.364843505859374,-4.861968994140625,-4.241400718688965,-3.7179126739501953
1761316301826765800,11.383765869140625,-5.054837703704834,-1.1452608108520508,4.462087631225586
1761316301845688300,11.402688232421875,0.6288628578186035,-0.5973396301269531,10.41040325164795
1761316301864610800,11.42161083984375,-2.2357594966888428,-0.4570150375366211,8.471481323242188
1761316301883533300,11.440533203125,-5.561833381652832,-1.449693202972412,4.017422676086426
1761316301902455800,11.459455810546874,-5.5304083824157715,-2.8644051551818848,0.5652666091918945
1761316301921378300,11.47837841796875,-1.3861650228500366,-3.297995090484619,-1.9791350364685059
1761316301940300500,11.497300537109375,0.17160534858703613,-1.9544658660888672,-2.2411227226257324
1761316301959223000,11.51622314453125,-1.1602420806884766,0.4248957633972168,-0.7994527816772461
1761316301978145500,11.5351455078125,-1.1093369722366333,1.2781505584716797,1.0089077949523926
1761316301997068000,11.554068115234376,-1.7324572801589966,1.038961410522461,0.8607568740844727
1761316302015990500,11.572990478515624,-1.761275053024292,0.6115312576293945,0.6149845123291016
1761316302034913000,11.5919130859375,-1.8126174211502075,0.4806218147277832,0.13809633255004883
1761316302053835500,11.61083544921875,-1.1928222179412842,0.31580495834350586,-0.09463739395141602
1761316302072757800,11.6297578125,-0.7280156016349792,0.08954954147338867,0.040004730224609375
1761316302091680300,11.64868017578125,-0.5757075548171997,-0.09697198867797852,0.2772846221923828
1761316302110602800,11.667602783203124,-0.5442280173301697,-0.25241994857788086,0.578951358795166
1761316302129525200,11.686525146484374,-0.6438881754875183,-0.24010229110717773,0.28534460067749023
1761316302148447700,11.70544775390625,-0.9068423509597778,-0.16217470169067383,0.3334693908691406
1761316302167370200,11.724370361328125,-1.228591799736023,0.12550926208496094,0.16965007781982422
1761316302186292500,11.74329248046875,-1.2734813690185547,0.3804788589477539,0.11049032211303711
1761316302205215000,11.762215087890626,-1.0362205505371094,0.3791985511779785,0.5279860496520996
1761316302224137500,11.781137451171874,-0.5539484024047852,0.4252805709838867,0.4537081718444824
1761316302243060000,11.80006005859375,-0.15284109115600586,0.2745857238769531,0.5249390602111816
1761316302261982500,11.818982421875,-0.02391710877418518,0.49599504470825195,0.23169326782226562
1761316302280904700,11.83790478515625,0.23077695071697235,0.6705141067504883,-0.09107351303100586
1761316302299827200,11.8568271484375,0.6547477841377258,0.5855998992919922,-0.5025806427001953
1761316302318749700,11.875749755859376,0.9007650017738342,0.36378002166748047,-0.9934463500976562
1761316302337672200,11.894672119140624,1.134509563446045,0.29714012145996094,-1.5189762115478516
1761316302356594700,11.9135947265625,1.5383377075195312,0.4565591812133789,-2.125349998474121
1761316302375517200,11.93251708984375,2.0975568294525146,0.5743522644042969,-2.821763038635254
1761316302394439700,11.951439697265625,2.0789237022399902,0.43003082275390625,-3.154099464416504
1761316302413362000,11.97036181640625,1.7492341995239258,0.053404808044433594,-3.2135167121887207
1761316302432284400,11.989284423828124,1.3022029399871826,-0.6345462799072266,-2.7625675201416016
1761316302451207000,12.00820703125,0.882785975933075,-1.1711959838867188,-2.3906335830688477
1761316302470129400,12.02712939453125,0.2253066897392273,-1.5858993530273438,-3.7916464805603027
1761316302489052000,12.046052001953125,-1.0681676864624023,-1.5165681838989258,-5.834136962890625
1761316302507974400,12.064974365234375,-0.7293812036514282,-1.9295244216918945,-6.404801368713379
1761316302526896600,12.083896728515626,0.5205082893371582,-3.826631546020508,-4.352384090423584
1761316302545819100,12.102819091796874,2.6327943801879883,-3.1032543182373047,-0.33335065841674805
1761316302564741600,12.12174169921875,1.9509785175323486,-2.2539901733398438,1.2181642055511475
1761316302583664000,12.1406640625,0.7412601709365845,-1.0946216583251953,1.3994131088256836
1761316302602586600,12.159586669921875,-0.04805901646614075,-0.05311012268066406,0.7459454536437988
1761316302621509000,12.178509033203126,-0.2285986840724945,-0.035117149353027344,-0.3673896789550781
1761316302640431600,12.197431640625,-0.7447897791862488,-0.020461082458496094,-0.19684457778930664
1761316302659353900,12.216353759765624,-1.486699104309082,0.29751014709472656,0.5371279716491699
1761316302678276400,12.2352763671875,-1.0184943675994873,-0.05282402038574219,1.1615304946899414
1761316302697198800,12.25419873046875,-0.8417971134185791,-0.5826296806335449,1.3781838417053223
1761316302716121300,12.273121337890625,-1.361449122428894,-0.5793972015380859,1.532182216644287
1761316302735043800,12.2920439453125,-1.8511931896209717,-0.1815633773803711,1.6076164245605469
1761316302753966300,12.31096630859375,-2.4503512382507324,0.20947980880737305,1.9703826904296875
1761316302772888600,12.329888671875,-2.262486219406128,0.05149221420288086,1.9214787483215332
1761316302791811000,12.34881103515625,-2.2291533946990967,-0.424771785736084,1.7409038543701172
1761316302810733600,12.367733642578125,-2.360776662826538,-0.7890763282775879,1.5618796348571777
1761316302829656000,12.386656005859376,-1.981428861618042,-0.8644418716430664,1.4920058250427246
1761316302848578600,12.40557861328125,-1.8014841079711914,-0.7699403762817383,1.516538143157959
1761316302867500800,12.424500732421874,-1.4761528968811035,-0.8262090682983398,1.320237159729004
1761316302886423300,12.44342333984375,-1.2991337776184082,-1.053238868713379,1.1555285453796387
1761316302905345800,12.462345703125,-0.5301251411437988,0.17829227447509766,2.084537982940674
1761316302924268300,12.481268310546875,-1.0261728763580322,-0.24308109283447266,1.2176432609558105
1761316302943190800,12.500190673828126,-0.7392959594726562,-0.6859936714172363,1.0509834289550781
1761316302962113300,12.51911328125,-0.5120851993560791,-0.6948003768920898,0.8961124420166016
1761316302981035800,12.538035888671875,-0.558312177658081,-0.5668153762817383,0.9781122207641602
1761316302999958000,12.5569580078125,-0.5182626247406006,-0.023894309997558594,1.1053166389465332
1761316303018880500,12.575880615234375,-0.16507911682128906,0.35953807830810547,1.1959962844848633
1761316303037803000,12.594802978515625,0.02193737030029297,0.4536166191101074,1.0074429512023926
1761316303056725500,12.6137255859375,-0.20243263244628906,0.3681621551513672,0.9798145294189453
1761316303075648000,12.63264794921875,-0.3618466854095459,0.32791996002197266,1.0716338157653809
1761316303094570500,12.651570556640625,-0.27895188331604004,-0.0055065155029296875,0.9572305679321289
1761316303113492700,12.67049267578125,-0.31360602378845215,0.9956779479980469,0.8275356292724609
1761316303132415200,12.689415283203125,0.1429915428161621,0.38884401321411133,0.4071974754333496
1761316303151337700,12.708337646484376,0.38489770889282227,1.2983064651489258,0.3867020606994629
1761316303170260200,12.72726025390625,1.131704330444336,0.9595680236816406,0.09511423110961914
1761316303189182700,12.7461826171875,1.485962152481079,0.6748299598693848,0.07052183151245117
1761316303208105200,12.765105224609375,1.4272658824920654,0.9006800651550293,-0.09223699569702148
1761316303227027700,12.78402783203125,0.8903653621673584,1.6435198783874512,0.35745906829833984
1761316303245950000,12.802949951171875,-0.03351449966430664,2.068234920501709,1.4099087715148926
1761316303264872400,12.82187255859375,-0.3946712017059326,1.9755301475524902,2.1452136039733887
1761316303283795000,12.840794921875,-0.13239192962646484,1.2561311721801758,1.8545899391174316
1761316303302717400,12.859717529296875,2.898615837097168,-2.8289313316345215,-1.661055564880371
1761316303321640000,12.878639892578125,2.4193904399871826,-12.396971702575684,-9.827085494995117
1761316303340562400,12.8975625,-4.513108730316162,-8.598487854003906,-6.648360729217529
1761316303359484700,12.916484619140626,-4.833492279052734,1.6048073768615723,3.0846080780029297
1761316303378407200,12.9354072265625,-0.6085143089294434,3.7227134704589844,9.02759838104248
1761316303397329700,12.95432958984375,-3.050870418548584,3.6174142360687256,6.563262939453125
1761316303416252200,12.973252197265625,-4.266712665557861,0.7880902290344238,-0.7314643859863281
1761316303435174700,12.992174560546875,-2.304898977279663,-2.650369167327881,-4.091660499572754
1761316303454097000,13.011096923828125,-0.0842580795288086,-4.233373165130615,-1.2251272201538086
1761316303473019400,13.030019287109376,1.3995351791381836,-3.0264668464660645,2.511258125305176
1761316303491942000,13.04894189453125,0.2766075134277344,-0.7597308158874512,1.8366303443908691
1761316303510864400,13.067864501953125,-1.4833872318267822,0.8961801528930664,-0.028866291046142578
1761316303529787000,13.086786865234375,-2.4845478534698486,1.1691017150878906,-1.021756649017334
1761316303548709400,13.10570947265625,-1.8712058067321777,0.37859630584716797,-0.6377148628234863
1761316303567632000,13.1246318359375,-0.6419883966445923,-0.5032210350036621,0.5512290000915527
1761316303586554000,13.14355419921875,-0.1716172695159912,-0.9502639770507812,0.9051027297973633
1761316303605476600,13.1624765625,-0.16541099548339844,-0.6137194633483887,0.3444967269897461
1761316303624399000,13.181399169921875,-0.289417028427124,-0.1060342788696289,-0.2530817985534668
1761316303643321600,13.200321533203125,-0.629149317741394,-0.01352834701538086,-0.32897472381591797
1761316303662244000,13.219244140625,-0.612321138381958,-0.1568160057067871,0.25418710708618164
1761316303681166600,13.23816650390625,-0.3548595905303955,-0.4274559020996094,0.46233558654785156
1761316303700088800,13.2570888671875,-0.30851101875305176,-0.6408886909484863,0.24066543579101562
1761316303719011300,13.27601123046875,-0.3097907304763794,-0.6461586952209473,0.41174840927124023
1761316303737933800,13.294933837890625,-0.35721731185913086,-0.4542422294616699,0.5911068916320801
1761316303756856300,13.313856201171875,-0.39127063751220703,-0.3373570442199707,0.4167609214782715
1761316303775778800,13.33277880859375,-0.3106426000595093,-0.5163431167602539,0.05014324188232422
1761316303794701300,13.351701416015626,-0.3017054796218872,-0.6300740242004395,-0.05548524856567383
1761316303813623800,13.370623779296874,-0.15603148937225342,-0.5773100852966309,0.24009275436401367
1761316303832546000,13.389546142578125,0.0357283353805542,-0.45970582962036133,0.46224260330200195
1761316303851468500,13.408468505859375,-0.026101112365722656,-0.21799039840698242,0.41863059997558594
1761316303870391000,13.42739111328125,-0.002774953842163086,-0.11835432052612305,0.2612729072570801
1761316303889313500,13.4463134765625,0.025106072425842285,-0.21361494064331055,0.17771005630493164
1761316303908236000,13.465236083984376,-0.015944719314575195,-0.2618441581726074,-0.043128013610839844
1761316303927158300,13.484158203125,-0.07959330081939697,-0.16329431533813477,-0.07216978073120117
1761316303946080800,13.503080810546875,-0.23818182945251465,-0.04187965393066406,0.1113576889038086
1761316303965003300,13.522003173828125,-0.1392533779144287,0.11385440826416016,-0.011019229888916016
1761316303983925800,13.54092578125,-0.07337617874145508,0.13555145263671875,-0.1137075424194336
1761316304002848300,13.55984814453125,0.03442227840423584,0.12000560760498047,-0.10395956039428711
