time,seconds_elapsed,z,y,x
1761402339278970400,0.118970458984375,9.775899887084961,0.07556699216365814,-0.05768529698252678
1761402339289044200,0.129044189453125,9.789067268371582,0.07324761152267456,-0.05297171324491501
1761402339299132200,0.139132080078125,9.79984188079834,0.06254851818084717,-0.05424363166093826
1761402339309203000,0.149202880859375,9.783082008361816,0.06007950007915497,-0.06015431880950928
1761402339319290400,0.159290283203125,9.783082008361816,0.07085340470075607,-0.05656301602721214
1761402339329375500,0.16937548828125,9.805827140808105,0.06853402405977249,-0.05663783475756645
1761402339339456500,0.17945654296875,9.790265083312988,0.07324761152267456,-0.04578910768032074
1761402339349538000,0.1895380859375,9.793182373046875,0.06584054976701736,-0.05626374110579491
1761402339359588400,0.19958837890625,9.801562309265137,0.07661445438861847,-0.04915595427155495
1761402339369699300,0.20969921875,9.783605575561523,0.06703764945268631,-0.05267243832349777
1761402339379776500,0.219776611328125,9.7883939743042,0.06823474913835526,-0.05506663769483566
1761402339389836000,0.2298359375,9.794380187988281,0.06823474913835526,-0.05506663769483566
1761402339399942400,0.2399423828125,9.78480339050293,0.07661445438861847,-0.0561889223754406
1761402339409992000,0.249991943359375,9.78480339050293,0.0694318488240242,-0.05506663769483566
1761402339420104400,0.2601044921875,9.78480339050293,0.06703764945268631,-0.05147533491253853
1761402339430185200,0.270185302734375,9.7837553024292,0.07062894850969315,-0.05027823522686958
1761402339440244000,0.280243896484375,9.786149978637695,0.06591536849737167,-0.05746084079146385
1761402339450347800,0.29034765625,9.78016471862793,0.07302315533161163,-0.06344634294509888
1761402339460419000,0.300419189453125,9.786149978637695,0.07062894850969315,-0.05035305395722389
1761402339470509600,0.310509521484375,9.78016471862793,0.06224924325942993,-0.061052143573760986
1761402339480590300,0.32059033203125,9.792135238647461,0.06830956786870956,-0.05155015364289284
1761402339490665000,0.3306650390625,9.78255844116211,0.0694318488240242,-0.061052143573760986
1761402339500737300,0.3407373046875,9.78255844116211,0.07422025501728058,-0.05746084079146385
1761402339510829600,0.35082958984375,9.7837553024292,0.07422025501728058,-0.05147533491253853
1761402339520914200,0.3609140625,9.788543701171875,0.06471826136112213,-0.058732759207487106
1761402339530995200,0.3709951171875,9.787346839904785,0.06471826136112213,-0.05394435673952103
1761402339541055700,0.3810556640625,9.786149978637695,0.06823474913835526,-0.05274725705385208
1761402339551134200,0.39113427734375,9.800515174865723,0.07309797406196594,-0.05274725705385208
1761402339561253000,0.401253173828125,9.792135238647461,0.06830956786870956,-0.05274725705385208
1761402339571315200,0.411315185546875,9.789741516113281,0.06830956786870956,-0.05514145642518997
1761402339581375500,0.42137548828125,9.787346839904785,0.06950666755437851,-0.05394435673952103
1761402339591481600,0.431481689453125,9.788918495178223,0.06845920532941818,-0.05529109388589859
1761402339601580500,0.44158056640625,9.786523818969727,0.06838438659906387,-0.05050269141793251
1761402339611643100,0.45164306640625,9.785401344299316,0.06838438659906387,-0.04810849204659462
1761402339621724200,0.46172412109375,9.788918495178223,0.06845920532941818,-0.0528968945145607
1761402339631805700,0.4718056640625,9.783007621765137,0.0743698924779892,-0.05050269141793251
1761402339641882400,0.48188232421875,9.794903755187988,0.07564181089401245,-0.051699791103601456
1761402339651967000,0.491967041015625,9.796100616455078,0.07923310995101929,-0.05768529698252678
1761402339662048000,0.502048095703125,9.792509078979492,0.0744447112083435,-0.051699791103601456
1761402339672129000,0.51212890625,9.78944206237793,0.07893383502960205,-0.054991818964481354
1761402339682185000,0.52218505859375,9.794230461120605,0.07414543628692627,-0.05379471927881241
1761402339692291000,0.532291015625,9.793033599853516,0.06823474913835526,-0.05738602206110954
1761402339702368000,0.542367919921875,9.785850524902344,0.066962830722332,-0.054991818964481354
1761402339712453600,0.55245361328125,9.79183578491211,0.06935703009366989,-0.05259761959314346
1761402339722534400,0.562534423828125,9.779865264892578,0.06815993040800095,-0.057311203330755234
1761402339732615000,0.572614990234375,9.787047386169434,0.066962830722332,-0.05259761959314346
1761402339742699300,0.58269921875,9.78951644897461,0.06576573103666306,-0.050203416496515274
1761402339752750600,0.59275048828125,9.787346839904785,0.06471826136112213,-0.05992986261844635
1761402339762854400,0.6028544921875,9.787346839904785,0.06830956786870956,-0.05753565952181816
1761402339772939500,0.612939453125,9.794529914855957,0.06950666755437851,-0.05992986261844635
1761402339783019800,0.623019775390625,9.789741516113281,0.06711246818304062,-0.04676175117492676
1761402339793112800,0.63311279296875,9.789741516113281,0.06711246818304062,-0.05274725705385208
1761402339803182000,0.64318212890625,9.789741516113281,0.06591536849737167,-0.047958854585886
1761402339813263400,0.653263427734375,9.78136157989502,0.07661445438861847,-0.05027823522686958
1761402339823344600,0.6633447265625,9.796923637390137,0.07070376724004745,-0.05992986261844635
1761402339833421000,0.673421142578125,9.788543701171875,0.05992986261844635,-0.04915595427155495
1761402339843484400,0.683484375,9.7837553024292,0.07541735470294952,-0.05386953800916672
1761402339853587000,0.6935869140625,9.79333209991455,0.06830956786870956,-0.04915595427155495
1761402339863668000,0.70366796875,9.790938377380371,0.07788637280464172,-0.06232406198978424
1761402339873748700,0.713748779296875,9.786149978637695,0.07182604819536209,-0.0586579404771328
1761402339883830800,0.723830810546875,9.7837553024292,0.06823474913835526,-0.05147533491253853
1761402339893907500,0.733907470703125,9.790938377380371,0.0719008669257164,-0.05514145642518997
1761402339903992000,0.743991943359375,9.78136157989502,0.06823474913835526,-0.05027823522686958
1761402339914073000,0.754072998046875,9.785776138305664,0.07047931104898453,-0.047734394669532776
1761402339924153900,0.76415380859375,9.788169860839844,0.07175122946500778,-0.054917000234127045
1761402339934236000,0.77423583984375,9.785776138305664,0.07167641073465347,-0.05611410364508629
1761402339944316200,0.784316162109375,9.79056453704834,0.06217442452907562,-0.052522800862789154
1761402339954397000,0.79439697265625,9.788095474243164,0.07175122946500778,-0.06329670548439026
1761402339964474400,0.804474365234375,9.788169860839844,0.06576573103666306,-0.05132569745182991
1761402339974559000,0.81455908203125,9.79056453704834,0.07055412977933884,-0.052522800862789154
1761402339984638000,0.824637939453125,9.79415512084961,0.07294833660125732,-0.04900631681084633
1761402339994720500,0.834720458984375,9.792284965515137,0.07668927311897278,-0.049230773001909256
1761402340004801800,0.8448017578125,9.78869342803955,0.07070376724004745,-0.056338559836149216
1761402340014882600,0.854882568359375,9.78869342803955,0.05761047825217247,-0.049230773001909256
1761402340024964400,0.86496435546875,9.781511306762695,0.06950666755437851,-0.05514145642518997
1761402340035045400,0.87504541015625,9.786299705505371,0.06830956786870956,-0.05155015364289284
1761402340045126100,0.885126220703125,9.793481826782227,0.07429507374763489,-0.04803367331624031
1761402340055184600,0.8951845703125,9.793481826782227,0.06479308009147644,-0.05282207578420639
1761402340065288400,0.905288330078125,9.792210578918457,0.0635959804058075,-0.058807577937841415
1761402340075345000,0.915344970703125,9.792284965515137,0.0719008669257164,-0.054019175469875336
1761402340085450500,0.925450439453125,9.793481826782227,0.06950666755437851,-0.05162497237324715
1761402340095530500,0.935530517578125,9.785101890563965,0.07549217343330383,-0.06232406198978424
1761402340105568500,0.945568603515625,9.792284965515137,0.07908347249031067,-0.054019175469875336
1761402340115693000,0.955693115234375,9.783905029296875,0.06830956786870956,-0.05035305395722389
1761402340125729500,0.9657294921875,9.794678688049316,0.07788637280464172,-0.05521627515554428
1761402340135854600,0.9758544921875,9.782708168029785,0.07070376724004745,-0.05992986261844635
1761402340145937000,0.98593701171875,9.791088104248047,0.07429507374763489,-0.0504278726875782
1761402340156017000,0.996016845703125,9.789741516113281,0.06591536849737167,-0.058732759207487106
1761402340166097700,1.00609765625,9.79333209991455,0.07549217343330383,-0.05992986261844635
1761402340176179000,1.016178955078125,9.794529914855957,0.056338559836149216,-0.05753565952181816
1761402340186259500,1.026259521484375,9.789741516113281,0.07781155407428741,-0.05394435673952103
1761402340196315400,1.0363154296875,9.787346839904785,0.06823474913835526,-0.04915595427155495
1761402340206421500,1.04642138671875,9.7837553024292,0.07182604819536209,-0.05626374110579491
1761402340216503300,1.05650341796875,9.786149978637695,0.06471826136112213,-0.05274725705385208
1761402340226583800,1.066583740234375,9.787346839904785,0.07302315533161163,-0.05746084079146385
1761402340236664600,1.07666455078125,9.798943519592285,0.066962830722332,-0.04421791434288025
1761402340246724600,1.086724609375,9.788169860839844,0.066962830722332,-0.04893149808049202
1761402340256826600,1.09682666015625,9.785700798034668,0.06935703009366989,-0.06329670548439026
1761402340266908200,1.106908203125,9.778593063354492,0.06808511167764664,-0.05132569745182991
1761402340276988400,1.116988525390625,9.79056453704834,0.06456862390041351,-0.0537199005484581
1761402340287069400,1.1270693359375,9.789366722106934,0.06935703009366989,-0.052522800862789154
1761402340297150500,1.137150390625,9.786972999572754,0.054991818964481354,-0.0537199005484581
1761402340307199500,1.147199462890625,9.785776138305664,0.07167641073465347,-0.05611410364508629
1761402340317289700,1.157289794921875,9.777620315551758,0.066962830722332,-0.0561889223754406
1761402340327393500,1.1673935546875,9.790788650512695,0.07302315533161163,-0.04908113554120064
1761402340337474300,1.177474365234375,9.790788650512695,0.07062894850969315,-0.05267243832349777
1761402340347552000,1.187552001953125,9.782408714294434,0.06464344263076782,-0.05858312174677849
1761402340357636400,1.19763623046875,9.78600025177002,0.06703764945268631,-0.05506663769483566
1761402340367717400,1.20771728515625,9.78480339050293,0.07062894850969315,-0.06097732484340668
1761402340377761500,1.217761474609375,9.793182373046875,0.07182604819536209,-0.0454898327589035
1761402340387879200,1.227879150390625,9.799168586730957,0.05753565952181816,-0.056338559836149216
1761402340397961000,1.2379609375,9.789591789245605,0.06703764945268631,-0.05027823522686958
1761402340408039200,1.2480390625,9.78480339050293,0.0694318488240242,-0.05626374110579491
1761402340418118400,1.258118408203125,9.78719711303711,0.06584054976701736,-0.05386953800916672
1761402340428179500,1.268179443359375,9.780014991760254,0.080130934715271,-0.05858312174677849
1761402340438285000,1.27828515625,9.794380187988281,0.06823474913835526,-0.04668693244457245
1761402340448366000,1.288365966796875,9.78480339050293,0.06584054976701736,-0.05506663769483566
1761402340458446000,1.298446044921875,9.791985511779785,0.07062894850969315,-0.05506663769483566
1761402340468523300,1.308523193359375,9.790788650512695,0.06703764945268631,-0.05506663769483566
1761402340478608100,1.318608154296875,9.79333209991455,0.06711246818304062,-0.05394435673952103
1761402340488689200,1.328689208984375,9.794529914855957,0.06830956786870956,-0.05274725705385208
1761402340498767000,1.33876708984375,9.796923637390137,0.07070376724004745,-0.05394435673952103
1761402340508828700,1.34882861328125,9.79333209991455,0.0719008669257164,-0.05035305395722389
1761402340518906000,1.358906005859375,9.794529914855957,0.056338559836149216,-0.05274725705385208
1761402340529010000,1.369010009765625,9.786149978637695,0.0694318488240242,-0.05035305395722389
1761402340539094800,1.3790947265625,9.792135238647461,0.07549217343330383,-0.047958854585886
1761402340549155000,1.389155029296875,9.787346839904785,0.06232406198978424,-0.05514145642518997
1761402340559256300,1.39925634765625,9.786149978637695,0.07062894850969315,-0.04676175117492676
1761402340569312000,1.40931201171875,9.788543701171875,0.0719008669257164,-0.05514145642518997
1761402340579394600,1.41939453125,9.788543701171875,0.06591536849737167,-0.05155015364289284
1761402340589499100,1.4294990234375,9.789741516113281,0.07070376724004745,-0.05394435673952103
1761402340599577000,1.4395771484375,9.787346839904785,0.07302315533161163,-0.05514145642518997
1761402340609617200,1.4496171875,9.78016471862793,0.0694318488240242,-0.04908113554120064
1761402340619743200,1.4597431640625,9.79333209991455,0.07668927311897278,-0.047958854585886
1761402340629789400,1.46978955078125,9.788543701171875,0.06830956786870956,-0.056338559836149216
1761402340639899100,1.479899169921875,9.792359352111816,0.06599018722772598,-0.054093994200229645
1761402340649960200,1.489960205078125,9.799542427062988,0.0636707991361618,-0.0528968945145607
1761402340660040200,1.500040283203125,9.789965629577637,0.06479308009147644,-0.05521627515554428
1761402340670147600,1.510147705078125,9.785177230834961,0.06599018722772598,-0.058807577937841415
1761402340680228900,1.520228759765625,9.793557167053223,0.07197568565607071,-0.0528968945145607
1761402340690301000,1.530301025390625,9.78405475616455,0.07549217343330383,-0.05521627515554428
1761402340700365000,1.540364990234375,9.775674819946289,0.06711246818304062,-0.0504278726875782
1761402340710475800,1.550475830078125,9.78525161743164,0.061201781034469604,-0.05282207578420639
1761402340720548900,1.560548828125,9.785924911499023,0.06935703009366989,-0.05140051618218422
1761402340730633700,1.5706337890625,9.78712272644043,0.07055412977933884,-0.05140051618218422
1761402340740692000,1.58069189453125,9.79063892364502,0.06464344263076782,-0.0561889223754406
1761402340750795000,1.590794921875,9.79183578491211,0.06464344263076782,-0.05379471927881241
1761402340760850700,1.6008505859375,9.78944206237793,0.07294833660125732,-0.06097732484340668
1761402340770942000,1.61094189453125,9.794230461120605,0.0777367353439331,-0.05259761959314346
1761402340781038000,1.6210380859375,9.79183578491211,0.06464344263076782,-0.05140051618218422
1761402340791115500,1.631115478515625,9.78944206237793,0.07294833660125732,-0.05259761959314346
1761402340801154600,1.641154541015625,9.781211853027344,0.06464344263076782,-0.05267243832349777
1761402340811281700,1.65128173828125,9.780014991760254,0.07414543628692627,-0.05858312174677849
1761402340821362700,1.66136279296875,9.799168586730957,0.07070376724004745,-0.05386953800916672
1761402340831464400,1.67146435546875,9.78487777709961,0.06703764945268631,-0.047884032130241394
1761402340841514800,1.6815146484375,9.78480339050293,0.07422025501728058,-0.05738602206110954
1761402340851579600,1.69157958984375,9.794380187988281,0.0694318488240242,-0.05626374110579491
1761402340861686300,1.701686279296875,9.795577049255371,0.061126962304115295,-0.06224924325942993
1761402340871767600,1.711767578125,9.790788650512695,0.07422025501728058,-0.05626374110579491
1761402340881825800,1.72182568359375,9.784728050231934,0.06935703009366989,-0.05140051618218422
1761402340891909400,1.731909423828125,9.785924911499023,0.07055412977933884,-0.05379471927881241
1761402340901984800,1.74198486328125,9.793033599853516,0.06823474913835526,-0.05379471927881241
1761402340912091600,1.752091552734375,9.78944206237793,0.06584054976701736,-0.05858312174677849
1761402340922168300,1.762168212890625,9.78831958770752,0.066962830722332,-0.04900631681084633
1761402340932229400,1.7722294921875,9.79183578491211,0.06344634294509888,-0.05379471927881241
1761402340942333700,1.782333740234375,9.794230461120605,0.07653963565826416,-0.05140051618218422
1761402340952391000,1.792390869140625,9.78712272644043,0.07414543628692627,-0.05140051618218422
1761402340962495700,1.802495849609375,9.788020133972168,0.06808511167764664,-0.05603928491473198
1761402340972576800,1.81257666015625,9.790414810180664,0.06928221136331558,-0.04893149808049202
1761402340982654000,1.822654052734375,9.785626411437988,0.07047931104898453,-0.059630587697029114
1761402340992738600,1.832738525390625,9.79752254486084,0.06217442452907562,-0.057311203330755234
1761402341002841900,1.842841796875,9.788020133972168,0.06808511167764664,-0.04414309561252594
1761402341012879000,1.852879150390625,9.793931007385254,0.07167641073465347,-0.0644189864397049
1761402341022957800,1.862957763671875,9.785626411437988,0.07047931104898453,-0.04646247625350952
1761402341033045500,1.87304541015625,9.792808532714844,0.07287351787090302,-0.04893149808049202
1761402341043118300,1.883118408203125,9.794230461120605,0.0694318488240242,-0.05379471927881241
1761402341053224700,1.893224609375,9.784653663635254,0.07294833660125732,-0.054991818964481354
1761402341063305700,1.9033056640625,9.784653663635254,0.066962830722332,-0.05379471927881241
1761402341073361700,1.913361572265625,9.784653663635254,0.07175122946500778,-0.05978022515773773
1761402341083447600,1.923447509765625,9.779939651489258,0.07294833660125732,-0.0537199005484581
1761402341093523700,1.933523681640625,9.782258987426758,0.06456862390041351,-0.0561889223754406
1761402341103629800,1.9436298828125,9.785924911499023,0.07653963565826416,-0.04661211371421814
1761402341113707300,1.953707275390625,9.807398796081543,0.07781155407428741,-0.05267243832349777
1761402341123766500,1.9637666015625,9.785476684570312,0.06920739263296127,-0.04885667935013771
1761402341133872600,1.97387255859375,9.792658805847168,0.06569091230630875,-0.05843348428606987
1761402341143928600,1.983928466796875,9.787870407104492,0.07040449231863022,-0.05835866555571556
1761402341154035000,1.994034912109375,9.789067268371582,0.06920739263296127,-0.0512508787214756
1761402341164115700,2.00411572265625,9.797447204589844,0.06928221136331558,-0.050053779035806656
1761402341174193200,2.014193115234375,9.80103874206543,0.07047931104898453,-0.05603928491473198
1761402341184277800,2.02427783203125,9.787870407104492,0.06801029294729233,-0.052447982132434845
1761402341194333400,2.03433349609375,9.792658805847168,0.06688801199197769,-0.054842181503772736
1761402341204430800,2.044430908203125,9.795427322387695,0.07302315533161163,-0.05259761959314346
1761402341214499300,2.054499267578125,9.78951644897461,0.06456862390041351,-0.047809213399887085
1761402341224601600,2.0646015625,9.799018859863281,0.061052143573760986,-0.05147533491253853
1761402341234657500,2.074657470703125,9.78831958770752,0.07055412977933884,-0.05259761959314346
1761402341244759800,2.084759765625,9.796624183654785,0.07302315533161163,-0.04908113554120064
1761402341254844400,2.094844482421875,9.800215721130371,0.07182604819536209,-0.05985504388809204
1761402341264908500,2.104908447265625,9.78831958770752,0.07414543628692627,-0.04661211371421814
1761402341275007000,2.115007080078125,9.783531188964844,0.07534253597259521,-0.050203416496515274
1761402341285087700,2.125087646484375,9.787047386169434,0.066962830722332,-0.05259761959314346
1761402341295168500,2.13516845703125,9.795427322387695,0.07422025501728058,-0.05379471927881241
1761402341305249800,2.145249755859375,9.7907133102417,0.066962830722332,-0.04661211371421814
1761402341315330600,2.15533056640625,9.785850524902344,0.06815993040800095,-0.05738602206110954
1761402341325411300,2.165411376953125,9.796624183654785,0.07541735470294952,-0.04908113554120064
1761402341335492600,2.17549267578125,9.793107986450195,0.06703764945268631,-0.04900631681084633
1761402341345562400,2.185562255859375,9.779939651489258,0.06337152421474457,-0.04900631681084633
1761402341355617500,2.195617431640625,9.78712272644043,0.06576573103666306,-0.045415014028549194
1761402341365735700,2.205735595703125,9.795801162719727,0.07077858597040176,-0.061201781034469604
1761402341375816400,2.21581640625,9.797073364257812,0.06958148628473282,-0.05162497237324715
1761402341385897500,2.2258974609375,9.804181098937988,0.06718728691339493,-0.051699791103601456
1761402341395978500,2.235978515625,9.794678688049316,0.06479308009147644,-0.0504278726875782
1761402341406059300,2.246059326171875,9.792284965515137,0.0719008669257164,-0.04085106775164604
1761402341416140300,2.256140380859375,9.783830642700195,0.0719008669257164,-0.06352116167545319
1761402341426221300,2.26622119140625,9.78869342803955,0.0719008669257164,-0.056338559836149216
1761402341436302800,2.276302734375,9.782708168029785,0.06711246818304062,-0.05514145642518997
1761402341446384000,2.286384033203125,9.783905029296875,0.07429507374763489,-0.058732759207487106
1761402341456464400,2.29646435546875,9.782708168029785,0.07309797406196594,-0.05274725705385208
1761402341466520300,2.306520263671875,9.795876502990723,0.07077858597040176,-0.054019175469875336
1761402341476626400,2.31662646484375,9.799467086791992,0.0743698924779892,-0.054019175469875336
1761402341486707500,2.32670751953125,9.792284965515137,0.07070376724004745,-0.04803367331624031
1761402341496788700,2.336788818359375,9.794604301452637,0.06718728691339493,-0.06239888072013855
1761402341506869200,2.346869140625,9.791088104248047,0.07070376724004745,-0.054019175469875336
1761402341516941800,2.35694189453125,9.793481826782227,0.06838438659906387,-0.05282207578420639
1761402341527031800,2.36703173828125,9.78989028930664,0.07070376724004745,-0.0504278726875782
1761402341537112300,2.3771123046875,9.78869342803955,0.0719008669257164,-0.05514145642518997
1761402341547168000,2.38716796875,9.798270225524902,0.06958148628473282,-0.04803367331624031
1761402341557274400,2.3972744140625,9.785101890563965,0.07309797406196594,-0.05394435673952103
1761402341567355600,2.407355712890625,9.786299705505371,0.07309797406196594,-0.05753565952181816
1761402341577436400,2.4174365234375,9.786299705505371,0.06950666755437851,-0.05394435673952103
1761402341587517200,2.42751708984375,9.78869342803955,0.06711246818304062,-0.058732759207487106
1761402341597598200,2.43759814453125,9.791088104248047,0.06830956786870956,-0.05761047825217247
1761402341607680500,2.447680419921875,9.78951644897461,0.06935703009366989,-0.045415014028549194
1761402341617760800,2.4577607421875,9.78831958770752,0.07414543628692627,-0.047809213399887085
1761402341627841300,2.46784130859375,9.796624183654785,0.07302315533161163,-0.05027823522686958
1761402341637922000,2.477922119140625,9.79063892364502,0.06703764945268631,-0.06217442452907562
1761402341648001300,2.488001220703125,9.785924911499023,0.07653963565826416,-0.05379471927881241
1761402341658080500,2.49808056640625,9.795427322387695,0.07422025501728058,-0.05738602206110954
1761402341668163800,2.508163818359375,9.782258987426758,0.06815993040800095,-0.0561889223754406
1761402341678242000,2.518241943359375,9.79063892364502,0.06464344263076782,-0.05738602206110954
1761402341688327200,2.5283271484375,9.800589561462402,0.05761047825217247,-0.05521627515554428
1761402341698408000,2.538407958984375,9.783905029296875,0.06711246818304062,-0.061126962304115295
1761402341708454100,2.5484541015625,9.787496566772461,0.0719008669257164,-0.049230773001909256
1761402341718570800,2.55857080078125,9.792284965515137,0.07309797406196594,-0.0504278726875782
1761402341728651800,2.56865185546875,9.787496566772461,0.06950666755437851,-0.058732759207487106
1761402341738732000,2.57873193359375,9.798195838928223,0.06718728691339493,-0.061201781034469604
1761402341748809200,2.588809326171875,9.801787376403809,0.07077858597040176,-0.058807577937841415
1761402341758883800,2.5988837890625,9.781511306762695,0.06352116167545319,-0.05274725705385208
1761402341768975000,2.60897509765625,9.79176139831543,0.07414543628692627,-0.05611410364508629
1761402341779055900,2.619055908203125,9.798943519592285,0.08132804185152054,-0.045415014028549194
1761402341789137000,2.629136962890625,9.779789924621582,0.07407061755657196,-0.05850830301642418
1761402341799218000,2.639218017578125,9.789366722106934,0.066962830722332,-0.05132569745182991
1761402341809273900,2.64927392578125,9.789366722106934,0.06815993040800095,-0.05611410364508629
1761402341819380000,2.6593798828125,9.789366722106934,0.07414543628692627,-0.0537199005484581
1761402341829461500,2.66946142578125,9.784578323364258,0.07407061755657196,-0.054917000234127045
1761402341839526100,2.679526123046875,9.782184600830078,0.06928221136331558,-0.05611410364508629
1761402341849599000,2.689598876953125,9.7837553024292,0.07182604819536209,-0.05267243832349777
1761402341859697200,2.699697265625,9.784953117370605,0.06352116167545319,-0.05155015364289284
1761402341869785000,2.70978515625,9.777770042419434,0.07422025501728058,-0.05626374110579491
1761402341879862000,2.719862060546875,9.788543701171875,0.06711246818304062,-0.058732759207487106
1761402341889934000,2.72993408203125,9.794529914855957,0.061126962304115295,-0.056338559836149216
1761402341900012000,2.740011962890625,9.78255844116211,0.06703764945268631,-0.05386953800916672
1761402341910066000,2.75006591796875,9.787346839904785,0.07541735470294952,-0.04915595427155495
1761402341920190200,2.760190185546875,9.796923637390137,0.0719008669257164,-0.05514145642518997
1761402341930270700,2.770270751953125,9.782708168029785,0.0719008669257164,-0.04077624902129173
1761402341940348000,2.780347900390625,9.786299705505371,0.07668927311897278,-0.05992986261844635
1761402341950432800,2.790432861328125,9.783905029296875,0.07309797406196594,-0.058732759207487106
1761402341960503800,2.80050390625,9.788619041442871,0.06950666755437851,-0.061126962304115295
1761402341970569700,2.81056982421875,9.791088104248047,0.06352116167545319,-0.049230773001909256
1761402341980676400,2.82067626953125,9.795876502990723,0.07077858597040176,-0.05282207578420639
1761402341990756900,2.8307568359375,9.791088104248047,0.06950666755437851,-0.0504278726875782
1761402342000812500,2.8408125,9.786299705505371,0.06471826136112213,-0.05155015364289284
1761402342010919000,2.8509189453125,9.796624183654785,0.06703764945268631,-0.05506663769483566
1761402342021000400,2.86100048828125,9.79063892364502,0.06344634294509888,-0.0561889223754406
1761402342031081000,2.8710810546875,9.799018859863281,0.06584054976701736,-0.05506663769483566
1761402342041139500,2.881139404296875,9.784653663635254,0.06815993040800095,-0.0561889223754406
1761402342051243000,2.891242919921875,9.795427322387695,0.07062894850969315,-0.054991818964481354
1761402342061324000,2.901323974609375,9.787047386169434,0.07294833660125732,-0.06337152421474457
1761402342071401000,2.91140087890625,9.775151252746582,0.07407061755657196,-0.042945992201566696
1761402342081480400,2.92148046875,9.78712272644043,0.07055412977933884,-0.047809213399887085
1761402342091541800,2.931541748046875,9.793557167053223,0.06599018722772598,-0.051699791103601456
1761402342101622800,2.941622802734375,9.791162490844727,0.06718728691339493,-0.058807577937841415
1761402342111729000,2.95172900390625,9.794754028320312,0.07317279279232025,-0.05529109388589859
1761402342121809700,2.9618095703125,9.78525161743164,0.07556699216365814,-0.054019175469875336
1761402342131886300,2.97188623046875,9.792359352111816,0.06838438659906387,-0.061201781034469604
1761402342141971700,2.9819716796875,9.794754028320312,0.06958148628473282,-0.0528968945145607
1761402342152027600,2.992027587890625,9.78637409210205,0.06599018722772598,-0.056413378566503525
1761402342162110500,3.0021103515625,9.795950889587402,0.07317279279232025,-0.056488197296857834
1761402342172214500,3.012214599609375,9.79101276397705,0.06711246818304062,-0.058807577937841415
1761402342182270200,3.022270263671875,9.780313491821289,0.07900865375995636,-0.05394435673952103
1761402342192376600,3.03237646484375,9.782708168029785,0.06471826136112213,-0.05155015364289284
1761402342202454000,3.0424541015625,9.78869342803955,0.06471826136112213,-0.0504278726875782
1761402342212538600,3.05253857421875,9.793481826782227,0.0719008669257164,-0.056413378566503525
1761402342222619600,3.06261962890625,9.78989028930664,0.06591536849737167,-0.05521627515554428
1761402342232700700,3.07270068359375,9.798270225524902,0.06479308009147644,-0.0504278726875782
1761402342242781700,3.08278173828125,9.783905029296875,0.07309797406196594,-0.05155015364289284
1761402342252862500,3.092862548828125,9.785924911499023,0.0777367353439331,-0.05379471927881241
1761402342262942500,3.1029423828125,9.799018859863281,0.07062894850969315,-0.05267243832349777
1761402342273024800,3.113024658203125,9.78712272644043,0.07294833660125732,-0.05140051618218422
1761402342283106300,3.123106201171875,9.78951644897461,0.07534253597259521,-0.04661211371421814
1761402342293186600,3.1331865234375,9.794230461120605,0.06584054976701736,-0.05738602206110954
1761402342303267600,3.143267578125,9.79183578491211,0.07175122946500778,-0.054991818964481354
1761402342313348400,3.153348388671875,9.78831958770752,0.07055412977933884,-0.05259761959314346
1761402342323426300,3.16342626953125,9.78712272644043,0.07055412977933884,-0.05259761959314346
1761402342333511000,3.173510986328125,9.785776138305664,0.08125322312116623,-0.04414309561252594
1761402342343567600,3.183567626953125,9.795352935791016,0.06815993040800095,-0.05140051618218422
1761402342353672400,3.19367236328125,9.79415512084961,0.07534253597259521,-0.05140051618218422
1761402342363728400,3.203728271484375,9.788169860839844,0.0752677172422409,-0.04174889251589775
1761402342373835300,3.213835205078125,9.782184600830078,0.06808511167764664,-0.052522800862789154
1761402342383916000,3.223916015625,9.786972999572754,0.06935703009366989,-0.05132569745182991
1761402342393992400,3.233992431640625,9.783381462097168,0.06337152421474457,-0.05611410364508629
1761402342404052200,3.24405224609375,9.789366722106934,0.07287351787090302,-0.04653729498386383
1761402342414158600,3.25415869140625,9.78831958770752,0.07055412977933884,-0.05140051618218422
1761402342424239400,3.2642392578125,9.795427322387695,0.07182604819536209,-0.05140051618218422
1761402342434320600,3.274320556640625,9.776348114013672,0.06576573103666306,-0.052522800862789154
1761402342444402200,3.284402099609375,9.785850524902344,0.06935703009366989,-0.05738602206110954
1761402342454450400,3.294450439453125,9.78944206237793,0.06815993040800095,-0.05259761959314346
1761402342464563500,3.3045634765625,9.773954391479492,0.06815993040800095,-0.05850830301642418
1761402342474644200,3.314644287109375,9.778742790222168,0.07414543628692627,-0.05132569745182991
1761402342484700200,3.3247001953125,9.795427322387695,0.07302315533161163,-0.05738602206110954
1761402342494807000,3.33480712890625,9.7907133102417,0.05985504388809204,-0.04429273307323456
1761402342504887300,3.34488720703125,9.793033599853516,0.0694318488240242,-0.05379471927881241
1761402342514968300,3.35496826171875,9.801412582397461,0.07302315533161163,-0.05506663769483566
1761402342525049600,3.365049560546875,9.78944206237793,0.07175122946500778,-0.06217442452907562
1761402342535130400,3.37513037109375,9.794230461120605,0.06224924325942993,-0.054991818964481354
1761402342545212000,3.3852119140625,9.797821998596191,0.07062894850969315,-0.05738602206110954
1761402342555292200,3.395292236328125,9.794304847717285,0.0777367353439331,-0.047809213399887085
1761402342565373200,3.405373291015625,9.793033599853516,0.06584054976701736,-0.05259761959314346
1761402342575454200,3.4154541015625,9.78831958770752,0.07055412977933884,-0.05259761959314346
1761402342585536000,3.425535888671875,9.797896385192871,0.07661445438861847,-0.047884032130241394
1761402342595614700,3.43561474609375,9.796624183654785,0.07781155407428741,-0.05978022515773773
1761402342605697300,3.445697265625,9.795427322387695,0.06703764945268631,-0.05147533491253853
1761402342615778600,3.455778564453125,9.787047386169434,0.066962830722332,-0.05738602206110954
1761402342625835300,3.465835205078125,9.795427322387695,0.06703764945268631,-0.05027823522686958
1761402342635940900,3.47594091796875,9.785850524902344,0.066962830722332,-0.05738602206110954
1761402342646022000,3.48602197265625,9.781062126159668,0.07055412977933884,-0.05850830301642418
1761402342656102400,3.496102294921875,9.794230461120605,0.06823474913835526,-0.05379471927881241
1761402342666183200,3.50618310546875,9.800215721130371,0.06823474913835526,-0.05267243832349777
1761402342676264200,3.51626416015625,9.793033599853516,0.07294833660125732,-0.05379471927881241
1761402342686345500,3.526345458984375,9.79063892364502,0.06464344263076782,-0.06097732484340668
1761402342696426200,3.53642626953125,9.791911125183105,0.07534253597259521,-0.050203416496515274
1761402342706507300,3.54650732421875,9.795427322387695,0.07422025501728058,-0.054991818964481354
1761402342716588000,3.556588134765625,9.776348114013672,0.07175122946500778,-0.052522800862789154
1761402342726669000,3.5666689453125,9.785850524902344,0.05626374110579491,-0.05978022515773773
1761402342736750300,3.576750244140625,9.776199340820312,0.06928221136331558,-0.05364508181810379
1761402342746843100,3.586843017578125,9.789366722106934,0.06576573103666306,-0.050128597766160965
1761402342756912400,3.596912353515625,9.79176139831543,0.07055412977933884,-0.050128597766160965
1761402342766993200,3.6069931640625,9.797672271728516,0.07055412977933884,-0.05858312174677849
1761402342777074200,3.61707421875,9.795352935791016,0.07534253597259521,-0.05379471927881241
1761402342787154200,3.627154296875,9.79056453704834,0.06815993040800095,-0.05132569745182991
1761402342797236700,3.63723681640625,9.79408073425293,0.06935703009366989,-0.06569091230630875
1761402342807317000,3.64731689453125,9.79056453704834,0.07294833660125732,-0.05611410364508629
1761402342817398300,3.657398193359375,9.795726776123047,0.058732759207487106,-0.05274725705385208
1761402342827479000,3.66747900390625,9.786149978637695,0.06352116167545319,-0.06344634294509888
1761402342837560300,3.677560302734375,9.776573181152344,0.0802057534456253,-0.05985504388809204
1761402342847641600,3.6876416015625,9.790938377380371,0.07661445438861847,-0.04556465148925781
1761402342857723000,3.697722900390625,9.789741516113281,0.0719008669257164,-0.061126962304115295
1761402342867803100,3.70780322265625,9.784953117370605,0.0694318488240242,-0.0586579404771328
1761402342877884700,3.717884765625,9.78016471862793,0.07422025501728058,-0.05626374110579491
1761402342887939800,3.72793994140625,9.787346839904785,0.07302315533161163,-0.056338559836149216
1761402342898043600,3.738043701171875,9.794380187988281,0.07541735470294952,-0.04668693244457245
1761402342908123600,3.74812353515625,9.777620315551758,0.06224924325942993,-0.05259761959314346
1761402342918183400,3.758183349609375,9.793182373046875,0.06584054976701736,-0.04668693244457245
1761402342938370000,3.7783701171875,9.790788650512695,0.0694318488240242,-0.05267243832349777
1761402342948451800,3.788451904296875,9.794380187988281,0.058732759207487106,-0.05506663769483566
1761402342958528300,3.7985283203125,9.793182373046875,0.07182604819536209,-0.05506663769483566
1761402342968613000,3.808613037109375,9.789591789245605,0.07422025501728058,-0.0586579404771328
1761402342978684700,3.8186845703125,9.795950889587402,0.06718728691339493,-0.05529109388589859
1761402342988775400,3.828775390625,9.78525161743164,0.0743698924779892,-0.05162497237324715
1761402342998856700,3.838856689453125,9.792434692382812,0.07317279279232025,-0.04810849204659462
1761402343008914000,3.848913818359375,9.795950889587402,0.06599018722772598,-0.06007950007915497
1761402343019018200,3.859018310546875,9.792359352111816,0.06718728691339493,-0.054093994200229645
1761402343029095400,3.869095458984375,9.792359352111816,0.06838438659906387,-0.056413378566503525
1761402343039155200,3.8791552734375,9.787646293640137,0.07077858597040176,-0.049230773001909256
1761402343049260800,3.8892607421875,9.78525161743164,0.07197568565607071,-0.054019175469875336
1761402343059342000,3.899342041015625,9.787496566772461,0.06711246818304062,-0.05514145642518997
1761402343069423000,3.909423095703125,9.792284965515137,0.07549217343330383,-0.05761047825217247
1761402343079504000,3.91950390625,9.797073364257812,0.07077858597040176,-0.05282207578420639
1761402343089581800,3.929581787109375,9.789815902709961,0.06239888072013855,-0.05761047825217247
1761402343099666000,3.939666015625,9.78989028930664,0.06950666755437851,-0.05753565952181816
1761402343109747700,3.949747802734375,9.787496566772461,0.07549217343330383,-0.05394435673952103
1761402343119828000,3.959827880859375,9.791088104248047,0.06711246818304062,-0.056413378566503525
1761402343129909000,3.969908935546875,9.794678688049316,0.06599018722772598,-0.0504278726875782
1761402343139990500,3.979990478515625,9.79063892364502,0.07653963565826416,-0.05259761959314346
1761402343150046500,3.99004638671875,9.79183578491211,0.06935703009366989,-0.05379471927881241
1761402343160148500,4.0001484375,9.78824520111084,0.06456862390041351,-0.054991818964481354
1761402343170232800,4.01023291015625,9.78944206237793,0.066962830722332,-0.05738602206110954
1761402343180314000,4.020314208984375,9.79063892364502,0.06935703009366989,-0.0561889223754406
1761402343190394600,4.03039453125,9.795427322387695,0.06703764945268631,-0.06217442452907562
1761402343200476000,4.040475830078125,9.793033599853516,0.06703764945268631,-0.05858312174677849
1761402343210557700,4.0505576171875,9.783531188964844,0.066962830722332,-0.04421791434288025
1761402343220633900,4.0606337890625,9.791088104248047,0.06591536849737167,-0.04563947021961212
1761402343230719200,4.07071923828125,9.791088104248047,0.06591536849737167,-0.04683656990528107
1761402343240799700,4.0807998046875,9.795876502990723,0.07197568565607071,-0.05521627515554428
1761402343250881500,4.090881591796875,9.797073364257812,0.06599018722772598,-0.05162497237324715
1761402343260962000,4.100962158203125,9.783905029296875,0.06471826136112213,-0.05035305395722389
1761402343271043300,4.111043212890625,9.787496566772461,0.06830956786870956,-0.049230773001909256
1761402343281120300,4.121120361328125,9.787496566772461,0.06711246818304062,-0.04803367331624031
1761402343291204900,4.131204833984375,9.798195838928223,0.07676409184932709,-0.058807577937841415
1761402343301286000,4.141285888671875,9.793033599853516,0.0777367353439331,-0.05259761959314346
1761402343311366700,4.15136669921875,9.787047386169434,0.06576573103666306,-0.0561889223754406
1761402343321447700,4.16144775390625,9.78944206237793,0.066962830722332,-0.05379471927881241
1761402343331529200,4.171529296875,9.78951644897461,0.06456862390041351,-0.04421791434288025
1761402343341584600,4.181584716796875,9.78824520111084,0.07294833660125732,-0.054991818964481354
1761402343351686700,4.191686767578125,9.795427322387695,0.07302315533161163,-0.05379471927881241
1761402343361772300,4.201772216796875,9.799018859863281,0.07302315533161163,-0.05147533491253853
1761402343371853800,4.211853759765625,9.78712272644043,0.06456862390041351,-0.05140051618218422
1761402343381934300,4.221934326171875,9.79333209991455,0.06471826136112213,-0.05394435673952103
1761402343392030000,4.232030029296875,9.774253845214844,0.08252514153718948,-0.0454898327589035
1761402343402096600,4.2420966796875,9.794529914855957,0.0719008669257164,-0.05155015364289284
1761402343412172800,4.2521728515625,9.787346839904785,0.06591536849737167,-0.04676175117492676
1761402343422257400,4.26225732421875,9.789815902709961,0.0694318488240242,-0.04077624902129173
1761402343432338700,4.272338623046875,9.78136157989502,0.06584054976701736,-0.06224924325942993
1761402343442419500,4.28241943359375,9.792135238647461,0.06471826136112213,-0.05514145642518997
1761402343452501200,4.292501220703125,9.784953117370605,0.07182604819536209,-0.047958854585886
1761402343462581500,4.30258154296875,9.791686058044434,0.06815993040800095,-0.057311203330755234
1761402343472662800,4.312662841796875,9.785776138305664,0.07287351787090302,-0.05132569745182991
1761402343482739500,4.322739501953125,9.786972999572754,0.0752677172422409,-0.04414309561252594
1761402343492824300,4.33282421875,9.79056453704834,0.06337152421474457,-0.0537199005484581
1761402343502905600,4.342905517578125,9.789366722106934,0.06576573103666306,-0.045415014028549194
1761402343512961000,4.3529609375,9.786897659301758,0.06576573103666306,-0.05850830301642418
1761402343523068200,4.363068115234375,9.797672271728516,0.06935703009366989,-0.0561889223754406
1761402343533149200,4.373149169921875,9.79288387298584,0.07414543628692627,-0.05611410364508629
1761402343543206100,4.3832060546875,9.781136512756348,0.07175122946500778,-0.05140051618218422
1761402343553311200,4.393311279296875,9.785850524902344,0.07055412977933884,-0.0561889223754406
1761402343563391500,4.4033916015625,9.79063892364502,0.07534253597259521,-0.05259761959314346
1761402343573472800,4.41347265625,9.797821998596191,0.06464344263076782,-0.05386953800916672
1761402343583554300,4.42355419921875,9.784728050231934,0.06935703009366989,-0.05379471927881241
1761402343593634300,4.43363427734375,9.78824520111084,0.06337152421474457,-0.05738602206110954
1761402343603711700,4.443711669921875,9.802610397338867,0.07062894850969315,-0.05506663769483566
1761402343613796600,4.453796630859375,9.794230461120605,0.06464344263076782,-0.05147533491253853
1761402343623878400,4.46387841796875,9.779939651489258,0.0777367353439331,-0.052522800862789154
1761402343633958400,4.47395849609375,9.787047386169434,0.06935703009366989,-0.0561889223754406
1761402343644014300,4.484014404296875,9.78712272644043,0.07055412977933884,-0.043020810931921005
1761402343654120400,4.494120361328125,9.784728050231934,0.07414543628692627,-0.05259761959314346
1761402343664201700,4.50420166015625,9.796624183654785,0.06823474913835526,-0.05147533491253853
1761402343674262800,4.5142626953125,9.785924911499023,0.06935703009366989,-0.04661211371421814
1761402343694426000,4.534426025390625,9.800215721130371,0.07062894850969315,-0.04908113554120064
1761402343704525600,4.544525634765625,9.794529914855957,0.07429507374763489,-0.05394435673952103
1761402343714606300,4.5546064453125,9.789741516113281,0.07541735470294952,-0.05394435673952103
1761402343724687400,4.564687255859375,9.784953117370605,0.07062894850969315,-0.05035305395722389
1761402343734750700,4.574750732421875,9.7837553024292,0.07541735470294952,-0.04676175117492676
1761402343744850400,4.584850341796875,9.788543701171875,0.07541735470294952,-0.04556465148925781
1761402343754930400,4.594930419921875,9.79333209991455,0.06471826136112213,-0.05992986261844635
1761402343765011500,4.605011474609375,9.786149978637695,0.06352116167545319,-0.05035305395722389
1761402343775092200,4.61509228515625,9.786149978637695,0.06471826136112213,-0.05753565952181816
1761402343785173200,4.62517333984375,9.790938377380371,0.06352116167545319,-0.05155015364289284
1761402343795254300,4.635254150390625,9.7837553024292,0.06584054976701736,-0.05506663769483566
1761402343805335600,4.64533544921875,9.79333209991455,0.06232406198978424,-0.056338559836149216
1761402343815416300,4.655416259765625,9.78255844116211,0.07182604819536209,-0.05147533491253853
1761402343825497000,4.6654970703125,9.794529914855957,0.06830956786870956,-0.056338559836149216
1761402343835578000,4.675578125,9.784953117370605,0.07422025501728058,-0.05506663769483566
1761402343845620000,4.685619873046875,9.78255844116211,0.06344634294509888,-0.047958854585886
1761402343855740700,4.69574072265625,9.792135238647461,0.06711246818304062,-0.05155015364289284
1761402343865828400,4.705828369140625,9.778742790222168,0.06935703009366989,-0.057311203330755234
1761402343875902200,4.715902099609375,9.783531188964844,0.07534253597259521,-0.05379471927881241
1761402343885983200,4.725983154296875,9.782334327697754,0.07294833660125732,-0.054991818964481354
1761402343896064000,4.73606396484375,9.799018859863281,0.07062894850969315,-0.06097732484340668
1761402343906145500,4.7461455078125,9.796624183654785,0.06823474913835526,-0.05147533491253853
1761402343916226000,4.75622607421875,9.796624183654785,0.06464344263076782,-0.05147533491253853
1761402343926282200,4.7662822265625,9.801412582397461,0.07422025501728058,-0.05027823522686958
1761402343936388000,4.77638818359375,9.800215721130371,0.07062894850969315,-0.061052143573760986
1761402343946469400,4.786469482421875,9.781136512756348,0.06815993040800095,-0.054991818964481354
1761402343956550700,4.796550537109375,9.781136512756348,0.06935703009366989,-0.05140051618218422
1761402343966631700,4.806631591796875,9.79183578491211,0.06584054976701736,-0.0561889223754406
1761402343976712700,4.816712646484375,9.79183578491211,0.06344634294509888,-0.05379471927881241
1761402343986793000,4.82679296875,9.787047386169434,0.07294833660125732,-0.06456862390041351
1761402343996874200,4.836874267578125,9.785850524902344,0.07175122946500778,-0.054991818964481354
1761402344006964000,4.8469638671875,9.793033599853516,0.06464344263076782,-0.054991818964481354
1761402344017037000,4.857037109375,9.797896385192871,0.07422025501728058,-0.04668693244457245
1761402344027117800,4.867117919921875,9.79183578491211,0.07294833660125732,-0.05978022515773773
1761402344037198800,4.87719873046875,9.795427322387695,0.06584054976701736,-0.05147533491253853
1761402344047277300,4.88727734375,9.793033599853516,0.07294833660125732,-0.05379471927881241
1761402344057360000,4.89735986328125,9.795427322387695,0.07182604819536209,-0.054991818964481354
1761402344067441200,4.907441162109375,9.79183578491211,0.07175122946500778,-0.0561889223754406
1761402344077523000,4.91752294921875,9.795427322387695,0.06823474913835526,-0.0561889223754406
1761402344087603700,4.927603759765625,9.791911125183105,0.07414543628692627,-0.050203416496515274
1761402344097684000,4.93768408203125,9.799018859863281,0.07302315533161163,-0.05267243832349777
1761402344107765200,4.94776513671875,9.788543701171875,0.06471826136112213,-0.05035305395722389
1761402344117846500,4.957846435546875,9.78136157989502,0.06584054976701736,-0.06224924325942993
1761402344127927300,4.96792724609375,9.784953117370605,0.07182604819536209,-0.05626374110579491
1761402344137990000,4.977989990234375,9.78255844116211,0.06471826136112213,-0.06344634294509888
1761402344148063500,4.9880634765625,9.786149978637695,0.061126962304115295,-0.047958854585886
1761402344158168300,4.998168212890625,9.796923637390137,0.058732759207487106,-0.05035305395722389
1761402344168251000,5.0082509765625,9.801712036132812,0.06830956786870956,-0.05162497237324715
1761402344178307000,5.01830712890625,9.787346839904785,0.0694318488240242,-0.04436755180358887
1761402344188413000,5.028412841796875,9.805004119873047,0.07900865375995636,-0.0586579404771328
1761402344198494000,5.038493896484375,9.795427322387695,0.07302315533161163,-0.05978022515773773
1761402344208575000,5.048574951171875,9.79183578491211,0.07062894850969315,-0.05858312174677849
1761402344218655700,5.05865576171875,9.793033599853516,0.07414543628692627,-0.05140051618218422
1761402344228736800,5.06873681640625,9.787047386169434,0.06935703009366989,-0.05379471927881241
1761402344238814000,5.07881396484375,9.782258987426758,0.06935703009366989,-0.0561889223754406
1761402344248899000,5.088899169921875,9.78831958770752,0.07175122946500778,-0.04421791434288025
1761402344258980400,5.09898046875,9.7907133102417,0.06576573103666306,-0.04661211371421814
1761402344269059800,5.109059814453125,9.788543701171875,0.06471826136112213,-0.05035305395722389
1761402344279142000,5.119141845703125,9.7837553024292,0.06823474913835526,-0.0586579404771328
1761402344289179100,5.12917919921875,9.7837553024292,0.06703764945268631,-0.05267243832349777
1761402344299304000,5.139303955078125,9.787346839904785,0.06232406198978424,-0.05753565952181816
1761402344309380900,5.149380859375,9.786149978637695,0.07182604819536209,-0.05394435673952103
1761402344319465700,5.1594658203125,9.794529914855957,0.06471826136112213,-0.05274725705385208
1761402344329546800,5.169546630859375,9.790938377380371,0.06950666755437851,-0.058732759207487106
1761402344339627800,5.179627685546875,9.792060852050781,0.07549217343330383,-0.06471826136112213
1761402344349709000,5.189708984375,9.78944206237793,0.06815993040800095,-0.0561889223754406
1761402344359790300,5.199790283203125,9.785924911499023,0.06935703009366989,-0.04661211371421814
1761402344369866800,5.20986669921875,9.777545928955078,0.07407061755657196,-0.04893149808049202
1761402344379952000,5.2199521484375,9.78712272644043,0.07055412977933884,-0.05140051618218422
1761402344390048000,5.230048095703125,9.79063892364502,0.07055412977933884,-0.05379471927881241
1761402344400114000,5.240114013671875,9.79063892364502,0.07175122946500778,-0.05379471927881241
1761402344410195000,5.25019482421875,9.793033599853516,0.06703764945268631,-0.05140051618218422
1761402344420276200,5.260276123046875,9.78831958770752,0.06576573103666306,-0.05140051618218422
1761402344430356700,5.270356689453125,9.79527759552002,0.06456862390041351,-0.05379471927881241
1761402344440433700,5.28043359375,9.788169860839844,0.07175122946500778,-0.057311203330755234
1761402344450493200,5.2904931640625,9.785700798034668,0.06097732484340668,-0.05850830301642418
1761402344460600000,5.30060009765625,9.790489196777344,0.06217442452907562,-0.062099605798721313
1761402344470681000,5.31068115234375,9.79176139831543,0.07175122946500778,-0.0537199005484581
1761402344480761900,5.320761962890625,9.785776138305664,0.06928221136331558,-0.04653729498386383
1761402344490842400,5.33084228515625,9.786972999572754,0.05978022515773773,-0.04653729498386383
1761402344500919800,5.340919921875,9.788095474243164,0.06217442452907562,-0.05850830301642418
1761402344510979800,5.350979736328125,9.788543701171875,0.058732759207487106,-0.05394435673952103
1761402344521086000,5.3610859375,9.788543701171875,0.06830956786870956,-0.058732759207487106
1761402344531166700,5.371166748046875,9.78255844116211,0.06823474913835526,-0.05386953800916672
1761402344541222100,5.38122216796875,9.79333209991455,0.06950666755437851,-0.04676175117492676
1761402344551328500,5.39132861328125,9.794529914855957,0.06591536849737167,-0.04915595427155495
1761402344561406000,5.401406005859375,9.790938377380371,0.07549217343330383,-0.05514145642518997
1761402344571491600,5.41149169921875,9.78136157989502,0.07062894850969315,-0.05506663769483566
1761402344581571300,5.4215712890625,9.795726776123047,0.06591536849737167,-0.05514145642518997
1761402344591652600,5.431652587890625,9.785850524902344,0.06217442452907562,-0.054991818964481354
1761402344611814400,5.451814453125,9.78944206237793,0.07175122946500778,-0.05379471927881241
1761402344621895200,5.461895263671875,9.781136512756348,0.07294833660125732,-0.047809213399887085
1761402344631972600,5.47197265625,9.785850524902344,0.06935703009366989,-0.06337152421474457
1761402344642057700,5.4820576171875,9.787047386169434,0.06456862390041351,-0.0561889223754406
1761402344652139000,5.492138916015625,9.778742790222168,0.07414543628692627,-0.047809213399887085
1761402344662201600,5.50220166015625,9.78944206237793,0.06815993040800095,-0.0561889223754406
1761402344672300500,5.512300537109375,9.78712272644043,0.07653963565826416,-0.04900631681084633
1761402344682381600,5.522381591796875,9.78712272644043,0.07414543628692627,-0.050203416496515274
1761402344692449800,5.53244970703125,9.787047386169434,0.06935703009366989,-0.05738602206110954
1761402344702543400,5.54254345703125,9.78831958770752,0.07414543628692627,-0.050203416496515274
1761402344712624600,5.552624755859375,9.7907133102417,0.06815993040800095,-0.045415014028549194
1761402344722705700,5.56270556640625,9.796699523925781,0.06823474913835526,-0.0454898327589035
1761402344732786400,5.572786376953125,9.784653663635254,0.06576573103666306,-0.05379471927881241
1761402344742867500,5.582867431640625,9.79063892364502,0.06344634294509888,-0.0561889223754406
1761402344752948500,5.592948486328125,9.78944206237793,0.06935703009366989,-0.05379471927881241
1761402344763025400,5.603025390625,9.783531188964844,0.06576573103666306,-0.05379471927881241
1761402344773110500,5.613110595703125,9.79063892364502,0.066962830722332,-0.05379471927881241
1761402344783191800,5.62319189453125,9.79183578491211,0.06823474913835526,-0.05379471927881241
1761402344793272600,5.6332724609375,9.794230461120605,0.0777367353439331,-0.05379471927881241
1761402344803352800,5.643352783203125,9.784728050231934,0.07893383502960205,-0.054991818964481354
1761402344813410300,5.653410400390625,9.782334327697754,0.07175122946500778,-0.050203416496515274
1761402344823511600,5.663511474609375,9.785850524902344,0.06456862390041351,-0.06097732484340668
1761402344833596400,5.673596435546875,9.796923637390137,0.06950666755437851,-0.04915595427155495
1761402344843699200,5.68369921875,9.787346839904785,0.07070376724004745,-0.0586579404771328
1761402344853758500,5.693758544921875,9.792135238647461,0.0719008669257164,-0.05155015364289284
1761402344863839200,5.703839111328125,9.792135238647461,0.06471826136112213,-0.05035305395722389
1761402344873920500,5.71392041015625,9.784953117370605,0.07541735470294952,-0.05506663769483566
1761402344883997400,5.72399755859375,9.792135238647461,0.06711246818304062,-0.05514145642518997
1761402344894081500,5.73408154296875,9.790938377380371,0.06830956786870956,-0.04556465148925781
1761402344904163600,5.74416357421875,9.796923637390137,0.06830956786870956,-0.05394435673952103
1761402344914219500,5.754219482421875,9.790414810180664,0.07407061755657196,-0.04653729498386383
1761402344924290600,5.76429052734375,9.794005393981934,0.07167641073465347,-0.05611410364508629
1761402344934406700,5.77440673828125,9.790414810180664,0.07287351787090302,-0.052522800862789154
1761402344944487700,5.78448779296875,9.789216995239258,0.06569091230630875,-0.04653729498386383
1761402344954588400,5.79458837890625,9.783231735229492,0.05970540642738342,-0.05364508181810379
1761402344964624400,5.804624267578125,9.79879379272461,0.07167641073465347,-0.052522800862789154
1761402344974730200,5.814730224609375,9.792808532714844,0.06569091230630875,-0.052522800862789154
1761402344984791800,5.824791748046875,9.787945747375488,0.06569091230630875,-0.062024787068367004
1761402345004973000,5.84497314453125,9.782408714294434,0.07302315533161163,-0.06097732484340668
1761402345015054600,5.8550546875,9.78600025177002,0.0694318488240242,-0.05386953800916672
1761402345025128200,5.865128173828125,9.783605575561523,0.07182604819536209,-0.05386953800916672
1761402345035216100,5.875216064453125,9.781211853027344,0.07175122946500778,-0.05140051618218422
1761402345045297700,5.885297607421875,9.790788650512695,0.07062894850969315,-0.05386953800916672
1761402345055378200,5.895378173828125,9.776423454284668,0.0586579404771328,-0.05379471927881241
1761402345065462800,5.905462890625,9.791985511779785,0.07182604819536209,-0.05027823522686958
1761402345075540200,5.915540283203125,9.790938377380371,0.07309797406196594,-0.05035305395722389
1761402345085622000,5.9256220703125,9.784953117370605,0.07182604819536209,-0.05746084079146385
1761402345095683300,5.935683349609375,9.790938377380371,0.06591536849737167,-0.05394435673952103
1761402345105758200,5.94575830078125,9.787346839904785,0.06591536849737167,-0.056338559836149216
1761402345115864000,5.955864013671875,9.78255844116211,0.07302315533161163,-0.05626374110579491
1761402345125945000,5.965945068359375,9.79333209991455,0.06232406198978424,-0.05035305395722389
1761402345136001000,5.9760009765625,9.7837553024292,0.07182604819536209,-0.05985504388809204
1761402345146107600,5.986107666015625,9.778966903686523,0.07302315533161163,-0.05506663769483566
1761402345156188200,5.996188232421875,9.782334327697754,0.07653963565826416,-0.05140051618218422
1761402345166269000,6.00626904296875,9.784653663635254,0.06935703009366989,-0.05978022515773773
1761402345176350000,6.016349853515625,9.787047386169434,0.06456862390041351,-0.05379471927881241
1761402345186431000,6.026430908203125,9.785924911499023,0.06217442452907562,-0.050203416496515274
1761402345196512800,6.0365126953125,9.785850524902344,0.07893383502960205,-0.05738602206110954
1761402345206593800,6.04659375,9.795427322387695,0.06703764945268631,-0.0561889223754406
1761402345216645600,6.056645751953125,9.794230461120605,0.06584054976701736,-0.0561889223754406
1761402345226755300,6.06675537109375,9.794230461120605,0.06823474913835526,-0.05379471927881241
1761402345236836000,6.076836181640625,9.789741516113281,0.0719008669257164,-0.05035305395722389
1761402345246918000,6.08691796875,9.787346839904785,0.06830956786870956,-0.05514145642518997
1761402345256998000,6.096997802734375,9.788543701171875,0.06950666755437851,-0.05514145642518997
1761402345267079200,6.1070791015625,9.788543701171875,0.0719008669257164,-0.06224924325942993
1761402345277160000,6.117159912109375,9.786149978637695,0.07070376724004745,-0.06224924325942993
1761402345287241000,6.127240966796875,9.801637649536133,0.0635959804058075,-0.058732759207487106
1761402345297323000,6.137322998046875,9.79333209991455,0.07788637280464172,-0.047958854585886
1761402345307403800,6.14740380859375,9.789741516113281,0.06591536849737167,-0.05394435673952103
1761402345317484500,6.157484619140625,9.787047386169434,0.06456862390041351,-0.0561889223754406
1761402345327565000,6.16756494140625,9.784728050231934,0.07653963565826416,-0.05259761959314346
1761402345337646000,6.17764599609375,9.79183578491211,0.06703764945268631,-0.05978022515773773
1761402345347727600,6.1877275390625,9.787047386169434,0.07175122946500778,-0.05379471927881241
1761402345357808000,6.19780810546875,9.784728050231934,0.07055412977933884,-0.05259761959314346
1761402345367889000,6.207888916015625,9.79063892364502,0.07055412977933884,-0.05140051618218422
1761402345377970700,6.217970703125,9.79063892364502,0.06935703009366989,-0.05738602206110954
1761402345388046800,6.228046875,9.773954391479492,0.06217442452907562,-0.050128597766160965
1761402345398128000,6.238128173828125,9.792210578918457,0.06718728691339493,-0.06000468134880066
1761402345408209700,6.248209716796875,9.787496566772461,0.06830956786870956,-0.05753565952181816
1761402345418294000,6.2582939453125,9.791088104248047,0.07668927311897278,-0.054019175469875336
1761402345428375000,6.268375,9.787496566772461,0.06471826136112213,-0.05514145642518997
1761402345438456000,6.2784560546875,9.794678688049316,0.07077858597040176,-0.054019175469875336
1761402345448511700,6.28851171875,9.782708168029785,0.06711246818304062,-0.05514145642518997
1761402345458614500,6.298614501953125,9.798270225524902,0.07317279279232025,-0.05282207578420639
1761402345468700000,6.308699951171875,9.793481826782227,0.07070376724004745,-0.05162497237324715
1761402345478780200,6.3187802734375,9.790788650512695,0.0694318488240242,-0.05147533491253853
1761402345488835800,6.3288359375,9.790788650512695,0.061052143573760986,-0.05147533491253853
1761402345498942500,6.3389423828125,9.777620315551758,0.07653963565826416,-0.054991818964481354
1761402345509022700,6.349022705078125,9.799168586730957,0.07302315533161163,-0.05626374110579491
1761402345519100400,6.359100341796875,9.800365447998047,0.07429507374763489,-0.05746084079146385
1761402345529184800,6.369184814453125,9.790788650512695,0.06703764945268631,-0.05027823522686958
1761402345539266300,6.379266357421875,9.78719711303711,0.07781155407428741,-0.05267243832349777
1761402345549347300,6.389347412109375,9.783605575561523,0.07661445438861847,-0.06456862390041351
1761402345559429000,6.39942919921875,9.793033599853516,0.06584054976701736,-0.06337152421474457
1761402345569509600,6.409509521484375,9.787047386169434,0.06815993040800095,-0.05379471927881241
1761402345579590100,6.419590087890625,9.79183578491211,0.07062894850969315,-0.06217442452907562
1761402345589666800,6.429666748046875,9.787047386169434,0.06456862390041351,-0.05259761959314346
1761402345599752400,6.43975244140625,9.782334327697754,0.07055412977933884,-0.05140051618218422
1761402345609808100,6.44980810546875,9.783531188964844,0.06097732484340668,-0.04421791434288025
1761402345619914500,6.45991455078125,9.78712272644043,0.07534253597259521,-0.04900631681084633
1761402345629995000,6.4699951171875,9.78831958770752,0.07055412977933884,-0.04661211371421814
1761402345640076500,6.48007666015625,9.782184600830078,0.07407061755657196,-0.05132569745182991
1761402345650153000,6.490153076171875,9.789366722106934,0.07175122946500778,-0.05611410364508629
1761402345660238300,6.50023828125,9.779789924621582,0.07167641073465347,-0.05970540642738342
1761402345670318800,6.51031884765625,9.796549797058105,0.07294833660125732,-0.05140051618218422
1761402345680400100,6.520400146484375,9.791686058044434,0.06456862390041351,-0.05970540642738342
1761402345690480600,6.530480712890625,9.791686058044434,0.06576573103666306,-0.05850830301642418
1761402345700525000,6.540525146484375,9.795352935791016,0.07294833660125732,-0.05379471927881241
1761402345710643500,6.5506435546875,9.784578323364258,0.0752677172422409,-0.05611410364508629
1761402345720720000,6.560719970703125,9.789366722106934,0.06935703009366989,-0.054917000234127045
1761402345730804700,6.5708046875,9.79415512084961,0.06576573103666306,-0.050203416496515274
1761402345740886000,6.580885986328125,9.786897659301758,0.06217442452907562,-0.05970540642738342
1761402345750967000,6.590967041015625,9.786972999572754,0.07407061755657196,-0.05611410364508629
1761402345761047600,6.601047607421875,9.79288387298584,0.06576573103666306,-0.057311203330755234
1761402345771128600,6.611128662109375,9.786972999572754,0.066962830722332,-0.05611410364508629
1761402345781187600,6.6211875,9.779789924621582,0.0752677172422409,-0.05850830301642418
1761402345791290600,6.63129052734375,9.783381462097168,0.06928221136331558,-0.05132569745182991
1761402345801371100,6.64137109375,9.78869342803955,0.06352116167545319,-0.05521627515554428
1761402345811452700,6.65145263671875,9.787496566772461,0.07070376724004745,-0.056338559836149216
1761402345821533700,6.66153369140625,9.785101890563965,0.06232406198978424,-0.056338559836149216
1761402345831589600,6.671589599609375,9.785101890563965,0.07549217343330383,-0.05753565952181816
1761402345841692400,6.6816923828125,9.79101276397705,0.06239888072013855,-0.06239888072013855
1761402345851776500,6.691776611328125,9.796998977661133,0.06838438659906387,-0.05521627515554428
1761402345861858000,6.701858154296875,9.786299705505371,0.06471826136112213,-0.058732759207487106
1761402345871912700,6.71191259765625,9.78869342803955,0.06711246818304062,-0.056338559836149216
1761402345882020000,6.72202001953125,9.782034873962402,0.07287351787090302,-0.054842181503772736
1761402345892100400,6.732100341796875,9.79520320892334,0.06928221136331558,-0.05611410364508629
1761402345902181600,6.742181640625,9.790414810180664,0.07407061755657196,-0.057236384600400925
1761402345912258600,6.752258544921875,9.79752254486084,0.06456862390041351,-0.057311203330755234
1761402345922344200,6.76234423828125,9.79520320892334,0.0644938051700592,-0.04893149808049202
1761402345932424400,6.772424560546875,9.79640007019043,0.06097732484340668,-0.042945992201566696
1761402345942505500,6.78250537109375,9.794005393981934,0.05970540642738342,-0.045340195298194885
1761402345952587300,6.792587158203125,9.791611671447754,0.08245032280683517,-0.04653729498386383
1761402345962667500,6.80266748046875,9.794529914855957,0.07070376724004745,-0.05394435673952103
1761402345972745200,6.8127451171875,9.795726776123047,0.0719008669257164,-0.04676175117492676
1761402345982829000,6.8228291015625,9.787346839904785,0.06830956786870956,-0.056338559836149216
1761402345992926500,6.832926513671875,9.795726776123047,0.06830956786870956,-0.05035305395722389
1761402346002991900,6.842991943359375,9.787346839904785,0.0694318488240242,-0.05274725705385208
1761402346023154000,6.86315380859375,9.79333209991455,0.0719008669257164,-0.05035305395722389
1761402346033226500,6.8732265625,9.786149978637695,0.06823474913835526,-0.04676175117492676
1761402346043312000,6.88331201171875,9.790788650512695,0.06584054976701736,-0.05027823522686958
1761402346053397000,6.89339697265625,9.7883939743042,0.07422025501728058,-0.05506663769483566
1761402346073558300,6.913558349609375,9.78719711303711,0.061052143573760986,-0.05506663769483566
1761402346083639300,6.923639404296875,9.793182373046875,0.07302315533161163,-0.05386953800916672
1761402346093721000,6.93372119140625,9.79797077178955,0.06711246818304062,-0.05386953800916672
1761402346103797500,6.943797607421875,9.789591789245605,0.07062894850969315,-0.05386953800916672
1761402346113883100,6.953883056640625,9.793182373046875,0.06823474913835526,-0.05147533491253853
1761402346123964000,6.9639638671875,9.79333209991455,0.06950666755437851,-0.04915595427155495
1761402346134045200,6.974045166015625,9.786149978637695,0.06711246818304062,-0.05985504388809204
1761402346144148200,6.984148193359375,9.794529914855957,0.07668927311897278,-0.05394435673952103
1761402346154181000,6.99418115234375,9.799318313598633,0.06950666755437851,-0.05514145642518997
1761402346164270800,7.004270751953125,9.794529914855957,0.06591536849737167,-0.05753565952181816
1761402346174369300,7.014369384765625,9.786149978637695,0.07302315533161163,-0.05506663769483566
1761402346184457000,7.02445703125,9.790938377380371,0.06352116167545319,-0.047958854585886
1761402346194530800,7.03453076171875,9.789741516113281,0.07781155407428741,-0.05753565952181816
1761402346204611600,7.044611572265625,9.796923637390137,0.06950666755437851,-0.056338559836149216
1761402346214692900,7.05469287109375,9.794529914855957,0.061126962304115295,-0.05394435673952103
1761402346224774000,7.06477392578125,9.792135238647461,0.07549217343330383,-0.05753565952181816
1761402346234855400,7.07485546875,9.79333209991455,0.07668927311897278,-0.05155015364289284
1761402346244910000,7.08491015625,9.795726776123047,0.06471826136112213,-0.05274725705385208
1761402346254991400,7.094991455078125,9.792135238647461,0.06711246818304062,-0.04556465148925781
1761402346265098200,7.10509814453125,9.784953117370605,0.07062894850969315,-0.05155015364289284
1761402346275178200,7.11517822265625,9.796923637390137,0.07429507374763489,-0.05274725705385208
1761402346285259800,7.125259765625,9.785850524902344,0.06815993040800095,-0.0561889223754406
1761402346295340800,7.1353408203125,9.787047386169434,0.06576573103666306,-0.05379471927881241
1761402346305421600,7.145421630859375,9.793033599853516,0.07182604819536209,-0.05738602206110954
1761402346315502600,7.155502685546875,9.78712272644043,0.07414543628692627,-0.04900631681084633
1761402346325583400,7.165583251953125,9.785850524902344,0.07055412977933884,-0.06217442452907562
1761402346335639300,7.175639404296875,9.78712272644043,0.06815993040800095,-0.047809213399887085
1761402346345720300,7.18572021484375,9.79183578491211,0.06344634294509888,-0.050203416496515274
1761402346355826000,7.195825927734375,9.78831958770752,0.07175122946500778,-0.043020810931921005
1761402346365907500,7.205907470703125,9.801562309265137,0.0719008669257164,-0.05155015364289284
1761402346375962600,7.215962646484375,9.78719711303711,0.07182604819536209,-0.05626374110579491
1761402346386069200,7.2260693359375,9.780014991760254,0.06935703009366989,-0.0561889223754406
1761402346396150300,7.236150390625,9.791985511779785,0.07062894850969315,-0.05746084079146385
1761402346406231000,7.24623095703125,9.79797077178955,0.058732759207487106,-0.0586579404771328
1761402346416312600,7.2563125,9.7860746383667,0.06823474913835526,-0.047884032130241394
1761402346426393900,7.266393798828125,9.792060852050781,0.061052143573760986,-0.043095629662275314
1761402346436449000,7.276448974609375,9.796773910522461,0.06232406198978424,-0.0586579404771328
1761402346446537200,7.286537109375,9.789741516113281,0.06711246818304062,-0.05394435673952103
1761402346456636400,7.296636474609375,9.787346839904785,0.06703764945268631,-0.04676175117492676
1761402346466734000,7.306734130859375,9.786149978637695,0.06830956786870956,-0.0586579404771328
1761402346476798500,7.316798583984375,9.789741516113281,0.07900865375995636,-0.05035305395722389
1761402346486879000,7.32687890625,9.792135238647461,0.07070376724004745,-0.04436755180358887
1761402346496960300,7.336960205078125,9.789741516113281,0.06591536849737167,-0.05992986261844635
1761402346507041000,7.347041015625,9.79333209991455,0.07429507374763489,-0.05155015364289284
1761402346517121800,7.357121826171875,9.798046112060547,0.07070376724004745,-0.061126962304115295
1761402346527203000,7.367203125,9.779939651489258,0.06576573103666306,-0.05140051618218422
1761402346537284000,7.3772841796875,9.783456802368164,0.06217442452907562,-0.054991818964481354
1761402346547366100,7.3873662109375,9.79183578491211,0.0694318488240242,-0.0561889223754406
1761402346557446100,7.397446044921875,9.78824520111084,0.06815993040800095,-0.05379471927881241
1761402346567527200,7.407527099609375,9.79183578491211,0.05985504388809204,-0.06337152421474457
1761402346577608400,7.4176083984375,9.79183578491211,0.06823474913835526,-0.05738602206110954
1761402346587663400,7.427663330078125,9.784728050231934,0.07294833660125732,-0.05259761959314346
1761402346597738200,7.43773828125,9.78831958770752,0.07534253597259521,-0.047809213399887085
1761402346607851000,7.44785107421875,9.784428596496582,0.06808511167764664,-0.05364508181810379
1761402346617920300,7.457920166015625,9.784428596496582,0.06688801199197769,-0.0512508787214756
1761402346628010500,7.468010498046875,9.79640007019043,0.06808511167764664,-0.050128597766160965
1761402346638089700,7.47808984375,9.799991607666016,0.07407061755657196,-0.047734394669532776
1761402346648172300,7.48817236328125,9.785626411437988,0.07646481692790985,-0.050053779035806656
1761402346658232800,7.49823291015625,9.791611671447754,0.0752677172422409,-0.05603928491473198
1761402346668337200,7.508337158203125,9.786823272705078,0.06569091230630875,-0.047734394669532776
1761402346678414000,7.5184140625,9.788020133972168,0.06688801199197769,-0.04893149808049202
1761402346688465000,7.52846484375,9.800664901733398,0.06958148628473282,-0.04563947021961212
1761402346698580000,7.538580078125,9.792284965515137,0.07549217343330383,-0.056413378566503525
1761402346708660700,7.54866064453125,9.794678688049316,0.06599018722772598,-0.0504278726875782
1761402346718741800,7.55874169921875,9.795801162719727,0.061201781034469604,-0.061201781034469604
1761402346728797400,7.56879736328125,9.785101890563965,0.06711246818304062,-0.05274725705385208
1761402346738900200,7.578900146484375,9.792284965515137,0.07788637280464172,-0.05282207578420639
1761402346748985600,7.588985595703125,9.793481826782227,0.06950666755437851,-0.05282207578420639
1761402346759065900,7.59906591796875,9.795876502990723,0.06958148628473282,-0.05282207578420639
1761402346769147100,7.609147216796875,9.783605575561523,0.06344634294509888,-0.05147533491253853
1761402346779228000,7.619227783203125,9.7883939743042,0.07541735470294952,-0.05746084079146385
1761402346789309400,7.629309326171875,9.795577049255371,0.07302315533161163,-0.0586579404771328
1761402346799386000,7.63938623046875,9.78368091583252,0.07294833660125732,-0.047884032130241394
1761402346809470700,7.649470703125,9.789666175842285,0.07182604819536209,-0.043095629662275314
1761402346829632800,7.6696328125,9.789591789245605,0.07062894850969315,-0.05147533491253853
1761402346839714600,7.679714599609375,9.78480339050293,0.06224924325942993,-0.05386953800916672
1761402346849794800,7.689794921875,9.784953117370605,0.061126962304115295,-0.0586579404771328
1761402346859875800,7.699875732421875,9.78255844116211,0.06584054976701736,-0.05386953800916672
1761402346869933000,7.70993310546875,9.78255844116211,0.07182604819536209,-0.047884032130241394
1761402346880019500,7.72001953125,9.788543701171875,0.07541735470294952,-0.056338559836149216
1761402346890119700,7.73011962890625,9.792135238647461,0.07309797406196594,-0.05155015364289284
1761402346900199700,7.74019970703125,9.795726776123047,0.0719008669257164,-0.058732759207487106
1761402346910281000,7.750281005859375,9.7837553024292,0.07422025501728058,-0.047884032130241394
1761402346920361700,7.76036181640625,9.792135238647461,0.06232406198978424,-0.05394435673952103
1761402346930417700,7.770417724609375,9.79647445678711,0.06217442452907562,-0.05379471927881241
1761402346940523800,7.780523681640625,9.795352935791016,0.07534253597259521,-0.047809213399887085
1761402346950604800,7.790604736328125,9.797746658325195,0.05858312174677849,-0.045415014028549194
1761402346960685800,7.800685791015625,9.786972999572754,0.066962830722332,-0.045340195298194885
1761402346970767000,7.81076708984375,9.79527759552002,0.07414543628692627,-0.05850830301642418
1761402346980848400,7.820848388671875,9.79176139831543,0.07055412977933884,-0.0537199005484581
1761402346990929200,7.83092919921875,9.786972999572754,0.0752677172422409,-0.03935468941926956
1761402347001006300,7.84100634765625,9.786972999572754,0.06337152421474457,-0.05611410364508629
1761402347011090400,7.85109033203125,9.789591789245605,0.07302315533161163,-0.04908113554120064
1761402347021171700,7.861171630859375,9.7883939743042,0.06464344263076782,-0.05506663769483566
1761402347031252500,7.87125244140625,9.78719711303711,0.07302315533161163,-0.05746084079146385
1761402347041334500,7.88133447265625,9.783605575561523,0.07062894850969315,-0.05978022515773773
1761402347051414800,7.891414794921875,9.789591789245605,0.06464344263076782,-0.05386953800916672
1761402347061491700,7.90149169921875,9.78719711303711,0.06224924325942993,-0.061052143573760986
1761402347071533300,7.911533203125,9.782408714294434,0.06224924325942993,-0.05506663769483566
1761402347081658400,7.921658447265625,9.7860746383667,0.07062894850969315,-0.04668693244457245
1761402347091738600,7.931738525390625,9.793033599853516,0.06703764945268631,-0.05379471927881241
1761402347101820000,7.94181982421875,9.784728050231934,0.07414543628692627,-0.05259761959314346
1761402347111875600,7.95187548828125,9.783456802368164,0.06815993040800095,-0.05738602206110954
1761402347121977900,7.961977783203125,9.799018859863281,0.06823474913835526,-0.05626374110579491
1761402347132062700,7.972062744140625,9.784653663635254,0.07055412977933884,-0.054991818964481354
1761402347142143500,7.9821435546875,9.79063892364502,0.07534253597259521,-0.05259761959314346
1761402347152225000,7.99222509765625,9.78951644897461,0.07175122946500778,-0.05140051618218422
1761402347162305500,8.002305419921875,9.78944206237793,0.06935703009366989,-0.05379471927881241
1761402347172387000,8.012386962890625,9.792135238647461,0.07788637280464172,-0.05394435673952103
1761402347182467300,8.02246728515625,9.800439834594727,0.08028057217597961,-0.06352116167545319
1761402347192544500,8.03254443359375,9.799318313598633,0.0719008669257164,-0.056338559836149216
1761402347202629600,8.042629638671874,9.777770042419434,0.06464344263076782,-0.04908113554120064
1761402347212710700,8.052710693359375,9.790938377380371,0.0719008669257164,-0.056338559836149216
1761402347222776800,8.06277685546875,9.790938377380371,0.0719008669257164,-0.058732759207487106
1761402347232872700,8.072872802734375,9.798120498657227,0.06830956786870956,-0.05035305395722389
1761402347242953700,8.08295361328125,9.787346839904785,0.07541735470294952,-0.05746084079146385
1761402347253011700,8.09301171875,9.78944206237793,0.06935703009366989,-0.05259761959314346
1761402347263087400,8.10308740234375,9.7907133102417,0.066962830722332,-0.050203416496515274
1761402347273196800,8.11319677734375,9.795427322387695,0.06344634294509888,-0.05027823522686958
1761402347283277600,8.123277587890625,9.78951644897461,0.07414543628692627,-0.050203416496515274
1761402347293358300,8.1333583984375,9.796624183654785,0.061052143573760986,-0.06217442452907562
1761402347303439400,8.143439453125,9.794230461120605,0.06823474913835526,-0.050203416496515274
1761402347313520400,8.153520263671876,9.781062126159668,0.06456862390041351,-0.05858312174677849
1761402347323597600,8.16359765625,9.78944206237793,0.07294833660125732,-0.054991818964481354
1761402347333682200,8.17368212890625,9.784578323364258,0.07167641073465347,-0.050128597766160965
1761402347343734500,8.183734619140624,9.784578323364258,0.07885901629924774,-0.052522800862789154
1761402347353844500,8.193844482421875,9.779789924621582,0.07287351787090302,-0.052522800862789154
1761402347363908900,8.203908935546876,9.788169860839844,0.07414543628692627,-0.054917000234127045
1761402347374006300,8.21400634765625,9.79647445678711,0.06217442452907562,-0.05379471927881241
1761402347384062000,8.22406201171875,9.782184600830078,0.07407061755657196,-0.057311203330755234
1761402347394168300,8.234168212890625,9.784578323364258,0.07167641073465347,-0.05850830301642418
1761402347404224300,8.244224365234375,9.79056453704834,0.06576573103666306,-0.0537199005484581
1761402347414330400,8.254330322265625,9.790788650512695,0.06703764945268631,-0.05267243832349777
1761402347424411100,8.2644111328125,9.791985511779785,0.07422025501728058,-0.06703764945268631
1761402347434492400,8.274492431640626,9.783605575561523,0.07302315533161163,-0.05386953800916672
1761402347444574200,8.28457421875,9.7883939743042,0.06344634294509888,-0.05746084079146385
1761402347454654200,8.294654296875,9.791985511779785,0.06464344263076782,-0.047884032130241394
1761402347464735500,8.304735595703125,9.796773910522461,0.06703764945268631,-0.04676175117492676
1761402347474816500,8.31481640625,9.793182373046875,0.07302315533161163,-0.06224924325942993
1761402347484897300,8.324897216796876,9.787272453308105,0.06464344263076782,-0.0454898327589035
1761402347494978300,8.334978271484376,9.784953117370605,0.06703764945268631,-0.05386953800916672
1761402347505059600,8.3450595703125,9.794454574584961,0.061126962304115295,-0.061126962304115295
1761402347515140900,8.355140869140625,9.786149978637695,0.06703764945268631,-0.05035305395722389
1761402347525221000,8.36522119140625,9.789741516113281,0.061126962304115295,-0.05394435673952103
1761402347535302100,8.37530224609375,9.796923637390137,0.05514145642518997,-0.05035305395722389
1761402347545383700,8.3853837890625,9.78255844116211,0.06703764945268631,-0.05027823522686958
1761402347555464700,8.395464599609374,9.790938377380371,0.06352116167545319,-0.05753565952181816
1761402347565545200,8.405545166015624,9.789741516113281,0.07070376724004745,-0.05514145642518997
1761402347575622000,8.415621826171876,9.797821998596191,0.08252514153718948,-0.054991818964481354
1761402347595788500,8.43578857421875,9.784728050231934,0.07294833660125732,-0.047809213399887085
1761402347605869300,8.445869384765626,9.796624183654785,0.06823474913835526,-0.05978022515773773
1761402347615950000,8.4559501953125,9.784653663635254,0.06935703009366989,-0.0561889223754406
1761402347626031000,8.466031005859374,9.78831958770752,0.07653963565826416,-0.05379471927881241
1761402347636112100,8.476112060546875,9.78831958770752,0.07175122946500778,-0.05140051618218422
1761402347646194200,8.486194091796875,9.79183578491211,0.06584054976701736,-0.0561889223754406
1761402347656274200,8.496274169921875,9.783456802368164,0.06217442452907562,-0.0561889223754406
1761402347666355000,8.50635498046875,9.800215721130371,0.06224924325942993,-0.05386953800916672
1761402347676436000,8.51643603515625,9.78712272644043,0.066962830722332,-0.050203416496515274
1761402347686517200,8.526517333984375,9.781136512756348,0.06337152421474457,-0.05379471927881241
1761402347696598500,8.5365986328125,9.785850524902344,0.06456862390041351,-0.05379471927881241
1761402347706679800,8.5466796875,9.793033599853516,0.07055412977933884,-0.050203416496515274
1761402347716760000,8.556760009765625,9.793033599853516,0.06823474913835526,-0.05140051618218422
1761402347726816300,8.566816162109374,9.78824520111084,0.06935703009366989,-0.06337152421474457
1761402347736922000,8.576922119140624,9.786299705505371,0.07309797406196594,-0.058732759207487106
1761402347747004000,8.58700390625,9.78869342803955,0.06591536849737167,-0.04563947021961212
1761402347757084200,8.597084228515625,9.783830642700195,0.06711246818304062,-0.06352116167545319
1761402347767162600,8.60716259765625,9.78869342803955,0.06471826136112213,-0.05521627515554428
1761402347777246200,8.61724609375,9.795876502990723,0.07429507374763489,-0.0504278726875782
1761402347787327000,8.627326904296876,9.78869342803955,0.07429507374763489,-0.044442370533943176
1761402347797408000,8.637407958984374,9.799467086791992,0.07908347249031067,-0.04803367331624031
1761402347807489000,8.647489013671875,9.79101276397705,0.06479308009147644,-0.05761047825217247
1761402347817570000,8.657570068359375,9.800589561462402,0.06838438659906387,-0.05521627515554428
1761402347827651000,8.667651123046875,9.792284965515137,0.07070376724004745,-0.054019175469875336
1761402347837732000,8.677732177734375,9.792284965515137,0.07309797406196594,-0.049230773001909256
1761402347847813600,8.687813720703126,9.787496566772461,0.06471826136112213,-0.05514145642518997
1761402347857894700,8.697894775390624,9.78869342803955,0.0719008669257164,-0.056338559836149216
1761402347867952600,8.70795263671875,9.797073364257812,0.06838438659906387,-0.04683656990528107
1761402347878052600,8.718052490234374,9.798270225524902,0.07197568565607071,-0.04563947021961212
1761402347888134000,8.7281337890625,9.794678688049316,0.07077858597040176,-0.054019175469875336
1761402347898194700,8.738194580078124,9.78944206237793,0.06576573103666306,-0.0561889223754406
1761402347908299300,8.74829931640625,9.787047386169434,0.06935703009366989,-0.05738602206110954
1761402347918380000,8.758380126953124,9.794230461120605,0.0694318488240242,-0.06097732484340668
1761402347928461300,8.76846142578125,9.785924911499023,0.0777367353439331,-0.054991818964481354
1761402347938539500,8.77853955078125,9.781136512756348,0.07653963565826416,-0.05259761959314346
1761402347948617500,8.788617431640626,9.799018859863281,0.07062894850969315,-0.0586579404771328
1761402347958700000,8.798699951171875,9.78944206237793,0.07414543628692627,-0.05858312174677849
1761402347968785000,8.808784912109376,9.78824520111084,0.06815993040800095,-0.05379471927881241
1761402347978866200,8.8188662109375,9.78824520111084,0.06935703009366989,-0.05738602206110954
1761402347988947000,8.828947021484375,9.794230461120605,0.06344634294509888,-0.05738602206110954
1761402347999028000,8.839028076171875,9.796624183654785,0.061052143573760986,-0.04908113554120064
1761402348009109000,8.84910888671875,9.784653663635254,0.066962830722332,-0.05379471927881241
1761402348019185700,8.859185546875,9.787047386169434,0.07414543628692627,-0.0561889223754406
1761402348029272600,8.8692724609375,9.795427322387695,0.07182604819536209,-0.05738602206110954
1761402348039351800,8.879351806640624,9.78944206237793,0.06576573103666306,-0.054991818964481354
1761402348049432800,8.889432861328125,9.793033599853516,0.06703764945268631,-0.0561889223754406
1761402348059514000,8.89951416015625,9.78255844116211,0.06584054976701736,-0.05267243832349777
1761402348069595000,8.909594970703125,9.792135238647461,0.06591536849737167,-0.05274725705385208
1761402348079671800,8.919671875,9.784953117370605,0.07781155407428741,-0.05147533491253853
1761402348089757000,8.9297568359375,9.788543701171875,0.06591536849737167,-0.04556465148925781
1761402348099838000,8.939837890625,9.792135238647461,0.06830956786870956,-0.056338559836149216
1761402348109894700,8.949894775390625,9.7837553024292,0.07062894850969315,-0.05626374110579491
1761402348119984000,8.959984130859375,9.786149978637695,0.07182604819536209,-0.05506663769483566
1761402348130080800,8.970080810546875,9.786149978637695,0.061126962304115295,-0.05985504388809204
1761402348140142800,8.980142822265625,9.79183578491211,0.07534253597259521,-0.05738602206110954
1761402348150239000,8.990239013671875,9.793033599853516,0.07055412977933884,-0.050203416496515274
1761402348160324000,9.000323974609374,9.783531188964844,0.06935703009366989,-0.05379471927881241
1761402348170404600,9.010404541015625,9.794230461120605,0.0694318488240242,-0.05259761959314346
1761402348180485600,9.020485595703125,9.785924911499023,0.06456862390041351,-0.05140051618218422
1761402348190567200,9.030567138671875,9.785924911499023,0.06576573103666306,-0.04900631681084633
1761402348200647400,9.0406474609375,9.781062126159668,0.07534253597259521,-0.06090250611305237
1761402348210725400,9.050725341796875,9.785924911499023,0.07534253597259521,-0.04900631681084633
1761402348220810000,9.06081005859375,9.78824520111084,0.06935703009366989,-0.05858312174677849
1761402348230891300,9.070891357421875,9.783456802368164,0.07055412977933884,-0.0561889223754406
1761402348240972300,9.08097216796875,9.79183578491211,0.07414543628692627,-0.05140051618218422
1761402348251031000,9.091031005859374,9.785924911499023,0.07055412977933884,-0.05140051618218422
1761402348261133800,9.1011337890625,9.79183578491211,0.066962830722332,-0.050203416496515274
1761402348271214600,9.111214599609376,9.793033599853516,0.07182604819536209,-0.0561889223754406
1761402348281270300,9.121270263671875,9.78824520111084,0.07893383502960205,-0.05858312174677849
1761402348291376600,9.131376708984375,9.785850524902344,0.066962830722332,-0.0561889223754406
1761402348301457700,9.141457763671875,9.78480339050293,0.06224924325942993,-0.05267243832349777
1761402348311538700,9.15153857421875,9.790788650512695,0.061052143573760986,-0.05746084079146385
1761402348321620000,9.161619873046876,9.78719711303711,0.0586579404771328,-0.05626374110579491
1761402348331700500,9.171700439453126,9.794380187988281,0.06464344263076782,-0.061052143573760986
1761402348341777700,9.181777587890625,9.78248405456543,0.06935703009366989,-0.0454898327589035
1761402348351862500,9.191862548828125,9.78719711303711,0.0694318488240242,-0.05147533491253853
1761402348361918200,9.201918212890625,9.7883939743042,0.06703764945268631,-0.05506663769483566
1761402348372016000,9.21201611328125,9.794380187988281,0.06823474913835526,-0.05506663769483566
1761402348382105600,9.222105712890626,9.784653663635254,0.06935703009366989,-0.05858312174677849
1761402348392186600,9.2321865234375,9.781136512756348,0.06935703009366989,-0.0561889223754406
1761402348402263600,9.242263671875,9.79183578491211,0.07175122946500778,-0.05978022515773773
1761402348412348400,9.252348388671875,9.794230461120605,0.05985504388809204,-0.04908113554120064
1761402348422429400,9.262429443359375,9.79063892364502,0.06344634294509888,-0.05259761959314346
1761402348432510700,9.2725107421875,9.79183578491211,0.06344634294509888,-0.05858312174677849
1761402348442591500,9.282591552734376,9.78824520111084,0.07534253597259521,-0.05858312174677849
1761402348452672500,9.292672607421874,9.78831958770752,0.06935703009366989,-0.04900631681084633
1761402348462753300,9.302753173828124,9.78944206237793,0.07294833660125732,-0.0561889223754406
1761402348472830700,9.312830810546876,9.79183578491211,0.06584054976701736,-0.050203416496515274
1761402348482915800,9.322915771484375,9.78831958770752,0.07175122946500778,-0.047809213399887085
1761402348492996400,9.332996337890625,9.782258987426758,0.066962830722332,-0.05738602206110954
1761402348503077400,9.343077392578126,9.799018859863281,0.07541735470294952,-0.05386953800916672
1761402348523214300,9.36321435546875,9.79063892364502,0.05985504388809204,-0.05379471927881241
1761402348533316600,9.373316650390626,9.78831958770752,0.07294833660125732,-0.05140051618218422
1761402348543401500,9.3834013671875,9.797821998596191,0.07422025501728058,-0.0561889223754406
1761402348553482800,9.393482666015625,9.78951644897461,0.06935703009366989,-0.04900631681084633
1761402348563529700,9.40352978515625,9.793033599853516,0.07062894850969315,-0.05978022515773773
1761402348573644500,9.41364453125,9.783531188964844,0.06815993040800095,-0.04661211371421814
1761402348583726000,9.42372607421875,9.781136512756348,0.06337152421474457,-0.05140051618218422
1761402348593806300,9.433806396484375,9.785924911499023,0.066962830722332,-0.050203416496515274
1761402348603883800,9.4438837890625,9.7907133102417,0.06576573103666306,-0.04900631681084633
1761402348613969200,9.45396923828125,9.797821998596191,0.06823474913835526,-0.05746084079146385
1761402348624049400,9.46404931640625,9.778817176818848,0.06815993040800095,-0.05379471927881241
1761402348634130700,9.474130615234374,9.782408714294434,0.07302315533161163,-0.06217442452907562
1761402348644212000,9.4842119140625,9.791985511779785,0.06584054976701736,-0.0586579404771328
1761402348654282800,9.49428271484375,9.791985511779785,0.07062894850969315,-0.05147533491253853
1761402348664374000,9.5043740234375,9.787272453308105,0.07062894850969315,-0.04429273307323456
1761402348674429400,9.514429443359376,9.78719711303711,0.07302315533161163,-0.05386953800916672
1761402348684535600,9.52453564453125,9.78480339050293,0.07653963565826416,-0.05147533491253853
1761402348694603500,9.534603515625,9.794380187988281,0.06464344263076782,-0.05506663769483566
1761402348704697300,9.544697265625,9.79797077178955,0.07661445438861847,-0.06464344263076782
1761402348714781400,9.554781494140625,9.7883939743042,0.07781155407428741,-0.05746084079146385
1761402348724859600,9.564859619140625,9.7860746383667,0.07062894850969315,-0.04668693244457245
1761402348734940200,9.574940185546875,9.795577049255371,0.06703764945268631,-0.04908113554120064
1761402348745021200,9.585021240234376,9.794380187988281,0.07541735470294952,-0.047884032130241394
1761402348755102200,9.595102294921874,9.790788650512695,0.0694318488240242,-0.05267243832349777
1761402348765183200,9.605183349609375,9.795577049255371,0.06823474913835526,-0.05746084079146385
1761402348775264300,9.61526416015625,9.795577049255371,0.06703764945268631,-0.05985504388809204
1761402348785345300,9.62534521484375,9.78824520111084,0.07175122946500778,-0.05379471927881241
1761402348795404500,9.635404541015625,9.78944206237793,0.061052143573760986,-0.054991818964481354
1761402348805506800,9.6455068359375,9.78824520111084,0.06815993040800095,-0.06217442452907562
1761402348815588400,9.65558837890625,9.79063892364502,0.07294833660125732,-0.054991818964481354
1761402348825669000,9.665669189453125,9.79183578491211,0.06464344263076782,-0.050203416496515274
1761402348835724500,9.675724609375,9.796624183654785,0.06823474913835526,-0.05147533491253853
1761402348845806300,9.685806396484375,9.793033599853516,0.06823474913835526,-0.054991818964481354
1761402348855912700,9.69591259765625,9.797821998596191,0.07541735470294952,-0.05386953800916672
1761402348865970200,9.70597021484375,9.78989028930664,0.07549217343330383,-0.049230773001909256
1761402348876074500,9.716074462890624,9.781511306762695,0.07668927311897278,-0.05753565952181816
1761402348886132500,9.726132568359375,9.795801162719727,0.06958148628473282,-0.058807577937841415
1761402348896236000,9.736236083984375,9.786224365234375,0.06830956786870956,-0.06232406198978424
1761402348906317000,9.746317138671875,9.785101890563965,0.06352116167545319,-0.05274725705385208
1761402348916398000,9.756398193359376,9.781511306762695,0.06711246818304062,-0.05514145642518997
1761402348926479400,9.766479248046876,9.78989028930664,0.06950666755437851,-0.049230773001909256
1761402348936553000,9.776552978515625,9.783905029296875,0.06950666755437851,-0.058732759207487106
1761402348946642000,9.786641845703125,9.78712272644043,0.07175122946500778,-0.05140051618218422
1761402348956722200,9.79672216796875,9.793033599853516,0.06584054976701736,-0.0561889223754406
1761402348966803200,9.80680322265625,9.777470588684082,0.06337152421474457,-0.057311203330755234
1761402348976884000,9.816884033203126,9.775076866149902,0.07055412977933884,-0.0644938051700592
1761402348986965800,9.8269658203125,9.796624183654785,0.07062894850969315,-0.05027823522686958
1761402348997021000,9.83702099609375,9.78824520111084,0.07055412977933884,-0.054991818964481354
1761402349007126800,9.847126708984375,9.78944206237793,0.06815993040800095,-0.05738602206110954
1761402349017207800,9.857207763671875,9.78944206237793,0.06224924325942993,-0.05858312174677849
1761402349027289000,9.8672890625,9.79176139831543,0.07175122946500778,-0.04900631681084633
1761402349037370000,9.8773701171875,9.788169860839844,0.06456862390041351,-0.04893149808049202
1761402349047452000,9.887451904296874,9.788169860839844,0.07407061755657196,-0.05132569745182991
1761402349057507000,9.897507080078125,9.789366722106934,0.06935703009366989,-0.054917000234127045
1761402349067613200,9.90761328125,9.796549797058105,0.07653963565826416,-0.05259761959314346
1761402349087774700,9.927774658203125,9.780987739562988,0.05970540642738342,-0.054917000234127045
1761402349097856000,9.93785595703125,9.777396202087402,0.07047931104898453,-0.05843348428606987
1761402349107937300,9.947937255859374,9.788543701171875,0.06352116167545319,-0.058732759207487106
1761402349118015000,9.958014892578126,9.7837553024292,0.06823474913835526,-0.061052143573760986
1761402349128095200,9.96809521484375,9.788543701171875,0.07309797406196594,-0.05753565952181816
1761402349138177300,9.97817724609375,9.79333209991455,0.0719008669257164,-0.05155015364289284
1761402349148260900,9.9882607421875,9.787346839904785,0.06830956786870956,-0.05753565952181816
1761402349158342000,9.998341796875,9.79333209991455,0.07429507374763489,-0.05394435673952103
1761402349168419000,10.008419189453125,9.798120498657227,0.06711246818304062,-0.05035305395722389
1761402349178503700,10.018503662109374,9.794529914855957,0.05992986261844635,-0.056338559836149216
1761402349188585000,10.0285849609375,9.79295825958252,0.07534253597259521,-0.054917000234127045
1761402349198665700,10.038665771484375,9.780987739562988,0.07885901629924774,-0.04893149808049202
1761402349208747000,10.0487470703125,9.782184600830078,0.06569091230630875,-0.057311203330755234
1761402349218827800,10.058827880859376,9.79176139831543,0.07294833660125732,-0.054917000234127045
1761402349228900400,10.068900390625,9.79647445678711,0.06456862390041351,-0.05738602206110954
1761402349238986000,10.078986083984375,9.797672271728516,0.07175122946500778,-0.054991818964481354
1761402349249051600,10.0890517578125,9.79408073425293,0.06097732484340668,-0.05738602206110954
1761402349259152000,10.09915185546875,9.782184600830078,0.07287351787090302,-0.054917000234127045
1761402349269232600,10.109232666015625,9.790788650512695,0.07302315533161163,-0.05386953800916672
1761402349279313200,10.119313232421876,9.782408714294434,0.07302315533161163,-0.054991818964481354
1761402349289395200,10.129395263671874,9.79797077178955,0.07182604819536209,-0.05506663769483566
1761402349299472100,10.13947216796875,9.795577049255371,0.06584054976701736,-0.05267243832349777
1761402349309556700,10.149556640625,9.791985511779785,0.06344634294509888,-0.05626374110579491
1761402349319640800,10.159640869140626,9.789591789245605,0.06823474913835526,-0.0586579404771328
1761402349329718500,10.169718505859375,9.794380187988281,0.06703764945268631,-0.05746084079146385
1761402349339799600,10.179799560546876,9.7883939743042,0.07302315533161163,-0.05626374110579491
1761402349349881300,10.18988134765625,9.787346839904785,0.06352116167545319,-0.05155015364289284
1761402349359957800,10.199957763671875,9.798120498657227,0.05992986261844635,-0.04683656990528107
1761402349370043000,10.21004296875,9.794529914855957,0.06591536849737167,-0.05274725705385208
1761402349380124000,10.2201240234375,9.788543701171875,0.0719008669257164,-0.05753565952181816
1761402349390204700,10.23020458984375,9.798120498657227,0.07668927311897278,-0.047958854585886
1761402349400285700,10.24028564453125,9.787346839904785,0.061126962304115295,-0.05155015364289284
1761402349410366700,10.25036669921875,9.774178504943848,0.07182604819536209,-0.05267243832349777
1761402349420422700,10.260422607421875,9.79333209991455,0.07429507374763489,-0.05394435673952103
1761402349430525000,10.27052490234375,9.794529914855957,0.06591536849737167,-0.05274725705385208
1761402349440571400,10.2805712890625,9.794454574584961,0.06352116167545319,-0.061126962304115295
1761402349450690800,10.29069091796875,9.78255844116211,0.06464344263076782,-0.05506663769483566
1761402349470827300,10.3108271484375,9.778966903686523,0.07182604819536209,-0.05506663769483566
1761402349480933400,10.320933349609374,9.784953117370605,0.06584054976701736,-0.05274725705385208
1761402349491010800,10.3310107421875,9.794529914855957,0.06950666755437851,-0.05035305395722389
1761402349501095700,10.341095703125,9.788543701171875,0.06830956786870956,-0.04556465148925781
1761402349511155500,10.351155517578125,9.802759170532227,0.07549217343330383,-0.05155015364289284
1761402349521257500,10.361257568359376,9.795577049255371,0.07422025501728058,-0.0586579404771328
1761402349531338500,10.37133837890625,9.793182373046875,0.06344634294509888,-0.0454898327589035
1761402349541419800,10.381419677734375,9.79797077178955,0.06950666755437851,-0.06224924325942993
1761402349551500500,10.39150048828125,9.782408714294434,0.06344634294509888,-0.05858312174677849
1761402349561577500,10.401577392578124,9.78719711303711,0.07661445438861847,-0.05746084079146385
1761402349571662300,10.411662353515625,9.78480339050293,0.07302315533161163,-0.05506663769483566
1761402349581743400,10.421743408203126,9.78480339050293,0.07062894850969315,-0.05386953800916672
1761402349591824400,10.431824462890624,9.783456802368164,0.07294833660125732,-0.05738602206110954
1761402349601905400,10.441905517578125,9.796624183654785,0.07182604819536209,-0.05738602206110954
1761402349611986700,10.451986572265625,9.785924911499023,0.07294833660125732,-0.04900631681084633
1761402349622063600,10.462063720703124,9.7907133102417,0.066962830722332,-0.047809213399887085
1761402349632123000,10.472122802734376,9.800215721130371,0.06703764945268631,-0.05746084079146385
1761402349642229800,10.482229736328126,9.78712272644043,0.06815993040800095,-0.045415014028549194
1761402349652310300,10.492310302734374,9.787047386169434,0.07175122946500778,-0.05738602206110954
1761402349662391300,10.502391357421875,9.796624183654785,0.07062894850969315,-0.05978022515773773
1761402349672456000,10.5124560546875,9.792284965515137,0.08147767931222916,-0.05162497237324715
1761402349682550000,10.522550048828125,9.785101890563965,0.06711246818304062,-0.05992986261844635
1761402349692634600,10.532634521484376,9.791088104248047,0.07070376724004745,-0.049230773001909256
1761402349702715400,10.54271533203125,9.799467086791992,0.0635959804058075,-0.04683656990528107
1761402349712797200,10.552797119140624,9.78989028930664,0.07070376724004745,-0.05521627515554428
1761402349722877700,10.562877685546875,9.78869342803955,0.06711246818304062,-0.05753565952181816
1761402349732958500,10.57295849609375,9.792284965515137,0.06830956786870956,-0.05282207578420639
1761402349743039700,10.583039794921875,9.786299705505371,0.06711246818304062,-0.058732759207487106
1761402349753116400,10.593116455078125,9.792808532714844,0.07885901629924774,-0.052522800862789154
1761402349763201300,10.603201171875,9.784428596496582,0.07167641073465347,-0.052447982132434845
1761402349773282300,10.6132822265625,9.79520320892334,0.06456862390041351,-0.0537199005484581
1761402349783338200,10.623338134765625,9.778443336486816,0.06801029294729233,-0.05603928491473198
1761402349793444400,10.6334443359375,9.782034873962402,0.06569091230630875,-0.052447982132434845
1761402349803525400,10.643525390625,9.786823272705078,0.06688801199197769,-0.045340195298194885
1761402349813586200,10.653586181640625,9.792808532714844,0.07047931104898453,-0.05132569745182991
1761402349823687700,10.663687744140624,9.785626411437988,0.0644938051700592,-0.057236384600400925
1761402349833768400,10.6737685546875,9.78869342803955,0.07549217343330383,-0.05274725705385208
1761402349843825200,10.6838251953125,9.789815902709961,0.06830956786870956,-0.061126962304115295
1761402349853930500,10.693930419921875,9.785101890563965,0.07309797406196594,-0.04556465148925781
1761402349864011300,10.70401123046875,9.798270225524902,0.06838438659906387,-0.0504278726875782
1761402349874092000,10.714092041015626,9.795801162719727,0.06838438659906387,-0.05761047825217247
1761402349884148000,10.72414794921875,9.79101276397705,0.07429507374763489,-0.06352116167545319
1761402349894254600,10.734254638671874,9.793481826782227,0.0719008669257164,-0.0504278726875782
1761402349904335400,10.74433544921875,9.786224365234375,0.07070376724004745,-0.06232406198978424
1761402349914416000,10.754416015625,9.798270225524902,0.07796119153499603,-0.054019175469875336
1761402349924456000,10.7644560546875,9.797073364257812,0.06958148628473282,-0.0504278726875782
1761402349934578200,10.774578125,9.77560043334961,0.08140286058187485,-0.04556465148925781
1761402349944660000,10.784659912109374,9.78989028930664,0.06711246818304062,-0.054019175469875336
1761402349954722000,10.79472216796875,9.791088104248047,0.07309797406196594,-0.056413378566503525
1761402349964821500,10.804821533203125,9.78869342803955,0.06830956786870956,-0.054019175469875336
1761402349974902300,10.81490234375,9.78869342803955,0.06830956786870956,-0.054019175469875336
1761402349984983600,10.824983642578125,9.791088104248047,0.06591536849737167,-0.05282207578420639
1761402350005120000,10.8451201171875,9.795801162719727,0.06479308009147644,-0.05761047825217247
1761402350015226000,10.85522607421875,9.780313491821289,0.07429507374763489,-0.05992986261844635
1761402350025307100,10.86530712890625,9.78869342803955,0.06711246818304062,-0.05753565952181816
1761402350035388200,10.87538818359375,9.800589561462402,0.07556699216365814,-0.05521627515554428
1761402350045469000,10.885468994140625,9.792284965515137,0.07788637280464172,-0.049230773001909256
1761402350055550000,10.895550048828126,9.794678688049316,0.06958148628473282,-0.054019175469875336
1761402350065631000,10.905630859375,9.78989028930664,0.0719008669257164,-0.05282207578420639
1761402350075712500,10.91571240234375,9.786149978637695,0.07661445438861847,-0.05746084079146385
1761402350085793000,10.92579296875,9.801712036132812,0.06830956786870956,-0.049230773001909256
1761402350095874000,10.9358740234375,9.787346839904785,0.07900865375995636,-0.047958854585886
1761402350105954600,10.94595458984375,9.78136157989502,0.07422025501728058,-0.05506663769483566
1761402350116035800,10.956035888671876,9.79565143585205,0.0719008669257164,-0.06232406198978424
1761402350126117400,10.966117431640624,9.801712036132812,0.06711246818304062,-0.05162497237324715
1761402350136173600,10.976173583984375,9.79333209991455,0.06232406198978424,-0.058732759207487106
1761402350146260000,10.986260009765624,9.788543701171875,0.06471826136112213,-0.05753565952181816
1761402350156360400,10.9963603515625,9.78944206237793,0.06576573103666306,-0.05140051618218422
1761402350166417700,11.006417724609374,9.78944206237793,0.07414543628692627,-0.05738602206110954
1761402350176522000,11.01652197265625,9.79063892364502,0.06935703009366989,-0.05379471927881241
1761402350186603000,11.02660302734375,9.78944206237793,0.06935703009366989,-0.05259761959314346
1761402350196659200,11.0366591796875,9.781136512756348,0.07294833660125732,-0.05140051618218422
1761402350206764500,11.0467646484375,9.78944206237793,0.06935703009366989,-0.05379471927881241
1761402350216846000,11.05684619140625,9.793033599853516,0.07302315533161163,-0.05858312174677849
1761402350226926800,11.0669267578125,9.794230461120605,0.07294833660125732,-0.05259761959314346
1761402350237008100,11.077008056640626,9.786149978637695,0.07182604819536209,-0.05506663769483566
1761402350247089400,11.08708935546875,9.79333209991455,0.06471826136112213,-0.05035305395722389
1761402350257170000,11.097169921875,9.786149978637695,0.07422025501728058,-0.05746084079146385
1761402350267251000,11.1072509765625,9.786149978637695,0.06711246818304062,-0.056338559836149216
1761402350277332000,11.11733203125,9.798120498657227,0.07429507374763489,-0.058732759207487106
1761402350287412700,11.127412841796875,9.78136157989502,0.07062894850969315,-0.05746084079146385
1761402350297493800,11.13749365234375,9.784953117370605,0.07302315533161163,-0.05506663769483566
1761402350307563000,11.14756298828125,9.794529914855957,0.07429507374763489,-0.04915595427155495
1761402350317655800,11.15765576171875,9.782334327697754,0.066962830722332,-0.047809213399887085
1761402350327737600,11.167737548828125,9.787047386169434,0.066962830722332,-0.05259761959314346
1761402350337798100,11.177798095703125,9.796699523925781,0.07062894850969315,-0.047884032130241394
1761402350347899000,11.18789892578125,9.793033599853516,0.0694318488240242,-0.05259761959314346
1761402350357946000,11.197946044921874,9.785924911499023,0.07175122946500778,-0.05140051618218422
1761402350368057600,11.2080576171875,9.793033599853516,0.06703764945268631,-0.05259761959314346
1761402350378137600,11.2181376953125,9.785924911499023,0.07653963565826416,-0.05379471927881241
1761402350388201000,11.228200927734376,9.794230461120605,0.06464344263076782,-0.05259761959314346
1761402350398303700,11.2383037109375,9.79176139831543,0.06337152421474457,-0.05259761959314346
1761402350408385300,11.24838525390625,9.79056453704834,0.06815993040800095,-0.04893149808049202
1761402350418466600,11.258466552734374,9.788169860839844,0.0776619166135788,-0.05850830301642418
1761402350428539600,11.26853955078125,9.779789924621582,0.06928221136331558,-0.052522800862789154
1761402350438628400,11.27862841796875,9.780987739562988,0.0752677172422409,-0.052522800862789154
1761402350448705000,11.288705078125,9.801338195800781,0.07294833660125732,-0.04900631681084633
1761402350458790400,11.298790283203125,9.79647445678711,0.07294833660125732,-0.054991818964481354
1761402350468871200,11.30887109375,9.79056453704834,0.07893383502960205,-0.054917000234127045
1761402350478952000,11.318951904296876,9.788169860839844,0.066962830722332,-0.04893149808049202
1761402350489033500,11.329033447265624,9.79176139831543,0.07055412977933884,-0.054917000234127045
1761402350499131100,11.339131103515625,9.789366722106934,0.06576573103666306,-0.0537199005484581
1761402350509195300,11.3491953125,9.786972999572754,0.06337152421474457,-0.04893149808049202
1761402350519272000,11.35927197265625,9.79647445678711,0.0561889223754406,-0.054991818964481354
1761402350529357300,11.369357421875,9.785776138305664,0.07167641073465347,-0.05611410364508629
1761402350539438000,11.37943798828125,9.782184600830078,0.05850830301642418,-0.03935468941926956
1761402350549518800,11.389518798828124,9.776199340820312,0.07167641073465347,-0.054842181503772736
1761402350559600400,11.399600341796875,9.781136512756348,0.07055412977933884,-0.05259761959314346
1761402350569681400,11.409681396484375,9.78831958770752,0.06456862390041351,-0.047809213399887085
1761402350579744000,11.419743896484375,9.784728050231934,0.07414543628692627,-0.05379471927881241
1761402350589842700,11.4298427734375,9.778742790222168,0.07414543628692627,-0.057311203330755234
1761402350599924200,11.43992431640625,9.78824520111084,0.07055412977933884,-0.05738602206110954
1761402350610004700,11.450004638671874,9.799093246459961,0.07661445438861847,-0.04668693244457245
1761402350620085800,11.460085693359375,9.793107986450195,0.07294833660125732,-0.04661211371421814
1761402350630166500,11.47016650390625,9.782334327697754,0.07653963565826416,-0.0561889223754406
1761402350640243700,11.48024365234375,9.78944206237793,0.061052143573760986,-0.054991818964481354
1761402350650328600,11.49032861328125,9.78824520111084,0.07414543628692627,-0.054991818964481354
1761402350660409600,11.50040966796875,9.796624183654785,0.07422025501728058,-0.05858312174677849
1761402350670491000,11.510490966796874,9.78824520111084,0.06935703009366989,-0.05259761959314346
1761402350680571600,11.520571533203125,9.799018859863281,0.06703764945268631,-0.05626374110579491
1761402350690607600,11.530607666015625,9.794230461120605,0.06703764945268631,-0.05379471927881241
1761402350700733700,11.540733642578125,9.78824520111084,0.07414543628692627,-0.0561889223754406
1761402350710810600,11.550810546875,9.79183578491211,0.07414543628692627,-0.05259761959314346
1761402350720884000,11.560884033203125,9.795726776123047,0.07309797406196594,-0.05035305395722389
1761402350730976800,11.570976806640624,9.792135238647461,0.06232406198978424,-0.05035305395722389
1761402350741057500,11.5810576171875,9.795726776123047,0.07908347249031067,-0.056338559836149216
1761402350751138600,11.591138671875,9.778966903686523,0.06224924325942993,-0.05626374110579491
1761402350761219300,11.60121923828125,9.788543701171875,0.07661445438861847,-0.04915595427155495
1761402350771295200,11.611295166015625,9.794529914855957,0.06352116167545319,-0.047958854585886
1761402350781381400,11.62138134765625,9.788543701171875,0.07070376724004745,-0.05155015364289284
1761402350791452400,11.631452392578124,9.799318313598633,0.07788637280464172,-0.05514145642518997
1761402350801543400,11.64154345703125,9.795501708984375,0.06703764945268631,-0.04668693244457245
1761402350811600100,11.65160009765625,9.785850524902344,0.06935703009366989,-0.05738602206110954
1761402350821705700,11.661705810546875,9.78944206237793,0.07414543628692627,-0.05379471927881241
1761402350831766800,11.671766845703125,9.7907133102417,0.06935703009366989,-0.04900631681084633
1761402350841863700,11.68186376953125,9.80029010772705,0.06823474913835526,-0.04429273307323456
1761402350851948300,11.6919482421875,9.793033599853516,0.06224924325942993,-0.05259761959314346
1761402350862004700,11.702004638671875,9.79063892364502,0.05506663769483566,-0.04900631681084633
1761402350872110600,11.712110595703125,9.79063892364502,0.06464344263076782,-0.05738602206110954
1761402350882191400,11.72219140625,9.783905029296875,0.07549217343330383,-0.058732759207487106
1761402350892272600,11.732272705078126,9.774328231811523,0.06352116167545319,-0.05274725705385208
1761402350902327800,11.742327880859374,9.791088104248047,0.07309797406196594,-0.049230773001909256
1761402350912435000,11.75243505859375,9.794678688049316,0.07788637280464172,-0.05162497237324715
1761402350922516000,11.762515869140625,9.78869342803955,0.07788637280464172,-0.04683656990528107
1761402350932597200,11.77259716796875,9.78989028930664,0.08387187868356705,-0.05753565952181816
1761402350942678000,11.782677978515625,9.789815902709961,0.06471826136112213,-0.058807577937841415
1761402350952758500,11.792758544921876,9.797073364257812,0.06718728691339493,-0.05282207578420639
1761402350962840600,11.802840576171874,9.78719711303711,0.0694318488240242,-0.05506663769483566
1761402350972895200,11.812895263671875,9.796773910522461,0.07062894850969315,-0.05506663769483566
1761402350983000800,11.823000732421875,9.790788650512695,0.06823474913835526,-0.04668693244457245
1761402350993083000,11.833082763671875,9.78600025177002,0.06584054976701736,-0.05506663769483566
1761402351003163400,11.843163330078125,9.790788650512695,0.07302315533161163,-0.05386953800916672
1761402351013244700,11.85324462890625,9.790788650512695,0.06823474913835526,-0.05147533491253853
1761402351023302700,11.863302734375,9.78719711303711,0.06464344263076782,-0.05267243832349777
1761402351033402400,11.87340234375,9.801562309265137,0.06711246818304062,-0.04676175117492676
1761402351043483000,11.88348291015625,9.78869342803955,0.0719008669257164,-0.05394435673952103
1761402351053568500,11.893568603515625,9.798195838928223,0.06958148628473282,-0.061201781034469604
1761402351063649000,11.90364892578125,9.792210578918457,0.06718728691339493,-0.061201781034469604
1761402351073730300,11.913730224609376,9.78869342803955,0.06591536849737167,-0.0504278726875782
1761402351083811300,11.923811279296874,9.785101890563965,0.06591536849737167,-0.058732759207487106
1761402351093888000,11.933887939453125,9.791088104248047,0.06950666755437851,-0.04803367331624031
1761402351103973000,11.94397314453125,9.780313491821289,0.07070376724004745,-0.05394435673952103
1761402351114054700,11.9540546875,9.794678688049316,0.07429507374763489,-0.05162497237324715
1761402351124110000,11.964110107421876,9.791911125183105,0.07653963565826416,-0.050203416496515274
1761402351134216200,11.97421630859375,9.784728050231934,0.07055412977933884,-0.045415014028549194
1761402351144297500,11.98429736328125,9.79063892364502,0.06815993040800095,-0.05738602206110954
1761402351154353200,11.994353271484375,9.794230461120605,0.06584054976701736,-0.054991818964481354
1761402351164455200,12.004455078125,9.793033599853516,0.07055412977933884,-0.05259761959314346
1761402351174542600,12.01454248046875,9.782258987426758,0.07055412977933884,-0.06090250611305237
1761402351184621000,12.02462109375,9.784653663635254,0.06576573103666306,-0.06097732484340668
1761402351194702000,12.0347021484375,9.78951644897461,0.06815993040800095,-0.050203416496515274
1761402351204783600,12.04478369140625,9.79063892364502,0.061052143573760986,-0.054991818964481354
1761402351214864000,12.05486376953125,9.79183578491211,0.07175122946500778,-0.05259761959314346
1761402351224945700,12.064945556640625,9.800215721130371,0.07062894850969315,-0.04908113554120064
1761402351235026200,12.075026123046875,9.79183578491211,0.07414543628692627,-0.05738602206110954
1761402351245107700,12.085107666015626,9.79063892364502,0.06584054976701736,-0.05738602206110954
1761402351255188200,12.095188232421876,9.79063892364502,0.05985504388809204,-0.05259761959314346
1761402351265258200,12.10525830078125,9.78831958770752,0.06815993040800095,-0.05140051618218422
1761402351275350300,12.115350341796875,9.794230461120605,0.07062894850969315,-0.05379471927881241
1761402351285431600,12.125431640625,9.795876502990723,0.06958148628473282,-0.054019175469875336
1761402351295500800,12.135500732421875,9.798195838928223,0.061201781034469604,-0.05521627515554428
1761402351305593000,12.145593017578125,9.794604301452637,0.07317279279232025,-0.05761047825217247
1761402351315673900,12.155673828125,9.785101890563965,0.07070376724004745,-0.05514145642518997
1761402351325729500,12.1657294921875,9.78989028930664,0.06830956786870956,-0.05162497237324715
1761402351335835600,12.175835693359375,9.78869342803955,0.06352116167545319,-0.05282207578420639
1761402351345932000,12.18593212890625,9.795876502990723,0.07077858597040176,-0.049230773001909256
1761402351355999200,12.195999267578125,9.78869342803955,0.06591536849737167,-0.054019175469875336
1761402351366079000,12.206078857421875,9.804704666137695,0.06741174310445786,-0.05312135070562363
1761402351376159700,12.21615966796875,9.792808532714844,0.07092822343111038,-0.04825812950730324
1761402351386215700,12.226215576171874,9.794005393981934,0.07332243025302887,-0.04945522919297218
1761402351396322000,12.236322021484375,9.794005393981934,0.06494271755218506,-0.04945522919297218
1761402351406385200,12.24638525390625,9.79759693145752,0.07212532311677933,-0.05424363166093826
1761402351416484400,12.256484375,9.792808532714844,0.07092822343111038,-0.05304653197526932
1761402351426564900,12.26656494140625,9.780838012695312,0.058957215398550034,-0.06015431880950928
1761402351436645600,12.276645751953126,9.791611671447754,0.07451952993869781,-0.047061026096343994
1761402351446727700,12.286727783203125,9.802610397338867,0.06823474913835526,-0.05506663769483566
1761402351456808000,12.296807861328125,9.794230461120605,0.0694318488240242,-0.05738602206110954
1761402351466888700,12.306888671875,9.7907133102417,0.06815993040800095,-0.043020810931921005
1761402351476969700,12.3169697265625,9.787047386169434,0.06456862390041351,-0.0561889223754406
1761402351487051500,12.327051513671876,9.79063892364502,0.07534253597259521,-0.05379471927881241
1761402351497132000,12.337132080078124,9.79183578491211,0.06224924325942993,-0.06097732484340668
1761402351507213300,12.34721337890625,9.78944206237793,0.05746084079146385,-0.05259761959314346
1761402351517293800,12.3572939453125,9.79063892364502,0.06815993040800095,-0.054991818964481354
1761402351527374800,12.367374755859375,9.784953117370605,0.06823474913835526,-0.05386953800916672
1761402351537431000,12.37743115234375,9.784953117370605,0.0694318488240242,-0.05985504388809204
1761402351557581800,12.397581787109376,9.794529914855957,0.07070376724004745,-0.05274725705385208
1761402351567698700,12.40769873046875,9.794529914855957,0.07070376724004745,-0.05394435673952103
1761402351577779700,12.41777978515625,9.7837553024292,0.07661445438861847,-0.05027823522686958
1761402351587861200,12.427861328125,9.790938377380371,0.06232406198978424,-0.05394435673952103
1761402351597941500,12.43794140625,9.776647567749023,0.07062894850969315,-0.047884032130241394
1761402351608019500,12.44801953125,9.795501708984375,0.07653963565826416,-0.047884032130241394
1761402351618099500,12.458099365234375,9.79063892364502,0.07175122946500778,-0.05858312174677849
1761402351628182300,12.468182373046876,9.784728050231934,0.07175122946500778,-0.05259761959314346
1761402351638265600,12.478265625,9.784728050231934,0.06935703009366989,-0.05379471927881241
1761402351648347400,12.488347412109375,9.782334327697754,0.07175122946500778,-0.05259761959314346
1761402351658428200,12.49842822265625,9.801412582397461,0.06823474913835526,-0.061052143573760986
1761402351668504600,12.508504638671875,9.78944206237793,0.07294833660125732,-0.05259761959314346
1761402351678589400,12.51858935546875,9.794304847717285,0.06823474913835526,-0.04429273307323456
1761402351688670700,12.528670654296874,9.788095474243164,0.07414543628692627,-0.05970540642738342
1761402351698729500,12.5387294921875,9.786972999572754,0.0752677172422409,-0.054917000234127045
1761402351708832800,12.548832763671875,9.79527759552002,0.07294833660125732,-0.054991818964481354
1761402351718913800,12.558913818359375,9.785776138305664,0.07287351787090302,-0.04653729498386383
1761402351728969500,12.568969482421876,9.797672271728516,0.06935703009366989,-0.054991818964481354
1761402351739075800,12.579075927734374,9.783381462097168,0.06808511167764664,-0.0537199005484581
1761402351749157000,12.5891572265625,9.786972999572754,0.07287351787090302,-0.052522800862789154
1761402351759237400,12.5992373046875,9.791686058044434,0.06576573103666306,-0.057311203330755234
1761402351769318400,12.609318359375,9.790938377380371,0.06711246818304062,-0.047958854585886
1761402351779399400,12.6193994140625,9.794529914855957,0.07549217343330383,-0.05155015364289284
1761402351789480400,12.62948046875,9.794529914855957,0.06591536849737167,-0.05753565952181816
1761402351799558000,12.639557861328125,9.789741516113281,0.07429507374763489,-0.05394435673952103
1761402351809640400,12.649640380859376,9.789741516113281,0.06830956786870956,-0.056338559836149216
1761402351819723500,12.6597236328125,9.792135238647461,0.06950666755437851,-0.05992986261844635
1761402351829804800,12.6698046875,9.79333209991455,0.06830956786870956,-0.05753565952181816
1761402351839885600,12.679885498046875,9.787346839904785,0.06950666755437851,-0.05514145642518997
1761402351849943800,12.68994384765625,9.78824520111084,0.066962830722332,-0.06097732484340668
1761402351860043800,12.700043701171875,9.785850524902344,0.06217442452907562,-0.05738602206110954
1761402351870128600,12.710128662109375,9.800215721130371,0.06344634294509888,-0.05746084079146385
1761402351880188000,12.72018798828125,9.800215721130371,0.0694318488240242,-0.05386953800916672
1761402351890290200,12.730290283203125,9.796624183654785,0.061052143573760986,-0.06217442452907562
1761402351900371200,12.74037109375,9.801412582397461,0.07302315533161163,-0.05985504388809204
1761402351910452200,12.7504521484375,9.787047386169434,0.07294833660125732,-0.05379471927881241
1761402351920529400,12.760529296875,9.795427322387695,0.06224924325942993,-0.05858312174677849
1761402351930614300,12.7706142578125,9.793182373046875,0.06584054976701736,-0.05386953800916672
1761402351940695300,12.7806953125,9.78719711303711,0.07422025501728058,-0.06337152421474457
1761402351950776600,12.790776611328125,9.794380187988281,0.07062894850969315,-0.05506663769483566
1761402351960857600,12.800857666015625,9.790788650512695,0.07302315533161163,-0.0586579404771328
1761402351970938400,12.8109384765625,9.781211853027344,0.07182604819536209,-0.05738602206110954
1761402351981019600,12.82101953125,9.794380187988281,0.07541735470294952,-0.04668693244457245
1761402351991076600,12.83107666015625,9.78719711303711,0.06823474913835526,-0.05626374110579491
1761402352001169000,12.8411689453125,9.78480339050293,0.07302315533161163,-0.05147533491253853
