time,seconds_elapsed,z,y,x
1761399108019807200,0.13480712890625,0.07728782296180725,-9.319430351257324,-2.7941830158233643
1761399108029888300,0.14488818359375,0.0736217051744461,-9.302072525024414,-2.8454339504241943
1761399108039968800,0.15496875,0.0925508588552475,-9.277082443237305,-2.9018473625183105
1761399108050058800,0.165058837890625,0.12375029921531677,-9.224559783935547,-2.9296798706054688
1761399108060178000,0.175177978515625,0.11469722539186478,-9.217377662658691,-2.918382167816162
1761399108070212000,0.185212158203125,0.109085813164711,-9.230395317077637,-2.8627917766571045
1761399108080298200,0.19529833984375,0.07983165979385376,-9.21947193145752,-2.8045079708099365
1761399108090410000,0.205409912109375,0.061276599764823914,-9.222614288330078,-2.7985973358154297
1761399108100478000,0.21547802734375,0.04833294823765755,-9.23675537109375,-2.8261306285858154
1761399108110558700,0.225558837890625,0.06973112374544144,-9.265336036682129,-2.848426580429077
1761399108120639700,0.2356396484375,0.08207622915506363,-9.313145637512207,-2.8290486335754395
1761399108130695000,0.24569482421875,0.11671733111143112,-9.331326484680176,-2.783708333969116
1761399108140801000,0.255801025390625,0.16594810783863068,-9.328483581542969,-2.7368717193603516
1761399108150877400,0.26587744140625,0.189216747879982,-9.337387084960938,-2.7373955249786377
1761399108160962300,0.27596240234375,0.19385552406311035,-9.311723709106445,-2.772859573364258
1761399108171042800,0.286042724609375,0.19363106787204742,-9.276708602905273,-2.8058547973632812
1761399108181123600,0.29612353515625,0.13938742876052856,-9.31494140625,-2.801814556121826
1761399108191215600,0.306215576171875,0.09546878933906555,-9.37936019897461,-2.8020389080047607
1761399108201285400,0.316285400390625,0.0777367353439331,-9.432705879211426,-2.7869255542755127
1761399108211361800,0.32636181640625,0.0009726444259285927,-9.39828872680664,-2.8074259757995605
1761399108221446100,0.336446044921875,-0.062024787068367004,-9.317858695983887,-2.812887668609619
1761399108231527200,0.346527099609375,-0.06052841246128082,-9.276782989501953,-2.778695583343506
1761399108241607700,0.356607666015625,-0.07407061755657196,-9.245882987976074,-2.761113166809082
1761399108251662800,0.366662841796875,-0.04272153601050377,-9.265036582946777,-2.8009915351867676
1761399108261769500,0.37676953125,0.03778349608182907,-9.318607330322266,-2.932373285293579
1761399108271850000,0.38685009765625,0.08476970344781876,-9.314416885375977,-3.04602313041687
1761399108281927000,0.396927001953125,0.14746786653995514,-9.245509147644043,-3.1062521934509277
1761399108292011500,0.407011474609375,0.20231004059314728,-9.133804321289062,-3.1123874187469482
1761399108302092300,0.41709228515625,0.2578255832195282,-9.05718994140625,-3.150993824005127
1761399108312147200,0.427147216796875,0.23919571936130524,-9.070807456970215,-3.2585084438323975
1761399108322253600,0.437253662109375,0.19407998025417328,-9.138368606567383,-3.4246811866760254
1761399108332334300,0.447334228515625,0.12322656810283661,-9.212663650512695,-3.5777604579925537
1761399108342410800,0.45741064453125,0.04668693244457245,-9.20091724395752,-3.65385103225708
1761399108352495900,0.467495849609375,-0.009726444259285927,-9.12265682220459,-3.6284127235412598
1761399108362576400,0.477576416015625,-0.026186581701040268,-9.047239303588867,-3.5539679527282715
1761399108372632000,0.487632080078125,0.023493103682994843,-9.044022560119629,-3.528604507446289
1761399108382737700,0.497737548828125,0.08701426535844803,-9.070208549499512,-3.551947832107544
1761399108392818400,0.507818359375,0.10601824522018433,-9.069385528564453,-3.611877679824829
1761399108402895400,0.517895263671875,0.13250410556793213,-8.994641304016113,-3.6583402156829834
1761399108412980000,0.52797998046875,0.14095862209796906,-8.913238525390625,-3.7433342933654785
1761399108423060500,0.538060546875,0.13437457382678986,-8.831012725830078,-3.8336405754089355
1761399108433141500,0.5481416015625,0.16430209577083588,-8.785747528076172,-3.909656524658203
1761399108443196700,0.55819677734375,0.16931495070457458,-8.791358947753906,-3.9490113258361816
1761399108453302500,0.568302490234375,0.17006313800811768,-8.808792114257812,-3.972130298614502
1761399108463383300,0.57838330078125,0.15352818369865417,-8.794052124023438,-3.9665937423706055
1761399108473460200,0.588460205078125,0.1909375786781311,-8.7623291015625,-3.9537248611450195
1761399108483544800,0.598544921875,0.19879356026649475,-8.807893753051758,-3.9368157386779785
1761399108493625900,0.6086259765625,0.20934301614761353,-8.88106632232666,-3.969736099243164
1761399108503706400,0.618706298828125,0.21547815203666687,-8.872611999511719,-4.0143280029296875
1761399108513787000,0.628786865234375,0.17904140055179596,-8.84627628326416,-4.090194225311279
1761399108523867600,0.63886767578125,0.11559505015611649,-8.861165046691895,-4.131568908691406
1761399108533923000,0.648923095703125,-0.002543839393183589,-8.88405990600586,-4.143091201782227
1761399108544029200,0.659029296875,-0.08791209012269974,-8.843807220458984,-4.083460807800293
1761399108554110000,0.66910986328125,-0.17372925579547882,-8.812382698059082,-3.988365888595581
1761399108564190500,0.6791904296875,-0.23515549302101135,-8.830564498901367,-3.907486915588379
1761399108574271000,0.68927099609375,-0.2743605375289917,-8.908599853515625,-3.870750665664673
1761399108584352000,0.69935205078125,-0.30353987216949463,-9.002273559570312,-3.8349125385284424
1761399108594432500,0.7094326171875,-0.34985271096229553,-9.03870964050293,-3.829899787902832
1761399108604488200,0.71948828125,-0.38883331418037415,-9.000102996826172,-3.793163776397705
1761399108614594000,0.729593994140625,-0.41038113832473755,-8.939724922180176,-3.745504140853882
1761399108624650200,0.739650146484375,-0.41127896308898926,-8.916156768798828,-3.7258267402648926
1761399108634756000,0.749756103515625,-0.40948331356048584,-8.990002632141113,-3.7612907886505127
1761399108644836000,0.759836181640625,-0.38958150148391724,-9.011251449584961,-3.8114194869995117
1761399108654916600,0.76991650390625,-0.36736032366752625,-8.991798400878906,-3.8902037143707275
1761399108664972500,0.77997265625,-0.32119712233543396,-8.976310729980469,-4.015151023864746
1761399108675078400,0.790078369140625,-0.3396025598049164,-8.985513687133789,-4.158653736114502
1761399108685159200,0.8001591796875,-0.38471829891204834,-8.943166732788086,-4.247538089752197
1761399108695239700,0.81023974609375,-0.353743314743042,-8.794351577758789,-4.289361953735352
1761399108705320700,0.82032080078125,-0.3133411407470703,-8.761506080627441,-4.424933433532715
1761399108715401000,0.83040087890625,-0.27495908737182617,-8.786944389343262,-4.603451251983643
1761399108725482000,0.84048193359375,-0.23949499428272247,-8.857274055480957,-4.763413906097412
1761399108735563300,0.850563232421875,-0.2264017015695572,-8.910245895385742,-4.876540184020996
1761399108745643000,0.86064306640625,-0.18233342468738556,-8.923713684082031,-4.8785600662231445
1761399108755724000,0.87072412109375,-0.08738835901021957,-8.956708908081055,-4.8602294921875
1761399108765804800,0.8808046875,-0.02603694424033165,-9.039158821105957,-4.78354024887085
1761399108775885300,0.89088525390625,-0.03494038060307503,-9.124752044677734,-4.679691791534424
1761399108785965800,0.9009658203125,-0.08207622915506363,-9.088912963867188,-4.526762008666992
1761399108796047000,0.911047119140625,-0.08708908408880234,-9.020678520202637,-4.363283157348633
1761399108806127600,0.921127685546875,-0.06419453024864197,-8.952070236206055,-4.180575370788574
1761399108816208400,0.93120849609375,-0.12277765572071075,-9.000252723693848,-4.134786128997803
1761399108826289000,0.941288818359375,-0.40140289068222046,-9.259125709533691,-4.370241165161133
1761399108836344800,0.9513447265625,-0.6362590789794922,-9.827524185180664,-4.909834384918213
1761399108846408400,0.961408447265625,-0.7144447565078735,-10.57040023803711,-5.532925128936768
1761399108856531200,0.97153125,-0.7704840302467346,-10.971653938293457,-5.85075569152832
1761399108866611700,0.98161181640625,-0.6433668732643127,-10.668039321899414,-5.804592609405518
1761399108876692500,0.9916923828125,-0.1761234551668167,-9.861492156982422,-5.603329658508301
1761399108886773000,1.00177294921875,0.20298340916633606,-9.165677070617676,-5.423764705657959
1761399108896854800,1.011854736328125,0.12285247445106506,-8.855703353881836,-5.357400417327881
1761399108906935300,1.021935302734375,-0.3490297198295593,-8.78769302368164,-5.4164323806762695
1761399108917015600,1.032015625,-0.39639002084732056,-8.873734474182129,-5.11191987991333
1761399108927096000,1.042095947265625,-0.008379706181585789,-8.84971809387207,-4.1769843101501465
1761399108937151500,1.0521513671875,0.49567458033561707,-8.923040390014648,-3.049090623855591
1761399108947258000,1.062258056640625,1.0535235404968262,-9.577255249023438,-2.278007984161377
1761399108957338600,1.072338623046875,1.6390554904937744,-10.634295463562012,-1.9711761474609375
1761399108967419000,1.0824189453125,1.7496377229690552,-11.5227689743042,-1.9744682312011719
1761399108977499600,1.092499755859375,1.3573627471923828,-11.856236457824707,-2.0439748764038086
1761399108987581200,1.102581298828125,0.7615805864334106,-11.700762748718262,-1.9895068407058716
1761399108997661400,1.112661376953125,0.4159925580024719,-11.126379013061523,-1.7602620124816895
1761399109007733000,1.12273291015625,0.4744260311126709,-10.607211112976074,-1.7958757877349854
1761399109017823200,1.1328232421875,0.4163666367530823,-10.173112869262695,-1.9786580801010132
1761399109027903000,1.142903076171875,0.27241525053977966,-9.94289493560791,-2.253617286682129
1761399109037989000,1.152989013671875,0.25490766763687134,-10.111910820007324,-2.662127733230591
1761399109048060400,1.163060302734375,0.40776246786117554,-10.526107788085938,-2.9151649475097656
1761399109058141400,1.173141357421875,1.0126725435256958,-11.218780517578125,-3.362581491470337
1761399109068228400,1.183228271484375,1.3256396055221558,-11.149797439575195,-3.6692638397216797
1761399109078281500,1.193281494140625,1.441384196281433,-10.057592391967773,-3.825186014175415
1761399109088387800,1.203387939453125,1.3661165237426758,-8.9704008102417,-4.107926368713379
1761399109098467800,1.2134677734375,1.2524667978286743,-8.187346458435059,-4.020912170410156
1761399109108544500,1.22354443359375,1.0880898237228394,-7.65957498550415,-3.760542631149292
1761399109118629400,1.23362939453125,1.094150185585022,-7.554903507232666,-3.57753586769104
1761399109128710400,1.24371044921875,1.2042834758758545,-7.708581447601318,-3.296067476272583
1761399109138791200,1.253791259765625,1.3016974925994873,-7.915679931640625,-3.0074167251586914
1761399109148871200,1.26387109375,1.310301661491394,-8.21727466583252,-2.5907506942749023
1761399109158926800,1.2739267578125,1.2407201528549194,-8.426767349243164,-2.2986581325531006
1761399109169029400,1.284029296875,1.3300538063049316,-8.494328498840332,-2.277933359146118
1761399109179113700,1.29411376953125,1.4675707817077637,-8.461856842041016,-2.229675054550171
1761399109189195000,1.304195068359375,1.5283985137939453,-8.3428955078125,-2.000729560852051
1761399109199275000,1.31427490234375,1.6056115627288818,-8.144774436950684,-1.8253543376922607
1761399109209355800,1.324355712890625,1.7387889623641968,-7.981595039367676,-1.823109745979309
1761399109219436300,1.334436279296875,2.0619313716888428,-7.851410388946533,-1.6733973026275635
1761399109229517300,1.344517333984375,2.268206834793091,-7.70162296295166,-1.4838813543319702
1761399109239594000,1.354593994140625,2.2729203701019287,-7.50350284576416,-1.4753519296646118
1761399109249678600,1.3646787109375,2.4298901557922363,-7.045536994934082,-1.7959505319595337
1761399109259737300,1.3747373046875,2.46094012260437,-7.119607448577881,-1.5580267906188965
1761399109269840100,1.384840087890625,2.5605239868164062,-6.806191921234131,-1.9910780191421509
1761399109279921000,1.3949208984375,2.8297219276428223,-6.5855512619018555,-2.3838019371032715
1761399109290002200,1.405002197265625,3.110292434692383,-6.454692840576172,-2.2420949935913086
1761399109300078600,1.41507861328125,3.282076358795166,-6.29824686050415,-2.2091000080108643
1761399109310163500,1.42516357421875,3.365424633026123,-6.1804070472717285,-2.376993417739868
1761399109320244200,1.435244140625,3.4332852363586426,-6.093916893005371,-2.900874614715576
1761399109330324500,1.445324462890625,3.5749919414520264,-6.170680999755859,-3.55479097366333
1761399109340404700,1.45540478515625,3.7532851696014404,-6.31949520111084,-4.294300079345703
1761399109350486000,1.465486083984375,4.011260509490967,-6.539687156677246,-4.979714870452881
1761399109360563000,1.47556298828125,4.30522346496582,-6.844124794006348,-5.643282890319824
1761399109370647800,1.485647705078125,4.647519588470459,-7.250914573669434,-6.184298038482666
1761399109380728000,1.49572802734375,5.070470333099365,-7.690176010131836,-6.33221435546875
1761399109390809000,1.50580908203125,5.407454013824463,-8.100631713867188,-6.144344329833984
1761399109400889000,1.51588916015625,5.706729412078857,-8.59540843963623,-5.961113452911377
1761399109410969600,1.525969482421875,5.842525482177734,-9.165902137756348,-5.8214263916015625
1761399109421050600,1.536050537109375,5.7154083251953125,-9.606285095214844,-5.705906391143799
1761399109431127300,1.546127197265625,5.350816249847412,-9.743278503417969,-5.525742530822754
1761399109441166800,1.556166748046875,5.161749362945557,-9.431134223937988,-5.111321449279785
1761399109451293700,1.566293701171875,5.105260848999023,-8.759560585021973,-4.556614875793457
1761399109461373400,1.57637353515625,4.651559829711914,-7.9030351638793945,-3.8703765869140625
1761399109471454200,1.5864541015625,4.269235610961914,-6.987701892852783,-3.1471781730651855
1761399109481534700,1.59653466796875,4.1880574226379395,-6.109928131103516,-2.373551607131958
1761399109491611600,1.606611572265625,4.60973596572876,-5.782296180725098,-1.6098014116287231
1761399109501696300,1.6166962890625,5.201178550720215,-7.827543258666992,-1.3410521745681763
1761399109511777000,1.626777099609375,5.139004230499268,-12.3152494430542,-1.9510499238967896
1761399109521858600,1.636858642578125,4.864194869995117,-16.328231811523438,-3.0829834938049316
1761399109531938800,1.646938720703125,2.8639888763427734,-17.876157760620117,-4.148403167724609
1761399109542018800,1.657018798828125,1.907131314277649,-16.66080093383789,-4.8588080406188965
1761399109552075800,1.66707568359375,1.9164087772369385,-13.616349220275879,-4.828356742858887
1761399109562176500,1.677176513671875,0.9843161702156067,-10.045696258544922,-4.037746429443359
1761399109572261000,1.68726123046875,0.06980594247579575,-7.581389427185059,-2.6333224773406982
1761399109582319400,1.6973193359375,-0.5877765417098999,-6.233977317810059,-1.625662922859192
1761399109592422700,1.707422607421875,-1.169567584991455,-5.5457940101623535,-1.372700572013855
1761399109602503200,1.717503173828125,-1.5209914445877075,-5.265223503112793,-1.6572364568710327
1761399109612565800,1.727565673828125,-1.427542805671692,-5.598990440368652,-2.2696282863616943
1761399109622660900,1.737660888671875,-1.1738321781158447,-6.759205341339111,-3.262773275375366
1761399109632745500,1.747745361328125,-1.2923451662063599,-8.595857620239258,-4.81705904006958
1761399109642826000,1.757825927734375,-1.4623335599899292,-10.324246406555176,-6.535048484802246
1761399109652906800,1.76790673828125,-1.3431471586227417,-10.932971954345703,-7.155595302581787
1761399109662987800,1.77798779296875,-0.8092401623725891,-10.13398265838623,-6.419303894042969
1761399109673068500,1.788068603515625,-0.36257192492485046,-9.171961784362793,-5.117456436157227
1761399109683145000,1.79814501953125,0.026560675352811813,-8.588226318359375,-3.562272787094116
1761399109693229600,1.8082294921875,0.3073556423187256,-8.322469711303711,-2.2876596450805664
1761399109703310300,1.818310302734375,0.3554641306400299,-8.251017570495605,-1.6368108987808228
1761399109713390800,1.828390869140625,0.4323030412197113,-8.355315208435059,-1.5271265506744385
1761399109723472000,1.838471923828125,0.4786158800125122,-8.568324089050293,-1.7966986894607544
1761399109733551900,1.8485517578125,0.38793548941612244,-8.810362815856934,-2.1682488918304443
1761399109743633000,1.8586328125,0.13003507256507874,-9.113677978515625,-2.627636432647705
1761399109753710000,1.8687099609375,0.03688567131757736,-9.27221965789795,-2.9642462730407715
1761399109763794400,1.87879443359375,0.09142857789993286,-9.250746726989746,-3.178901195526123
1761399109773875200,1.888875244140625,0.3039887845516205,-9.014543533325195,-3.15047025680542
1761399109783956000,1.8989560546875,0.3580828011035919,-8.682272911071777,-3.050886392593384
1761399109794036500,1.909036376953125,0.34274494647979736,-8.46627140045166,-3.114332675933838
1761399109804117500,1.919117431640625,0.15165771543979645,-8.243086814880371,-3.202768564224243
1761399109814196000,1.929196044921875,0.07242459803819656,-8.16220760345459,-3.4544589519500732
1761399109824278800,1.93927880859375,0.014140754006803036,-8.27518367767334,-3.885190725326538
1761399109834360000,1.949360107421875,-0.004788403399288654,-8.482282638549805,-4.267739295959473
1761399109844440300,1.9594404296875,0.07092822343111038,-8.688034057617188,-4.569932460784912
1761399109854521000,1.96952099609375,0.2629880905151367,-8.76337718963623,-4.638167381286621
1761399109864602000,1.97960205078125,0.42010757327079773,-8.695740699768066,-4.522796630859375
1761399109874682400,1.989682373046875,0.4900631606578827,-8.565855026245117,-4.331409931182861
1761399109884759000,1.999759033203125,0.5914426445960999,-8.285882949829102,-4.053009510040283
1761399109894832600,2.00983251953125,0.5229834318161011,-8.240543365478516,-4.250680446624756
1761399109904925000,2.019925048828125,0.4572925269603729,-8.03538990020752,-4.214992046356201
1761399109915005200,2.030005126953125,0.22827216982841492,-7.921515464782715,-4.217311382293701
1761399109925078300,2.040078369140625,0.042272623628377914,-7.990872859954834,-4.150348663330078
1761399109935167200,2.050167236328125,-0.06973112374544144,-8.231414794921875,-4.093411445617676
1761399109945247700,2.060247802734375,-0.1512088030576706,-8.566228866577148,-3.889305830001831
1761399109955303700,2.0703037109375,-0.22498014569282532,-9.03863525390625,-3.796006679534912
1761399109965408800,2.08040869140625,-0.15726912021636963,-9.515305519104004,-3.5113213062286377
1761399109975489800,2.09048974609375,0.175225630402565,-9.529746055603027,-3.12233829498291
1761399109985570000,2.100570068359375,0.5776011347770691,-9.230320930480957,-3.0324809551239014
1761399109995650600,2.110650634765625,0.4129997789859772,-9.630900382995605,-3.6779427528381348
1761399110005757000,2.1207568359375,0.46664488315582275,-9.607183456420898,-3.7520880699157715
1761399110015812400,2.130812255859375,0.397512286901474,-9.625887870788574,-4.001758575439453
1761399110025868000,2.140867919921875,0.09105448424816132,-9.574861526489258,-4.168679237365723
1761399110035949000,2.150948974609375,-0.1900397539138794,-9.432106971740723,-4.116455554962158
1761399110046054400,2.161054443359375,-0.39624038338661194,-9.480664253234863,-4.053832530975342
1761399110056135200,2.17113525390625,-0.5665279626846313,-9.714921951293945,-4.150498390197754
1761399110066215700,2.181215576171875,-0.5200654864311218,-9.850494384765625,-4.277390956878662
1761399110076296400,2.19129638671875,-0.3684077858924866,-9.927632331848145,-4.491372585296631
1761399110086352100,2.20135205078125,-0.15090952813625336,-9.956886291503906,-4.662184238433838
1761399110096458000,2.2114580078125,0.04593874514102936,-9.984869003295898,-4.919111728668213
1761399110106538500,2.22153857421875,0.2718915343284607,-9.963021278381348,-5.287370204925537
1761399110116603000,2.231602783203125,0.4290858507156372,-9.742081642150879,-5.697751045227051
1761399110126700300,2.2417001953125,0.42347443103790283,-9.321674346923828,-6.243404865264893
1761399110136781300,2.25178125,-0.18293197453022003,-8.991948127746582,-7.155371189117432
1761399110146839000,2.261839111328125,-0.9751882553100586,-8.95004940032959,-8.258798599243164
1761399110156942000,2.271942138671875,-0.9203460812568665,-8.84051513671875,-9.029806137084961
1761399110167022800,2.28202294921875,0.0653168186545372,-8.89378547668457,-9.482535362243652
1761399110177057000,2.29205712890625,0.03157353401184082,-9.02479362487793,-9.38317584991455
1761399110187184000,2.30218408203125,-0.4357447028160095,-8.719682693481445,-8.259098052978516
1761399110197290200,2.312290283203125,-0.06097732484340668,-8.982071876525879,-6.991742134094238
1761399110207339500,2.322339599609375,0.7735515832901001,-10.186954498291016,-5.406182289123535
1761399110217424600,2.332424560546875,1.643993616104126,-11.597064018249512,-3.4269256591796875
1761399110227507000,2.3425068359375,1.7137994766235352,-12.684929847717285,-1.7833061218261719
1761399110237589000,2.352589111328125,1.5234605073928833,-13.53614330291748,-0.7924059629440308
1761399110247647700,2.362647705078125,1.0492589473724365,-13.77017593383789,-0.29044657945632935
1761399110257729800,2.372729736328125,0.16497546434402466,-13.318345069885254,-0.07175122946500778
1761399110267830800,2.382830810546875,-0.42369887232780457,-12.497733116149902,-0.5424363017082214
1761399110277910500,2.39291064453125,-0.8030301928520203,-10.981230735778809,-1.7693150043487549
1761399110287992000,2.402991943359375,-0.6367828249931335,-9.582268714904785,-3.382258892059326
1761399110298067700,2.413067626953125,0.3654898405075073,-9.044994354248047,-4.778751850128174
1761399110308148700,2.423148681640625,1.5158289670944214,-9.355642318725586,-5.803769588470459
1761399110318212600,2.433212646484375,1.797521710395813,-9.790339469909668,-6.164021968841553
1761399110328314000,2.443314208984375,1.501463770866394,-9.860071182250977,-6.2509613037109375
1761399110338395400,2.4533955078125,0.8797942996025085,-9.459266662597656,-5.98490571975708
1761399110348475600,2.4634755859375,0.45916298031806946,-8.97429084777832,-5.379846096038818
1761399110358556200,2.47355615234375,0.3660883903503418,-8.558073997497559,-4.759523391723633
1761399110368637000,2.483636962890625,0.3604021668434143,-8.470610618591309,-3.6697874069213867
1761399110378717700,2.4937177734375,0.2898480296134949,-8.250643730163574,-2.787898302078247
1761399110388775400,2.503775390625,0.20133739709854126,-7.884031295776367,-2.259902000427246
1761399110398854100,2.513854248046875,0.18652327358722687,-7.537919521331787,-1.7943044900894165
1761399110408934100,2.52393408203125,0.3215712010860443,-7.220463275909424,-1.3578864336013794
1761399110419041300,2.534041259765625,0.5497685670852661,-6.860809326171875,-0.959251880645752
1761399110429121800,2.544121826171875,0.9805004000663757,-6.690671443939209,-0.9062801599502563
1761399110439179300,2.55417919921875,1.5229367017745972,-6.675931930541992,-0.7557447552680969
1761399110449304000,2.564303955078125,1.3813796043395996,-6.659397125244141,-0.9086743593215942
1761399110459342300,2.57434228515625,1.4535049200057983,-6.809109687805176,-1.0721534490585327
1761399110469444600,2.584444580078125,1.629628300666809,-6.978724002838135,-1.2078747749328613
1761399110479524600,2.594524658203125,1.7134253978729248,-7.078157901763916,-1.2884546518325806
1761399110489605400,2.60460546875,1.6650176048278809,-7.026832580566406,-1.3058125972747803
1761399110499686000,2.614685791015625,1.8680758476257324,-7.152976989746094,-0.5527613162994385
1761399110509741600,2.624741455078125,1.9897311925888062,-6.641141414642334,-0.5337573289871216
1761399110519821800,2.63482177734375,2.1738603115081787,-5.843273639678955,-0.3957166373729706
1761399110529903000,2.644903076171875,2.44822096824646,-5.049895286560059,-0.1792658567428589
1761399110540009700,2.655009765625,2.9127707481384277,-4.283900260925293,-0.2107645720243454
1761399110550090200,2.66509033203125,3.406724452972412,-3.655048131942749,-0.56233811378479
1761399110560145200,2.675145263671875,3.73323392868042,-3.455132246017456,-1.410858154296875
1761399110570250800,2.685250732421875,4.217909812927246,-3.9083845615386963,-2.5540146827697754
1761399110580327700,2.69532763671875,4.59080696105957,-4.988992691040039,-3.8925230503082275
1761399110590387000,2.705386962890625,4.305522918701172,-6.791901111602783,-5.550732135772705
1761399110600468500,2.715468505859375,4.767304420471191,-9.379584312438965,-7.627552509307861
1761399110610549000,2.725549072265625,4.6903157234191895,-12.489203453063965,-9.317858695983887
1761399110620655600,2.735655517578125,5.101744651794434,-15.523180961608887,-10.637962341308594
1761399110630719000,2.745718994140625,6.559439182281494,-17.27566146850586,-10.741436004638672
1761399110640771000,2.75577099609375,7.440804958343506,-15.49647045135498,-9.406444549560547
1761399110650871000,2.76587109375,7.468862056732178,-11.620258331298828,-7.007154941558838
1761399110660978200,2.775978271484375,7.414618015289307,-8.877999305725098,-4.917166709899902
1761399110671058400,2.786058349609375,6.798335552215576,-7.166294574737549,-3.808950424194336
1761399110681098500,2.796098388671875,5.508309841156006,-5.564573764801025,-3.0264954566955566
1761399110691219200,2.80621923828125,3.7877018451690674,-3.9653217792510986,-2.7577462196350098
1761399110701275000,2.81627490234375,3.2660651206970215,-2.527528762817383,-3.314023971557617
1761399110711377000,2.826376953125,3.969810962677002,-1.7574188709259033,-4.023755073547363
1761399110721436700,2.836436767578125,4.504540920257568,-3.850923776626587,-4.712761402130127
1761399110731542800,2.846542724609375,3.142838716506958,-9.91057300567627,-6.777535915374756
1761399110741597700,2.85659765625,-0.01735796220600605,-16.122554779052734,-8.642095565795898
1761399110751704000,2.8667041015625,-1.4337527751922607,-20.51905632019043,-8.330026626586914
1761399110761784800,2.876784912109375,2.1280713081359863,-20.974103927612305,-8.339827537536621
1761399110771857400,2.886857421875,2.9827263355255127,-16.013019561767578,-7.000795364379883
1761399110781923300,2.89692333984375,1.7813608646392822,-10.008810997009277,-3.116652011871338
1761399110792026600,2.907026611328125,0.22093991935253143,-5.904026508331299,0.3205985724925995
1761399110802122500,2.91712255859375,-1.0791115760803223,-4.179677486419678,1.8180968761444092
1761399110812188400,2.9271884765625,-3.197531223297119,-4.081590175628662,1.2728923559188843
1761399110822269700,2.937269775390625,-4.316147327423096,-4.814589977264404,-0.041449617594480515
1761399110832326400,2.947326416015625,-3.794809579849243,-6.5954270362854,-1.4951789379119873
1761399110842426000,2.957426025390625,-2.3487119674682617,-9.700108528137207,-3.389965057373047
1761399110852510700,2.9675107421875,-1.1584943532943726,-12.549432754516602,-5.224372386932373
1761399110862592000,2.977592041015625,-0.3800795078277588,-13.704336166381836,-5.615151405334473
1761399110872672500,2.987672607421875,0.2654571235179901,-12.482544898986816,-5.244274139404297
1761399110882753000,2.9977529296875,1.2906991243362427,-10.18493366241455,-3.9065890312194824
1761399110892855800,3.007855712890625,1.4419827461242676,-8.34873104095459,-2.4319851398468018
1761399110902910700,3.01791064453125,1.2294225692749023,-7.412148952484131,-1.0768669843673706
1761399110912995000,3.0279951171875,1.0517278909683228,-7.381623268127441,-0.5414636731147766
1761399110923076000,3.038076171875,1.0867431163787842,-8.039804458618164,-0.5680243372917175
1761399110933157000,3.0481572265625,1.1280430555343628,-9.010054588317871,-0.857498288154602
1761399110943236900,3.05823681640625,0.7764695286750793,-9.654019355773926,-1.3868412971496582
1761399110953317600,3.068317626953125,0.3571849763393402,-9.739762306213379,-2.1053264141082764
1761399110963394600,3.07839453125,0.18944120407104492,-9.37053108215332,-2.6226983070373535
1761399110973479000,3.08847900390625,0.199092835187912,-8.798990249633789,-2.992377996444702
1761399110993640200,3.10864013671875,0.31206923723220825,-7.711947917938232,-3.6635775566101074
1761399111003722200,3.11872216796875,0.09733926504850388,-7.408483028411865,-3.84501314163208
1761399111033938200,3.148938232421875,-0.5833622217178345,-7.4806084632873535,-4.725705146789551
1761399111044035300,3.159035400390625,-0.3312976658344269,-7.576526165008545,-4.88102912902832
1761399111054124500,3.16912451171875,0.07055412977933884,-7.750629425048828,-4.900032997131348
1761399111064206000,3.1792060546875,0.46754270792007446,-7.998504161834717,-4.863072395324707
1761399111074285800,3.189285888671875,0.7094318866729736,-8.220417022705078,-4.756605625152588
1761399111084337700,3.199337646484375,0.7312041521072388,-8.486397743225098,-4.761618137359619
1761399111094425600,3.209425537109375,0.5480477213859558,-8.652719497680664,-4.585345268249512
1761399111104529200,3.219529052734375,0.2712181508541107,-8.778939247131348,-4.584671974182129
1761399111114609000,3.22960888671875,0.031199440360069275,-8.755146980285645,-4.565742492675781
1761399111124690700,3.239690673828125,-0.14238017797470093,-8.637606620788574,-4.586542129516602
1761399111134771000,3.24977099609375,-0.18652327358722687,-8.423026084899902,-4.51067590713501
1761399111144851500,3.2598515625,-0.08716390281915665,-8.293140411376953,-4.31951379776001
1761399111154932500,3.269932373046875,0.09935937076807022,-8.314165115356445,-4.00228214263916
1761399111165012700,3.2800126953125,0.2751087248325348,-8.51370620727539,-3.889829635620117
1761399111175094300,3.29009423828125,0.24899697303771973,-8.613814353942871,-3.5894320011138916
1761399111185138000,3.300137939453125,-0.06883329898118973,-8.766669273376465,-4.036250114440918
1761399111195229700,3.310229736328125,-0.5072714686393738,-8.90381145477295,-4.699818134307861
1761399111205336000,3.320336181640625,-1.1179425716400146,-9.019331932067871,-5.346626281738281
1761399111215416800,3.330416748046875,-1.6238672733306885,-8.927453994750977,-5.708150863647461
1761399111225478100,3.34047802734375,-1.6196774244308472,-8.78425121307373,-5.796287536621094
1761399111235567600,3.350567626953125,-1.306560754776001,-8.921618461608887,-5.671938419342041
1761399111245632800,3.3606328125,-1.15243399143219,-9.445499420166016,-5.4572834968566895
1761399111255714000,3.370714111328125,-1.0400562286376953,-10.00035572052002,-5.180977821350098
1761399111265794600,3.380794677734375,-0.8343044519424438,-10.416049003601074,-4.752340793609619
1761399111275876000,3.3908759765625,-0.4356698989868164,-10.791714668273926,-4.143989086151123
1761399111285955800,3.400955810546875,0.023493103682994843,-11.142539978027344,-3.6231753826141357
1761399111296036400,3.411036376953125,0.27570727467536926,-11.298312187194824,-3.3709611892700195
1761399111306117400,3.421117431640625,-0.07384616136550903,-11.077522277832031,-3.6029741764068604
1761399111316186600,3.4311865234375,-0.9840168952941895,-10.955492973327637,-4.954949855804443
1761399111326288000,3.441287841796875,-1.657984733581543,-10.976217269897461,-6.52105712890625
1761399111336369000,3.451368896484375,-1.38407301902771,-10.46438217163086,-7.075314998626709
1761399111346449200,3.46144921875,-0.6621463894844055,-9.8854341506958,-7.38364315032959
1761399111356546600,3.471546630859375,-0.8536825180053711,-9.416470527648926,-8.124499320983887
1761399111366626600,3.48162646484375,-0.8674492239952087,-9.114127159118652,-8.186898231506348
1761399111376707300,3.491707275390625,-0.38815996050834656,-9.45560073852539,-7.161132335662842
1761399111386788000,3.5017880859375,-0.14739304780960083,-10.632125854492188,-5.809979438781738
1761399111396868900,3.511868896484375,0.31700727343559265,-11.457451820373535,-4.802170276641846
1761399111406949400,3.521949462890625,0.4017021656036377,-11.200224876403809,-3.41719913482666
1761399111417023200,3.532023193359375,0.8867524266242981,-10.785579681396484,-1.8275989294052124
1761399111427085800,3.5420859375,1.5994763374328613,-11.28566837310791,-1.0297311544418335
1761399111437192200,3.552192138671875,2.099565267562866,-11.941530227661133,-0.3164087235927582
1761399111447272200,3.562272216796875,2.1828386783599854,-12.493244171142578,-0.15233108401298523
1761399111457316900,3.57231689453125,1.5762077569961548,-12.42119312286377,-0.5566518902778625
1761399111467434500,3.5824345703125,0.7499836683273315,-11.393332481384277,-1.0874165296554565
1761399111477489200,3.5924892578125,0.15442600846290588,-9.897705078125,-1.5616928339004517
1761399111487595000,3.602594970703125,0.1412578970193863,-9.1685209274292,-2.2030396461486816
1761399111497675800,3.61267578125,-0.1414075344800949,-9.778593063354492,-3.4006643295288086
1761399111507756500,3.622756591796875,-0.13130700588226318,-11.023353576660156,-4.5649943351745605
1761399111517837800,3.632837890625,0.2948608994483948,-12.443264961242676,-5.120598793029785
1761399111527918000,3.64291796875,0.9206453561782837,-13.03627872467041,-5.168108940124512
1761399111537996800,3.652996826171875,1.2137106657028198,-12.047323226928711,-4.913276195526123
1761399111548075000,3.663074951171875,1.1201122999191284,-11.289334297180176,-3.830947160720825
1761399111558157800,3.67315771484375,1.0605565309524536,-10.53598403930664,-3.2136919498443604
1761399111568240600,3.68324072265625,1.265709638595581,-9.633893966674805,-2.6430490016937256
1761399111578322000,3.693322021484375,1.4573954343795776,-8.50173568725586,-1.935113549232483
1761399111588377000,3.703377197265625,1.9335423707962036,-7.892710208892822,-1.2087725400924683
1761399111598479400,3.713479248046875,2.0049195289611816,-7.716362476348877,-1.000028133392334
1761399111608564500,3.723564453125,1.3744962215423584,-7.862558364868164,-1.1623101234436035
1761399111618645200,3.733645263671875,0.8521113395690918,-8.107141494750977,-1.2526912689208984
1761399111628704000,3.7437041015625,1.0301052331924438,-8.47435188293457,-1.6665140390396118
1761399111638806000,3.753805908203125,1.7701380252838135,-8.810811996459961,-2.2218191623687744
1761399111648887000,3.763886962890625,2.216132879257202,-9.078139305114746,-3.28731369972229
1761399111658961400,3.77396142578125,2.179396867752075,-9.072752952575684,-4.185962200164795
1761399111669044000,3.7840439453125,1.9861398935317993,-9.104924201965332,-4.309638023376465
1761399111679128600,3.794128662109375,2.023923397064209,-8.52956771850586,-3.8114943504333496
1761399111689209300,3.804209228515625,2.2895302772521973,-7.758335590362549,-2.3935282230377197
1761399111699290000,3.8142900390625,2.3009774684906006,-6.737807273864746,-2.12717342376709
1761399111709370400,3.824370361328125,2.551395893096924,-5.618967056274414,-2.1897218227386475
1761399111719452000,3.834451904296875,3.0312838554382324,-4.975001335144043,-2.4352023601531982
1761399111729527800,3.84452783203125,3.0790929794311523,-4.78084659576416,-2.3698856830596924
1761399111739613200,3.85461328125,3.120168447494507,-4.738499164581299,-2.8359320163726807
1761399111749694200,3.864694091796875,3.57521653175354,-4.838831424713135,-3.111414670944214
1761399111759774500,3.8747744140625,3.6397104263305664,-5.051466464996338,-3.5464861392974854
1761399111769855500,3.88485546875,3.248333215713501,-5.104213714599609,-3.7900960445404053
1761399111779936300,3.894936279296875,2.60085129737854,-4.9340009689331055,-4.2101287841796875
1761399111789991000,3.904990966796875,2.3172130584716797,-4.964751243591309,-4.399271011352539
1761399111800093000,3.915093017578125,2.2446389198303223,-4.75308895111084,-4.050989151000977
1761399111810152200,3.925152099609375,2.1529858112335205,-4.323329925537109,-3.188926935195923
1761399111820259000,3.935259033203125,2.1816415786743164,-3.8873605728149414,-2.2083518505096436
1761399111830342700,3.9453427734375,2.358363389968872,-3.3809120655059814,-1.2381763458251953
1761399111840419800,3.955419921875,2.492513656616211,-2.9340193271636963,-0.5416133403778076
1761399111850501000,3.965501220703125,2.4628853797912598,-2.692429542541504,-0.17342998087406158
1761399111860577500,3.97557763671875,2.4339303970336914,-2.864811897277832,-0.11372458189725876
1761399111870662700,3.98566259765625,3.2350902557373047,-3.523890733718872,-0.3702782690525055
1761399111880742400,3.995742431640625,4.770596504211426,-4.530951976776123,-0.7425017952919006
1761399111890823400,4.005823486328125,6.778808116912842,-5.586944580078125,-1.472059965133667
1761399111900904000,4.015904052734375,8.378358840942383,-6.561459541320801,-2.7889456748962402
1761399111910985000,4.02598486328125,7.8157219886779785,-7.301567077636719,-4.762217044830322
1761399111921062000,4.036061767578125,7.136366844177246,-7.764919757843018,-7.4770917892456055
1761399111931146200,4.046146240234375,4.873771667480469,-9.426345825195312,-10.700884819030762
1761399111941227000,4.05622705078125,2.899827241897583,-13.629591941833496,-12.540080070495605
1761399111951308300,4.066308349609375,2.966789960861206,-17.076642990112305,-12.296545028686523
1761399111961364700,4.07636474609375,3.916090965270996,-16.589872360229492,-10.084826469421387
1761399111971470000,4.086469970703125,5.946673393249512,-15.689727783203125,-8.734421730041504
1761399111981550600,4.096550537109375,5.37864875793457,-17.772008895874023,-8.812308311462402
1761399111991605000,4.10660498046875,2.546158790588379,-20.045753479003906,-8.49634838104248
1761399112001711600,4.116711669921875,-0.23665186762809753,-18.011953353881836,-6.55031156539917
1761399112011791600,4.12679150390625,-0.9209446310997009,-11.93165397644043,-3.7688474655151367
1761399112021874200,4.136874267578125,3.0954034328460693,-6.937498569488525,-1.535581111907959
1761399112031953200,4.146953125,4.459874153137207,-3.8597524166107178,-1.8896236419677734
1761399112042034200,4.1570341796875,3.231873035430908,-2.1687726974487305,-2.22855281829834
1761399112052110300,4.1671103515625,0.5080196857452393,-1.6738462448120117,-2.5941176414489746
1761399112062195500,4.177195556640625,-1.966761827468872,-3.0147488117218018,-3.16318941116333
1761399112072277000,4.187277099609375,-2.9875895977020264,-5.1780595779418945,-3.7309892177581787
1761399112082357800,4.197357666015625,-3.9451205730438232,-7.8168439865112305,-4.789226531982422
1761399112092412400,4.207412353515625,-5.077353477478027,-11.128249168395996,-6.791377544403076
1761399112102519000,4.21751904296875,-4.953303813934326,-14.36176872253418,-8.769062995910645
1761399112112599600,4.227599609375,-3.0462474822998047,-15.860090255737305,-8.71953296661377
1761399112122675700,4.23767578125,-0.23373393714427948,-14.869638442993164,-5.822474002838135
1761399112132760800,4.2477607421875,0.8473977446556091,-11.380313873291016,-2.4599673748016357
1761399112142841000,4.257841064453125,1.1364976167678833,-9.022025108337402,-0.3751414716243744
1761399112152922400,4.26792236328125,1.4752771854400635,-8.153079986572266,1.2284499406814575
1761399112162977300,4.277977294921875,1.673995852470398,-7.815871238708496,2.166228771209717
1761399112173083000,4.288082763671875,1.293691873550415,-7.870040416717529,1.9876363277435303
1761399112183160000,4.29816015625,0.9956138134002686,-8.419434547424316,1.079036831855774
1761399112193219300,4.30821923828125,1.1219828128814697,-8.958728790283203,-0.2289455384016037
1761399112203326000,4.318325927734375,0.9745897054672241,-9.394698143005371,-1.5382746458053589
1761399112213406200,4.32840625,0.5394435524940491,-9.672350883483887,-2.546607494354248
1761399112223487200,4.3384873046875,0.08469488471746445,-9.611223220825195,-3.3405098915100098
1761399112233537500,4.34853759765625,-0.0330699123442173,-8.932841300964355,-3.808277130126953
1761399112243644000,4.358643798828125,0.11926117539405823,-7.9987287521362305,-3.779920816421509
1761399112253729500,4.3687294921875,0.1992424726486206,-7.285630702972412,-3.685873508453369
1761399112263810000,4.37881005859375,0.20365677773952484,-6.878990173339844,-3.7107133865356445
1761399112273890800,4.388890869140625,0.19191023707389832,-6.834174156188965,-3.9677908420562744
1761399112283971600,4.3989716796875,0.18629881739616394,-7.056684970855713,-4.3954548835754395
1761399112294006000,4.409006103515625,0.16101007163524628,-7.398008346557617,-4.820126533508301
1761399112304114400,4.419114501953125,0.1958008110523224,-7.796717643737793,-5.0266265869140625
1761399112314187800,4.429187744140625,0.3892822265625,-8.052298545837402,-5.100996494293213
1761399112324268300,4.439268310546875,0.6497265100479126,-8.07347297668457,-5.084012508392334
1761399112334375200,4.449375244140625,0.8197896480560303,-7.9823431968688965,-5.054084777832031
1761399112344455000,4.459454833984375,0.7761702537536621,-7.906476974487305,-5.028871059417725
1761399112354536400,4.469536376953125,0.5995978713035583,-7.759832382202148,-5.0923919677734375
1761399112364616400,4.479616455078125,0.4490624666213989,-7.61909818649292,-5.17476749420166
1761399112374698000,4.489697998046875,0.3146878778934479,-7.598597526550293,-5.280786037445068
1761399112384778000,4.499778076171875,0.3214215636253357,-7.723395347595215,-5.3214874267578125
1761399112394833700,4.509833740234375,0.3835960030555725,-7.944185733795166,-5.191976070404053
1761399112404939300,4.519939208984375,0.6314706802368164,-8.13220500946045,-4.6879963874816895
1761399112415020000,4.53002001953125,0.7318775057792664,-8.422950744628906,-3.9906105995178223
1761399112425101000,4.54010107421875,0.07369652390480042,-8.946832656860352,-3.7048773765563965
1761399112435182300,4.550182373046875,-1.315314531326294,-9.60643482208252,-3.9181110858917236
1761399112445262600,4.5602626953125,-2.2142624855041504,-9.914389610290527,-4.00841760635376
1761399112455357700,4.570357666015625,-2.2071547508239746,-10.029311180114746,-4.4146833419799805
1761399112465423400,4.58042333984375,-2.1476738452911377,-10.110040664672852,-5.351115703582764
1761399112475483000,4.59048291015625,-1.9813514947891235,-10.201169967651367,-6.112022876739502
1761399112485585000,4.6005849609375,-1.566182017326355,-10.338163375854492,-6.345232963562012
1761399112495656700,4.61065673828125,-1.0172364711761475,-10.302623748779297,-6.0143842697143555
1761399112505749800,4.620749755859375,-0.5042039155960083,-10.231321334838867,-5.389796733856201
1761399112515827000,4.630826904296875,-0.11013327538967133,-10.224513053894043,-5.081169605255127
1761399112525882400,4.64088232421875,-0.18248306214809418,-10.230199813842773,-5.6052751541137695
1761399112535970800,4.650970703125,-0.695814847946167,-10.210521697998047,-6.986729621887207
1761399112546070000,4.661070068359375,-1.054496169090271,-10.003872871398926,-8.43739128112793
1761399112556161300,4.671161376953125,-0.6903530955314636,-9.625887870788574,-9.379210472106934
1761399112566231300,4.681231201171875,-0.7955483198165894,-9.027412414550781,-9.64339542388916
1761399112576311000,4.69131103515625,-1.1306617259979248,-8.5811185836792,-9.070058822631836
1761399112586392600,4.701392578125,-1.1022305488586426,-8.957905769348145,-7.625906467437744
1761399112596447500,4.711447509765625,-0.21667525172233582,-9.676166534423828,-6.001739978790283
1761399112606554000,4.72155419921875,0.09868600219488144,-9.945738792419434,-4.547861099243164
1761399112616626700,4.731626708984375,0.21630115807056427,-9.598803520202637,-2.749591112136841
1761399112626715100,4.741715087890625,0.42212769389152527,-9.874436378479004,-1.595585823059082
1761399112636796200,4.751796142578125,1.0181342363357544,-10.83668041229248,-0.7846996188163757
1761399112646876200,4.761876220703125,1.546878695487976,-11.92394733428955,-0.06733692437410355
1761399112656957000,4.77195703125,1.4407109022140503,-12.884696006774902,0.29306524991989136
1761399112667037400,4.782037353515625,0.9582792520523071,-13.570784568786621,0.5230582356452942
1761399112677119200,4.792119140625,0.11148001998662949,-13.480478286743164,0.46006083488464355
1761399112687199000,4.802198974609375,-0.5305401086807251,-12.569035530090332,-0.07706336677074432
1761399112697280000,4.812280029296875,-0.5677250623703003,-11.44144058227539,-1.2137854099273682
1761399112707361000,4.822361083984375,0.10527005791664124,-10.8836669921875,-2.4507646560668945
1761399112717441800,4.83244189453125,0.9891793727874756,-10.98968505859375,-3.446977138519287
1761399112727522600,4.8425224609375,1.6359131336212158,-11.571026802062988,-4.451943397521973
1761399112737603600,4.852603515625,1.736694097518921,-11.685275077819824,-5.09224271774292
1761399112747658200,4.862658203125,1.6698808670043945,-11.01632022857666,-5.069797039031982
1761399112757763800,4.872763916015625,1.5582512617111206,-10.058489799499512,-4.796558856964111
1761399112767822000,4.882822021484375,1.2726678848266602,-9.219098091125488,-4.366574764251709
1761399112777925000,4.892925048828125,0.959102213382721,-8.760159492492676,-3.7596447467803955
1761399112788005000,4.903005126953125,0.7268646955490112,-8.55732536315918,-3.2316484451293945
1761399112798082600,4.91308251953125,0.5282955765724182,-8.356512069702148,-2.9081320762634277
1761399112808166100,4.923166259765625,0.2073977291584015,-8.102128028869629,-2.5626935958862305
1761399112818244400,4.933244384765625,0.200065478682518,-7.905653953552246,-2.3708581924438477
1761399112828328700,4.94332861328125,0.4777180552482605,-7.832107067108154,-1.885284185409546
1761399112838410000,4.953409912109375,0.9938181638717651,-7.745092868804932,-1.7500866651535034
1761399112848490800,4.96349072265625,1.5196447372436523,-7.747187614440918,-1.761085033416748
1761399112858571500,4.973571533203125,1.8017115592956543,-7.615431785583496,-1.7485902309417725
1761399112868652000,4.983652099609375,2.000729560852051,-7.3145856857299805,-1.5564556121826172
1761399112878728200,4.993728271484375,1.9204490184783936,-6.872855186462402,-1.3453168869018555
1761399112888813000,5.00381298828125,1.7583914995193481,-6.481852054595947,-1.1366472244262695
1761399112898893800,5.013893798828125,1.563488483428955,-6.213252544403076,-0.8678233027458191
1761399112908962800,5.023962890625,1.4212579727172852,-6.010418891906738,-0.6536170840263367
1761399112919055400,5.034055419921875,1.3288567066192627,-5.725957870483398,-0.4365677237510681
1761399112929123800,5.044123779296875,1.2881553173065186,-5.309591293334961,-0.2463034987449646
1761399112939198200,5.0541982421875,1.2847884893417358,-4.817807197570801,-0.1867477297782898
1761399112949293800,5.0642939453125,1.3418751955032349,-4.348693370819092,-0.1835305243730545
1761399112959378000,5.0743779296875,1.4882956743240356,-3.995398998260498,-0.0293289702385664
1761399112969458700,5.084458740234375,1.7739537954330444,-3.703306198120117,-0.055665191262960434
1761399112979540200,5.094540283203125,2.0947020053863525,-3.528604507446289,-0.47981297969818115
1761399112989621000,5.10462109375,2.425401210784912,-3.6210055351257324,-1.1268459558486938
1761399112999701500,5.114701416015625,3.191695213317871,-4.217311382293701,-1.9306992292404175
1761399113009778200,5.124778076171875,4.59200382232666,-5.310638427734375,-3.0953288078308105
1761399113019837200,5.134837158203125,6.595053195953369,-7.089755058288574,-4.74268913269043
1761399113029943300,5.144943359375,7.531111240386963,-9.609951972961426,-6.71102237701416
1761399113040024600,5.155024658203125,6.542679786682129,-12.609586715698242,-9.306785583496094
1761399113050082300,5.165082275390625,5.589937210083008,-16.22580337524414,-12.790424346923828
1761399113060185600,5.175185546875,5.852177143096924,-18.109142303466797,-14.242506980895996
1761399113070265900,5.185265869140625,6.648698329925537,-15.990424156188965,-12.349217414855957
1761399113080343000,5.195343017578125,6.687828540802002,-12.001384735107422,-9.656264305114746
1761399113090427400,5.205427490234375,6.981866359710693,-8.702249526977539,-7.185597896575928
1761399113100509000,5.215509033203125,6.427159786224365,-5.9275946617126465,-5.634903430938721
1761399113110589200,5.225589111328125,5.518335819244385,-3.632378101348877,-4.709245204925537
1761399113120669400,5.23566943359375,5.248838424682617,-2.0575170516967773,-4.139500141143799
1761399113130750500,5.24575048828125,5.017049789428711,-2.3879916667938232,-3.690138101577759
1761399113140826600,5.25582666015625,3.5632455348968506,-6.989572525024414,-4.9333271980285645
1761399113150912000,5.265912109375,2.8080244064331055,-12.958541870117188,-6.8221282958984375
1761399113161004500,5.276004638671875,3.3510594367980957,-17.086145401000977,-6.788235187530518
1761399113171072800,5.28607275390625,1.7357962131500244,-17.908254623413086,-6.138583660125732
1761399113181154000,5.296154052734375,0.00905307475477457,-14.91482925415039,-5.06411075592041
1761399113191210200,5.306210205078125,0.8438813090324402,-10.707767486572266,-3.685873508453369
1761399113201312000,5.31631201171875,1.2105681896209717,-7.234753608703613,-2.6996121406555176
1761399113211395800,5.326395751953125,0.6405237913131714,-5.227889060974121,-1.1800421476364136
1761399113221476400,5.336476318359375,0.3718494474887848,-4.822371006011963,0.10736498236656189
1761399113231557000,5.34655712890625,-0.6204723119735718,-5.257966041564941,0.6612485647201538
1761399113241637600,5.3566376953125,-1.7251719236373901,-5.959167957305908,0.5531353950500488
1761399113251719700,5.3667197265625,-2.3994390964508057,-7.11422061920166,-0.0017208324279636145
1761399113261799200,5.376799072265625,-2.6553940773010254,-9.418116569519043,-1.4966005086898804
1761399113271876000,5.3868759765625,-2.4833858013153076,-12.373309135437012,-3.848679304122925
1761399113281961700,5.396961669921875,-2.2082769870758057,-13.923255920410156,-5.515567302703857
1761399113292034800,5.407034912109375,-1.4007576704025269,-12.529306411743164,-5.497984886169434
1761399113302122800,5.417122802734375,-0.7400327920913696,-9.491662979125977,-4.707075595855713
1761399113312203500,5.42720361328125,-0.3288286328315735,-7.789684772491455,-4.288613796234131
1761399113322250200,5.437250244140625,0.26411038637161255,-7.543381214141846,-3.663727045059204
1761399113332340700,5.4473408203125,0.6997054219245911,-8.038606643676758,-3.0021793842315674
1761399113342419500,5.45741943359375,0.8026561141014099,-8.627057075500488,-2.4118590354919434
1761399113352525600,5.467525634765625,0.725218653678894,-9.149815559387207,-2.3353941440582275
1761399113362606000,5.477606201171875,0.8652046322822571,-9.353996276855469,-2.4049007892608643
1761399113372687000,5.48768701171875,0.6515969634056091,-9.229348182678223,-2.409614324569702
1761399113382768400,5.497768310546875,0.2693476974964142,-8.999654769897461,-2.34377384185791
1761399113392848400,5.507848388671875,-0.11058218777179718,-8.810587882995605,-2.318185806274414
1761399113402925300,5.51792529296875,-0.2876034677028656,-8.662595748901367,-2.448146104812622
1761399113412990200,5.527990234375,-0.3974374830722809,-8.423998832702637,-2.5852890014648438
1761399113423090700,5.538090576171875,-0.4902876019477844,-8.106243133544922,-2.6029460430145264
1761399113433171000,5.5481708984375,-0.4885667860507965,-7.960122108459473,-2.8516438007354736
1761399113443251700,5.558251708984375,-0.39040452241897583,-7.987431049346924,-3.41256046295166
1761399113453335600,5.56833544921875,-0.25490766763687134,-8.111181259155273,-4.219331741333008
1761399113463388200,5.57838818359375,-0.20148703455924988,-8.150535583496094,-4.97432804107666
1761399113473493800,5.58849365234375,-0.07698854804039001,-7.951966762542725,-5.47770881652832
1761399113483549700,5.5985498046875,0.23253683745861053,-7.684190273284912,-5.70164155960083
1761399113493656000,5.608656005859375,0.720280647277832,-7.52931547164917,-5.795988082885742
1761399113503736800,5.61873681640625,1.1659762859344482,-7.520337104797363,-5.68308687210083
1761399113513817600,5.628817626953125,1.3941736221313477,-7.59328556060791,-5.430647850036621
1761399113523873800,5.638873779296875,1.179518461227417,-7.6595001220703125,-5.185018062591553
1761399113533977000,5.64897705078125,0.9043349027633667,-7.637877464294434,-4.9525556564331055
1761399113544059400,5.659059326171875,0.38322192430496216,-7.868544101715088,-5.1554646492004395
1761399113554140200,5.66914013671875,0.03090016543865204,-7.82185697555542,-5.079224109649658
1761399113564221000,5.679220947265625,-0.30129531025886536,-7.876250267028809,-5.062689304351807
1761399113574275800,5.68927587890625,-0.4175637364387512,-8.14028549194336,-4.891578674316406
1761399113584382500,5.699382568359375,-0.27398645877838135,-8.604761123657227,-4.543970584869385
1761399113594459100,5.709459228515625,0.16497546434402466,-8.830414772033691,-3.846210241317749
1761399113604544300,5.719544189453125,0.25999534130096436,-9.438840866088867,-3.7143795490264893
1761399113614624300,5.729624267578125,0.6135889887809753,-9.509544372558594,-3.4338090419769287
1761399113624705500,5.73970556640625,0.5039794445037842,-9.431209564208984,-3.8511483669281006
1761399113634786000,5.7497861328125,-0.1363946795463562,-8.978779792785645,-4.612878322601318
1761399113644866800,5.75986669921875,-0.7363666892051697,-8.540266990661621,-5.382688999176025
1761399113665028000,5.780028076171875,-1.3774141073226929,-8.284236907958984,-6.000692367553711
1761399113675087400,5.79008740234375,-1.5931167602539062,-8.8093900680542,-6.133795261383057
1761399113685189600,5.800189697265625,-1.571120023727417,-9.364995002746582,-6.166640758514404
1761399113695269000,5.81026904296875,-1.1665748357772827,-9.669282913208008,-5.967622756958008
1761399113705350000,5.820349853515625,-0.6664859056472778,-9.851466178894043,-5.658770561218262
1761399113715430700,5.8304306640625,-0.39781156182289124,-10.062604904174805,-5.501276969909668
1761399113725504500,5.84050439453125,-0.5122095346450806,-10.228927612304688,-5.724461555480957
1761399113735593200,5.85059326171875,-0.7356184720993042,-10.300379753112793,-6.137161731719971
1761399113745673700,5.860673828125,-0.6007201671600342,-10.304494857788086,-6.83477258682251
1761399113755754500,5.87075439453125,-0.56368488073349,-10.207454681396484,-7.476343631744385
1761399113765835000,5.8808349609375,-1.1534066200256348,-10.176105499267578,-7.917999267578125
1761399113775916300,5.890916259765625,-0.811634361743927,-10.188301086425781,-7.401823997497559
1761399113785965800,5.9009658203125,0.6021417379379272,-10.623671531677246,-6.269965171813965
1761399113796051200,5.91105126953125,1.389310359954834,-10.747122764587402,-4.520851135253906
1761399113806158000,5.921157958984375,1.4945056438446045,-10.422633171081543,-3.0832080841064453
1761399113816229000,5.93122900390625,1.3696329593658447,-10.414478302001953,-2.2642414569854736
1761399113826294800,5.941294677734375,1.4317326545715332,-11.000907897949219,-1.5197943449020386
1761399113836400000,5.951400146484375,1.4664485454559326,-11.978415489196777,-0.6142624020576477
1761399113846481200,5.961481201171875,1.1988216638565063,-13.071593284606934,0.11776479333639145
1761399113856561000,5.971560791015625,0.4670937955379486,-13.797036170959473,0.5582979321479797
1761399113866641400,5.981641357421875,-0.1629553586244583,-13.960290908813477,0.615683913230896
1761399113876722700,5.99172265625,-0.31610944867134094,-13.418153762817383,0.28558337688446045
1761399113886803200,6.00180322265625,0.18465280532836914,-12.324152946472168,-0.35015198588371277
1761399113896884500,6.011884521484375,0.9235633015632629,-11.480196952819824,-1.3202526569366455
1761399113906965000,6.021965087890625,1.4675707817077637,-11.1195707321167,-2.3684639930725098
1761399113917027000,6.032027099609375,1.5504701137542725,-10.934843063354492,-3.2106993198394775
1761399113927126300,6.042126220703125,1.3325977325439453,-10.521768569946289,-4.022558212280273
1761399113937207300,6.052207275390625,1.0441712141036987,-9.838672637939453,-4.505588531494141
1761399113947287800,6.062287841796875,1.0604816675186157,-9.072303771972656,-4.741417407989502
1761399113957368300,6.072368408203125,1.052101969718933,-8.262763977050781,-4.704007625579834
1761399113967449600,6.08244970703125,1.249474048614502,-7.529016017913818,-4.5831756591796875
1761399113977529000,6.092529052734375,1.311798095703125,-7.11227560043335,-4.183269023895264
1761399113987610600,6.102610595703125,1.095047950744629,-6.9992241859436035,-3.5573348999023438
1761399113997656600,6.112656494140625,0.9439888596534729,-7.070676326751709,-3.007566213607788
1761399114007771100,6.122771240234375,0.6399252414703369,-7.272761821746826,-2.6111013889312744
1761399114017852700,6.132852783203125,0.6015431880950928,-7.474547863006592,-2.3767688274383545
1761399114027908000,6.142908203125,0.6425438523292542,-7.425915718078613,-2.4145524501800537
1761399114037988600,6.152988525390625,0.9030629396438599,-7.413570880889893,-2.2711997032165527
1761399114048090400,6.16309033203125,1.3207014799118042,-7.258396625518799,-2.011728048324585
1761399114058150000,6.17314990234375,1.691129446029663,-7.035286903381348,-1.763179898262024
1761399114068219400,6.183219482421875,1.958082914352417,-6.69373893737793,-1.6851439476013184
1761399114078317000,6.193317138671875,2.047940254211426,-6.534075736999512,-1.2799252271652222
1761399114088417300,6.203417236328125,2.1377227306365967,-6.26472806930542,-0.8816647529602051
1761399114098493700,6.21349365234375,2.214935779571533,-5.850680828094482,-0.4024503529071808
1761399114108562200,6.223562255859375,2.1610662937164307,-5.526416301727295,0.13489830493927002
1761399114118659600,6.23365966796875,1.982024908065796,-5.275548458099365,0.3719242811203003
1761399114128740600,6.24374072265625,1.729062557220459,-5.1390790939331055,0.4216039478778839
1761399114138821400,6.2538212890625,1.4690672159194946,-5.118279457092285,0.16482582688331604
1761399114148876000,6.2638759765625,1.3498060703277588,-5.155838489532471,-0.17799393832683563
1761399114158977800,6.273977783203125,1.4761749505996704,-5.200654983520508,-0.5341314077377319
1761399114169062400,6.2840625,1.6659154891967773,-5.4223432540893555,-1.0313023328781128
1761399114179144000,6.29414404296875,2.051307201385498,-5.907991886138916,-1.8798972368240356
1761399114189224400,6.304224365234375,2.669534921646118,-6.582857608795166,-3.0025534629821777
1761399114199304700,6.3143046875,3.4087445735931396,-7.398158073425293,-4.223222255706787
1761399114209386200,6.32438623046875,4.330811500549316,-8.365191459655762,-5.44419002532959
1761399114219466000,6.334466064453125,5.25063419342041,-9.560272216796875,-6.862380504608154
1761399114229543400,6.34454345703125,5.782969951629639,-11.167828559875488,-8.51220989227295
1761399114239628800,6.35462890625,5.448379993438721,-13.103316307067871,-10.134580612182617
1761399114249683200,6.36468310546875,5.091643810272217,-14.24535083770752,-11.026421546936035
1761399114259789000,6.3747890625,5.40558385848999,-13.417630195617676,-10.281973838806152
1761399114269870300,6.384870361328125,5.3004631996154785,-11.583895683288574,-8.752378463745117
1761399114290027500,6.405027587890625,5.183895587921143,-8.593912124633789,-6.30557918548584
1761399114300086800,6.415086669921875,5.431396007537842,-6.899116516113281,-5.735085487365723
1761399114310192400,6.4251923828125,5.346701145172119,-5.1611504554748535,-5.206715106964111
1761399114320273400,6.4352734375,5.014580726623535,-3.804311752319336,-4.49675989151001
1761399114330354200,6.445354248046875,4.7415666580200195,-2.9827263355255127,-4.01268196105957
1761399114340435500,6.455435546875,4.55227518081665,-2.989684581756592,-3.8720226287841797
1761399114350515500,6.465515380859375,4.7438859939575195,-4.272303104400635,-3.6943280696868896
1761399114360592100,6.475592041015625,3.406949043273926,-7.461828708648682,-3.6886417865753174
1761399114370677200,6.48567724609375,2.026766538619995,-11.907562255859375,-4.425756454467773
1761399114380758000,6.495758056640625,3.030460834503174,-16.10123062133789,-4.389768600463867
1761399114390838800,6.5058388671875,3.5007717609405518,-18.58828353881836,-3.6985926628112793
1761399114400918800,6.515918701171875,0.5692214369773865,-18.221670150756836,-3.2446670532226562
1761399114411000600,6.52600048828125,-1.4333038330078125,-15.093047142028809,-3.6309564113616943
1761399114421055200,6.53605517578125,-2.364872694015503,-10.724377632141113,-2.9357402324676514
1761399114431162000,6.546162109375,-3.3574938774108887,-7.912238121032715,-1.2900258302688599
1761399114441216500,6.556216552734375,-3.6584150791168213,-6.703764915466309,-0.25834932923316956
1761399114451322600,6.566322509765625,-2.6663925647735596,-6.765116214752197,-0.0991349145770073
1761399114461378600,6.576378662109375,-1.428964376449585,-7.276727199554443,0.494926393032074
1761399114471484400,6.586484375,-1.1929110288619995,-7.3202714920043945,1.2931681871414185
1761399114481560800,6.596560791015625,-1.25957453250885,-7.942614555358887,1.1877485513687134
1761399114491645400,6.6066455078125,-1.6837971210479736,-10.034249305725098,-0.23238719999790192
1761399114501726000,6.616725830078125,-2.525658369064331,-12.825439453125,-2.735599994659424
1761399114511806200,6.62680615234375,-2.5240871906280518,-13.858013153076172,-4.950311183929443
1761399114521863000,6.63686279296875,-1.6065093278884888,-12.362086296081543,-5.449726581573486
1761399114531942700,6.646942626953125,-0.5548562407493591,-10.590452194213867,-4.732663154602051
1761399114542023700,6.657023681640625,0.2446574866771698,-9.558850288391113,-4.132167816162109
1761399114552104200,6.667104248046875,0.34356793761253357,-9.088764190673828,-3.3102831840515137
1761399114562185000,6.67718505859375,-0.41270050406455994,-9.01012897491455,-2.6973674297332764
1761399114572265200,6.68726513671875,-0.9652373790740967,-9.284789085388184,-1.671900987625122
1761399114582335700,6.697335693359375,-1.1901427507400513,-9.395221710205078,-1.284938097000122
1761399114592415700,6.707415771484375,-1.9191771745681763,-8.85906982421875,-1.6023194789886475
1761399114602517000,6.71751708984375,-2.990806818008423,-8.000299453735352,-2.1332337856292725
1761399114612596000,6.727595947265625,-3.561375141143799,-7.605106830596924,-2.904391050338745
1761399114622674700,6.7376748046875,-3.309460163116455,-7.836670875549316,-4.459949016571045
1761399114632775700,6.747775634765625,-2.671480178833008,-7.941342353820801,-5.974879741668701
1761399114642856000,6.75785595703125,-2.076969861984253,-7.5016326904296875,-6.653337001800537
1761399114652923600,6.767923583984375,-1.3859435319900513,-7.209315299987793,-6.938022613525391
1761399114663010300,6.77801025390625,-0.9883564114570618,-7.2206130027771,-7.180659770965576
1761399114673098000,6.788097900390625,-0.5963806509971619,-7.525350093841553,-7.285106658935547
1761399114683167200,6.798167236328125,-0.31603461503982544,-7.954660415649414,-6.925452709197998
1761399114693259500,6.808259521484375,-0.14357727766036987,-8.092626571655273,-6.190058708190918
1761399114703327000,6.818326904296875,-0.04908113554120064,-8.067112922668457,-5.734337329864502
1761399114713420800,6.8284208984375,-0.03890577703714371,-7.975310325622559,-5.661838054656982
1761399114723501800,6.838501708984375,0.14021043479442596,-8.007482528686523,-5.990816593170166
1761399114733570000,6.848570068359375,0.6337900757789612,-8.07362174987793,-6.2148237228393555
1761399114743660800,6.858660888671875,0.9243863224983215,-8.108712196350098,-6.016778469085693
1761399114753743600,6.86874365234375,0.7663689851760864,-8.079757690429688,-5.635726451873779
1761399114763824400,6.878824462890625,0.3819499909877777,-8.06307315826416,-5.32777214050293
1761399114773905200,6.8889052734375,0.16796821355819702,-7.811980724334717,-5.112593173980713
1761399114783986000,6.89898583984375,-0.2397942692041397,-7.9698486328125,-5.076904773712158
1761399114794061800,6.909061767578125,-0.07818564772605896,-7.679327011108398,-4.701613426208496
1761399114804145400,6.9191455078125,0.07586626708507538,-7.45105504989624,-4.7166523933410645
1761399114814228000,6.92922802734375,0.1792658567428589,-7.265429496765137,-4.453289985656738
1761399114824297700,6.939297607421875,0.36728549003601074,-7.5983734130859375,-4.88798713684082
1761399114834389200,6.94938916015625,0.32688334584236145,-8.144250869750977,-5.334954738616943
1761399114844470000,6.959469970703125,0.12240356206893921,-7.999027729034424,-5.310638427734375
1761399114854549200,6.96954931640625,-0.1744774430990219,-7.69810676574707,-5.081393718719482
1761399114864631800,6.9796318359375,0.11619359999895096,-7.470433235168457,-4.639214515686035
1761399114874710300,6.989710205078125,0.1958008110523224,-7.852532863616943,-4.65170955657959
1761399114884782000,6.999781982421875,0.1454477459192276,-8.443376541137695,-4.819528102874756
1761399114894873300,7.009873291015625,0.2909703254699707,-8.914810180664062,-4.814066410064697
1761399114904954400,7.019954345703125,0.4192845821380615,-9.2841157913208,-4.75196647644043
1761399114915022300,7.030022216796875,0.7039701342582703,-9.373075485229492,-4.544494152069092
1761399114925115600,7.04011572265625,0.9665841460227966,-9.26683235168457,-4.362160682678223
1761399114935194600,7.050194580078125,0.8009352684020996,-9.156923294067383,-4.756904602050781
1761399114945265700,7.060265625,0.47734397649765015,-9.029282569885254,-5.340117454528809
1761399114955357700,7.070357666015625,0.17342998087406158,-8.931120872497559,-5.770325183868408
1761399114965436400,7.0804365234375,0.2396446317434311,-8.890942573547363,-6.00495719909668
1761399114975518200,7.090518310546875,0.4391115605831146,-8.867000579833984,-6.07356595993042
1761399114985597700,7.10059765625,0.03164835274219513,-8.907477378845215,-6.255300998687744
1761399114995678700,7.1106787109375,-0.8787468671798706,-9.119664192199707,-6.53415060043335
1761399115005759200,7.12075927734375,-0.7606827616691589,-8.937779426574707,-6.776114463806152
1761399115015829200,7.130829345703125,0.19063830375671387,-8.591592788696289,-7.032668113708496
1761399115025922800,7.1409228515625,0.20283377170562744,-8.466421127319336,-6.922385215759277
1761399115036003800,7.15100390625,0.07841010391712189,-8.95461368560791,-6.097957134246826
1761399115046084400,7.16108447265625,0.39392098784446716,-9.80687427520752,-4.92539644241333
1761399115056162800,7.171162841796875,1.0928782224655151,-11.335348129272461,-3.7603182792663574
1761399115076320000,7.191320068359375,2.4478468894958496,-15.633913040161133,-1.8184709548950195
1761399115086397200,7.201397216796875,2.3027732372283936,-16.802059173583984,-1.1126303672790527
1761399115096477200,7.211477294921875,1.699583888053894,-16.420183181762695,-0.5720645785331726
1761399115106556200,7.22155615234375,0.6871358752250671,-14.415114402770996,-1.2931681871414185
1761399115116647000,7.23164697265625,-0.14320318400859833,-12.153192520141602,-2.9937996864318848
1761399115126723600,7.2417236328125,-0.3536684811115265,-10.725050926208496,-4.806060791015625
1761399115136810500,7.251810546875,0.3147627115249634,-10.298358917236328,-6.34141731262207
1761399115146891500,7.2618916015625,0.7995885610580444,-10.12021541595459,-7.7287821769714355
1761399115156957200,7.271957275390625,1.4014309644699097,-9.34269905090332,-8.49290657043457
1761399115167053000,7.282052978515625,2.036118984222412,-8.229394912719727,-8.116193771362305
1761399115177127200,7.292127197265625,2.6983401775360107,-7.503129005432129,-7.46841287612915
1761399115187212300,7.30221240234375,2.7543795108795166,-7.266402244567871,-6.677952289581299
1761399115197294800,7.312294921875,2.1816415786743164,-7.034912586212158,-5.792471885681152
1761399115207375400,7.322375244140625,1.6350152492523193,-6.842927932739258,-5.020117282867432
1761399115217451000,7.332450927734375,0.9243115186691284,-6.648024559020996,-4.301108360290527
1761399115227524400,7.3425244140625,0.25318682193756104,-6.417283535003662,-3.6519057750701904
1761399115237618000,7.352617919921875,-0.09075520932674408,-6.066906929016113,-2.9993362426757812
1761399115247696600,7.362696533203125,0.13691841065883636,-5.800776481628418,-2.4018332958221436
1761399115267843000,7.382843017578125,1.345017671585083,-5.71204137802124,-1.2333879470825195
1761399115277940000,7.39293994140625,1.782109022140503,-5.920785903930664,-0.8707412481307983
1761399115288021500,7.403021484375,2.186055898666382,-6.246771335601807,-0.5067477822303772
1761399115298102000,7.41310205078125,2.474931240081787,-6.565200328826904,-0.23029227554798126
1761399115308169700,7.423169677734375,2.576535224914551,-6.893879413604736,0.027383681386709213
1761399115318261500,7.433261474609375,2.4279448986053467,-6.825869083404541,0.13160628080368042
1761399115328344300,7.44334423828125,2.126500129699707,-6.268693447113037,0.031049802899360657
1761399115338394400,7.453394287109375,1.6421979665756226,-5.6233811378479,-0.6001216173171997
1761399115348493000,7.4634931640625,1.4231284856796265,-5.17125129699707,-1.2358570098876953
1761399115358585900,7.4735859375,1.3673136234283447,-4.965723991394043,-1.8332103490829468
1761399115368654600,7.483654541015625,1.4522329568862915,-4.9340009689331055,-2.4770262241363525
1761399115378745300,7.493745361328125,1.6838719844818115,-5.1064581871032715,-3.191770076751709
1761399115388828400,7.503828369140625,1.9384803771972656,-5.329118728637695,-3.8511483669281006
1761399115398909000,7.513908935546875,2.0639514923095703,-5.534870624542236,-4.469376087188721
1761399115408989400,7.523989501953125,2.1068227291107178,-5.824344635009766,-5.0243821144104
1761399115419070500,7.534070556640625,2.3169138431549072,-6.128782272338867,-5.462296485900879
1761399115429151200,7.544151123046875,2.8330888748168945,-6.560262203216553,-5.755436420440674
1761399115439230700,7.554230712890625,3.7293431758880615,-7.169212341308594,-5.939116477966309
1761399115449313000,7.56431298828125,4.78316593170166,-8.025439262390137,-6.220510005950928
1761399115459393300,7.574393310546875,5.655328750610352,-9.026289939880371,-6.892083644866943
1761399115469473800,7.584473876953125,6.3022871017456055,-9.953594207763672,-7.74823522567749
1761399115479536000,7.5945361328125,6.740276336669922,-10.64275074005127,-8.422652244567871
1761399115489635600,7.604635498046875,6.514398574829102,-11.15997314453125,-8.730905532836914
1761399115499716000,7.614716064453125,5.866168022155762,-11.184513092041016,-8.633565902709961
1761399115509791200,7.624791259765625,5.119925498962402,-10.531120300292969,-8.27159309387207
1761399115519877400,7.63487744140625,4.4420671463012695,-9.574112892150879,-7.604433536529541
1761399115529954800,7.644954833984375,4.064905643463135,-8.482731819152832,-6.971092224121094
1761399115540039000,7.655038818359375,4.3761515617370605,-7.3926215171813965,-6.709675312042236
1761399115550119400,7.665119384765625,5.330016613006592,-6.494347095489502,-6.694188117980957
1761399115560200000,7.675199951171875,6.564377307891846,-6.122422695159912,-6.601038455963135
1761399115570279200,7.685279052734375,6.64323616027832,-7.201309680938721,-6.510732173919678
1761399115580361000,7.69536083984375,5.271358966827393,-10.563965797424316,-7.235876083374023
1761399115590442500,7.7054423828125,5.063437461853027,-13.177087783813477,-6.770278453826904
1761399115600509700,7.715509765625,5.0592474937438965,-13.934627532958984,-4.804414749145508
1761399115610601700,7.725601806640625,4.355501651763916,-13.244873046875,-3.0287399291992188
1761399115630753000,7.7457529296875,-0.6465092897415161,-8.52029037475586,-1.9316718578338623
1761399115640832300,7.755832275390625,-0.890568196773529,-6.3674540519714355,-1.4287399053573608
1761399115650913800,7.765913818359375,-0.34012627601623535,-5.717952251434326,-0.7024737596511841
1761399115661007400,7.77600732421875,-1.2563573122024536,-5.620613098144531,-0.6894552707672119
1761399115681156000,7.796156005859375,-1.5145570039749146,-8.121131896972656,-0.2537105679512024
1761399115691249400,7.80624951171875,-1.0811316967010498,-9.769390106201172,-0.9114426374435425
1761399115701311200,7.816311279296875,-0.9790788292884827,-10.818349838256836,-1.641374945640564
1761399115711410700,7.82641064453125,-1.5136592388153076,-11.304746627807617,-2.5528175830841064
1761399115721491200,7.8364912109375,-1.8926912546157837,-11.513042449951172,-3.351508378982544
1761399115731573500,7.846573486328125,-1.8340333700180054,-11.273921966552734,-3.436427593231201
1761399115741634600,7.856634521484375,-1.565059781074524,-10.724527359008789,-3.5837459564208984
1761399115751734300,7.866734375,-1.3951462507247925,-10.18575668334961,-4.203993797302246
1761399115761812700,7.876812744140625,-0.9588778018951416,-9.97065258026123,-4.380491256713867
1761399115771877600,7.886877685546875,-0.10729016363620758,-9.67227554321289,-4.445434093475342
1761399115781976000,7.89697607421875,0.47061026096343994,-9.217751502990723,-4.436755180358887
1761399115792056800,7.907056884765625,0.5582230687141418,-8.830265045166016,-4.156857967376709
1761399115802134300,7.91713427734375,0.4258686304092407,-8.58156681060791,-3.8547396659851074
1761399115812217300,7.92721728515625,0.3473837077617645,-8.5595703125,-3.626991033554077
1761399115822286000,7.9372861328125,-0.08028057217597961,-8.673219680786133,-3.4094929695129395
1761399115832377300,7.94737744140625,-0.6660369634628296,-8.891990661621094,-3.2030677795410156
1761399115842460200,7.957460205078125,-1.25957453250885,-9.062277793884277,-3.05836820602417
1761399115852534500,7.967534423828125,-1.5809212923049927,-8.93156909942627,-2.8277766704559326
1761399115862617900,7.977617919921875,-1.6441432237625122,-8.48826789855957,-2.845583438873291
1761399115872689400,7.987689453125,-1.6598551273345947,-8.069881439208984,-3.1245081424713135
1761399115882770000,7.99777001953125,-1.7699884176254272,-7.866898059844971,-3.5873372554779053
1761399115892857900,8.00785791015625,-1.8757073879241943,-7.848492622375488,-4.340538024902344
1761399115902944000,8.017944091796876,-1.8082956075668335,-7.844452381134033,-5.230731964111328
1761399115913004300,8.02800439453125,-1.3917045593261719,-7.665036678314209,-5.972036838531494
1761399115923105500,8.03810546875,-0.8358756899833679,-7.338602066040039,-6.2824602127075195
1761399115933195500,8.048195556640625,-0.28887540102005005,-7.1618804931640625,-6.313584804534912
1761399115943266800,8.058266845703125,0.06344634294509888,-7.264232635498047,-6.148833751678467
1761399115953347800,8.068347900390625,0.41793784499168396,-7.569343566894531,-5.652934551239014
1761399115963431700,8.078431640625,0.5957821011543274,-7.823652744293213,-5.086556434631348
1761399115973509400,8.08850927734375,0.5076456069946289,-7.995436668395996,-4.654552459716797
1761399115983583200,8.098583251953125,0.13789105415344238,-8.039729118347168,-4.474239349365234
1761399115993671200,8.108671142578125,-0.09367313981056213,-8.043694496154785,-4.497358322143555
1761399116003741200,8.1187412109375,0.09816227108240128,-8.065317153930664,-4.4630913734436035
1761399116013832200,8.128832275390625,0.31184476613998413,-8.044367790222168,-4.576142311096191
1761399116023911400,8.138911376953125,0.3039887845516205,-8.084171295166016,-4.670413970947266
1761399116033993700,8.14899365234375,0.23680150508880615,-7.991246700286865,-4.68754768371582
1761399116044074800,8.15907470703125,0.32381579279899597,-7.855899333953857,-4.565742492675781
1761399116054154800,8.16915478515625,0.4770447015762329,-7.803601264953613,-4.467056751251221
1761399116064235800,8.17923583984375,0.5351788997650146,-7.996259689331055,-4.709095478057861
1761399116074316300,8.18931640625,0.18158523738384247,-8.25311279296875,-5.296722412109375
1761399116084395000,8.19939501953125,-0.25243863463401794,-8.28902530670166,-5.859659194946289
1761399116094477800,8.209477783203125,-0.22707507014274597,-8.16804313659668,-6.032789707183838
1761399116104545800,8.2195458984375,-0.07579144835472107,-8.433500289916992,-5.779228687286377
1761399116114630000,8.2296298828125,-0.1273415982723236,-8.985064506530762,-5.305551052093506
1761399116124719600,8.2397197265625,-0.2974047362804413,-9.521965026855469,-5.0027594566345215
1761399116134800600,8.249800537109374,-0.6637176275253296,-9.84488296508789,-5.066654682159424
1761399116144881400,8.25988134765625,-1.0203039646148682,-9.917980194091797,-5.368323802947998
1761399116154959600,8.269959716796874,-0.8836100697517395,-9.75629711151123,-5.598391532897949
1761399116165042400,8.28004248046875,-0.3842693865299225,-9.639803886413574,-5.503296852111816
1761399116175123200,8.290123291015625,0.0933738648891449,-9.619827270507812,-5.086706161499023
1761399116185204000,8.300203857421875,0.2919429838657379,-9.606584548950195,-4.772840976715088
1761399116195272200,8.310272216796875,0.09157821536064148,-9.626486778259277,-4.928913116455078
1761399116205364000,8.320364013671876,-0.5569511651992798,-9.742680549621582,-5.53861141204834
1761399116215431400,8.330431396484375,-0.5874024033546448,-9.515231132507324,-6.039373874664307
1761399116225506800,8.3405068359375,-0.007556699216365814,-9.234885215759277,-6.762796878814697
1761399116235605800,8.350605712890625,-0.17043723165988922,-9.025691032409668,-7.473276138305664
1761399116245675800,8.36067578125,-0.595408022403717,-9.278279304504395,-7.995586395263672
1761399116265849300,8.380849365234376,0.5948094725608826,-10.378490447998047,-5.5796122550964355
1761399116275928600,8.390928466796876,1.1150994300842285,-10.85022258758545,-3.675548553466797
1761399116285997800,8.400997802734375,1.091456651687622,-11.381660461425781,-2.399813175201416
1761399116296091600,8.411091552734375,0.604461133480072,-12.323105812072754,-1.4420576095581055
1761399116306172700,8.421172607421875,0.45512276887893677,-13.793294906616211,-0.2878279387950897
1761399116316256300,8.43125634765625,0.6177040338516235,-15.162179946899414,0.9507973790168762
1761399116326334200,8.441334228515625,0.6686556339263916,-15.80367660522461,1.5829414129257202
1761399116346487300,8.4614873046875,0.11761515587568283,-13.481001853942871,0.1562964767217636
1761399116356575700,8.47157568359375,0.05162497237324715,-11.5320463180542,-1.1100118160247803
1761399116366656800,8.48165673828125,1.0378116369247437,-10.628534317016602,-2.7929110527038574
1761399116376725000,8.49172509765625,1.67661452293396,-10.483086585998535,-4.37540340423584
1761399116386818300,8.501818359375,1.5364789962768555,-10.66369915008545,-5.189432144165039
1761399116396903400,8.5119033203125,0.8762778043746948,-10.34250259399414,-5.922881126403809
1761399116406979800,8.521979736328126,0.7308300733566284,-9.199420928955078,-6.290914535522461
1761399116417060400,8.532060302734376,1.198447585105896,-8.42467212677002,-5.63767147064209
1761399116427130400,8.54213037109375,1.6632219552993774,-7.839139938354492,-5.217040538787842
1761399116437221600,8.5522216796875,1.769838809967041,-7.506121635437012,-5.009792327880859
1761399116447303000,8.562302978515625,1.500042200088501,-7.329848289489746,-4.439298629760742
1761399116457382400,8.57238232421875,0.9400982856750488,-7.169287204742432,-3.655197858810425
1761399116467461600,8.582461669921875,0.12494739890098572,-6.783821105957031,-3.18249249458313
1761399116477544700,8.592544677734375,-0.23732523620128632,-6.476390361785889,-2.7171196937561035
1761399116487612400,8.6026123046875,-0.08117840439081192,-6.283507347106934,-2.390385866165161
1761399116497706000,8.6127060546875,0.2677764892578125,-6.267197132110596,-2.35148024559021
1761399116507786500,8.622786376953124,0.81440269947052,-6.475492477416992,-2.329857587814331
1761399116517855200,8.632855224609376,1.5019127130508423,-6.535796642303467,-1.9000983238220215
1761399116527946000,8.642946044921874,2.0592379570007324,-6.339471817016602,-1.268627643585205
1761399116538028800,8.65302880859375,2.410212993621826,-6.025532245635986,-0.6610989570617676
1761399116548109600,8.663109619140625,2.6412534713745117,-5.792247295379639,-0.033444005995988846
1761399116558190000,8.673190185546876,2.6542718410491943,-5.43259334564209,0.26313772797584534
1761399116568270800,8.683270751953126,2.3775172233581543,-4.825887680053711,0.17896658182144165
1761399116588412200,8.703412109375,1.504980206489563,-4.231003284454346,-0.8047510385513306
1761399116598511400,8.713511474609374,1.212738037109375,-4.331185817718506,-1.210119366645813
1761399116608580900,8.723580810546874,1.0972925424575806,-4.476334095001221,-1.7687164545059204
1761399116618663000,8.733662841796875,1.216478943824768,-4.682609558105469,-2.4490439891815186
1761399116628742100,8.7437421875,1.6596306562423706,-4.873846530914307,-3.2457144260406494
1761399116638836500,8.75383642578125,2.1024084091186523,-5.035679340362549,-3.9490113258361816
1761399116648904000,8.763904052734375,2.3696610927581787,-5.392415523529053,-4.770297050476074
1761399116658995000,8.773994873046876,2.9302785396575928,-6.0417680740356445,-5.779453277587891
1761399116669078500,8.78407861328125,3.8780081272125244,-6.973636150360107,-6.9094414710998535
1761399116679158500,8.794158447265625,4.918588161468506,-8.200963973999023,-7.944859027862549
1761399116689239600,8.804239501953125,5.99186372756958,-9.896059036254883,-9.158794403076172
1761399116699320000,8.814320068359375,6.823325157165527,-12.19875717163086,-10.591723442077637
1761399116709400800,8.82440087890625,6.9823899269104,-13.930662155151367,-11.671059608459473
1761399116719466200,8.83446630859375,6.936600685119629,-13.295750617980957,-11.346870422363281
1761399116729539800,8.844539794921875,6.527641296386719,-11.330933570861816,-9.739013671875
1761399116739630600,8.854630615234376,6.073640823364258,-9.889025688171387,-8.247501373291016
1761399116749703000,8.864702880859374,5.649418354034424,-8.68863296508789,-7.306879043579102
1761399116759804400,8.874804443359375,5.329268455505371,-7.339799404144287,-6.577769756317139
1761399116769884400,8.884884521484375,5.034707069396973,-5.874697685241699,-5.726406574249268
1761399116779953000,8.894952880859375,4.720841884613037,-4.240355491638184,-4.710516929626465
1761399116790034700,8.90503466796875,5.202226161956787,-3.125330924987793,-3.7688474655151367
1761399116800121900,8.915121826171875,5.618892192840576,-4.875866413116455,-3.100940227508545
1761399116810207700,8.925207763671875,4.654552459716797,-9.376666069030762,-3.392957925796509
1761399116820288300,8.935288330078125,4.01036262512207,-14.091822624206543,-3.5603275299072266
1761399116830369300,8.945369384765625,3.8436663150787354,-17.67137908935547,-2.6336967945098877
1761399116840449800,8.95544970703125,2.091035842895508,-17.815404891967773,-1.8561797142028809
1761399116850527500,8.965527587890625,-0.26919806003570557,-14.867019653320312,-1.919925332069397
1761399116860618200,8.9756181640625,-0.9861118197441101,-10.680085182189941,-2.4693198204040527
1761399116870677200,8.98567724609375,-1.0368390083312988,-7.96640682220459,-2.192939043045044
1761399116880773400,8.9957734375,-2.0241479873657227,-6.992415904998779,-1.6367361545562744
1761399116890852000,9.00585205078125,-2.2714240550994873,-6.193725109100342,-1.753229022026062
1761399116900934400,9.015934326171875,-1.0984148979187012,-6.199261665344238,-1.4060697555541992
1761399116911014700,9.0260146484375,-0.6938695907592773,-6.693813800811768,-1.325714349746704
1761399116921082400,9.036082275390624,-0.5027823448181152,-7.187692642211914,-1.2571803331375122
1761399116931164700,9.04616455078125,-0.6189759373664856,-8.22116470336914,-1.8893992900848389
1761399116941257000,9.056257080078124,-1.4680945873260498,-9.872265815734863,-3.499948740005493
1761399116951333000,9.0663330078125,-2.084526777267456,-11.233445167541504,-5.022586345672607
1761399116961417700,9.076417724609374,-1.9003976583480835,-11.572897911071777,-6.2386908531188965
1761399116971493600,9.08649365234375,-1.5373767614364624,-10.619630813598633,-6.194847106933594
1761399116981576000,9.096575927734374,-1.0449942350387573,-9.399710655212402,-5.589189052581787
1761399116991660300,9.106660400390625,-0.2885012924671173,-8.701875686645508,-4.975225925445557
1761399117001741600,9.116741455078126,0.12427403032779694,-8.481759071350098,-4.284348964691162
1761399117011803000,9.126802978515625,0.1877203732728958,-8.452505111694336,-3.3989434242248535
1761399117021902800,9.13690283203125,0.16175825893878937,-8.558822631835938,-2.637662172317505
1761399117031983400,9.1469833984375,0.24832360446453094,-8.692373275756836,-2.195857048034668
1761399117042045400,9.15704541015625,0.03329436853528023,-8.889446258544922,-2.1122844219207764
1761399117052145000,9.167144775390625,-0.4646247625350952,-8.966733932495117,-2.090287685394287
1761399117062207000,9.17720703125,-0.9217676520347595,-8.93620777130127,-2.290727376937866
1761399117072294000,9.1872939453125,-1.2107926607131958,-8.771082878112793,-2.6610054969787598
1761399117082384600,9.197384521484375,-1.5070003271102905,-8.578873634338379,-3.2828993797302246
1761399117092467500,9.207467529296874,-1.6251392364501953,-8.256404876708984,-3.8896799087524414
1761399117102535200,9.21753515625,-1.6876877546310425,-7.935207366943359,-4.357671737670898
1761399117112623000,9.227623046875,-1.6982371807098389,-7.827393531799316,-4.812345504760742
1761399117122709500,9.23770947265625,-1.464428424835205,-7.810559272766113,-5.273678302764893
1761399117132790500,9.24779052734375,-1.2539631128311157,-7.706112384796143,-5.768529891967773
1761399117142859000,9.25785888671875,-0.9399486184120178,-7.699528217315674,-6.215123176574707
1761399117152951800,9.267951904296876,-0.6065560579299927,-8.019303321838379,-6.38960075378418
1761399117163010800,9.2780107421875,-0.2066495269536972,-8.346860885620117,-6.108431339263916
1761399117173111600,9.288111572265626,0.31603461503982544,-8.517671585083008,-5.464615821838379
1761399117183182600,9.2981826171875,0.7014262676239014,-8.546627044677734,-4.8471360206604
1761399117193275000,9.30827490234375,0.8604910373687744,-8.527847290039062,-4.569034576416016
1761399117203358200,9.318358154296876,0.7555950880050659,-8.874407768249512,-4.467954635620117
1761399117213435600,9.328435546875,0.6414216160774231,-8.990751266479492,-4.35647439956665
1761399117223516700,9.3385166015625,0.4562450647354126,-8.855179786682129,-4.212747573852539
1761399117233585000,9.3485849609375,0.2629132866859436,-8.565930366516113,-4.255768299102783
1761399117243664000,9.358663818359375,0.25169044733047485,-8.133552551269531,-4.140098571777344
1761399117253741600,9.368741455078125,0.21547815203666687,-7.790358066558838,-4.273650169372559
1761399117263838000,9.378837890625,0.3315221071243286,-7.566201210021973,-4.381239414215088
1761399117273920800,9.388920654296875,0.3927238881587982,-7.44065523147583,-4.691064357757568
1761399117284001300,9.399001220703125,0.17889176309108734,-7.372644901275635,-5.13967752456665
1761399117294081300,9.409081298828125,-0.5622633099555969,-7.473799705505371,-5.590909957885742
1761399117304160300,9.41916015625,-1.2642881870269775,-7.4829277992248535,-6.081197261810303
1761399117314243000,9.4292431640625,-1.1552022695541382,-7.487416744232178,-6.3202433586120605
1761399117324323000,9.439322998046874,-0.6162824630737305,-7.873257637023926,-5.958270072937012
1761399117334391800,9.449391845703126,-0.09270049631595612,-8.819416046142578,-5.253102779388428
1761399117344485000,9.459485107421875,0.22744916379451752,-9.645265579223633,-4.530727386474609
1761399117354566000,9.46956591796875,-0.020350715145468712,-10.026019096374512,-4.042235374450684
1761399117364644600,9.47964453125,-0.796371340751648,-9.843236923217773,-3.979013681411743
1761399117374714600,9.489714599609375,-0.9985317587852478,-9.472359657287598,-4.421117782592773
1761399117384807700,9.4998076171875,-0.6982090473175049,-9.240421295166016,-4.889184474945068
1761399117394888400,9.509888427734374,-0.036736033856868744,-9.367238998413086,-4.92996072769165
1761399117404969500,9.519969482421875,0.5181950330734253,-9.635614395141602,-4.632555961608887
1761399117415033000,9.530033203125,0.7272387742996216,-9.624990463256836,-4.522871494293213
1761399117425131300,9.54013134765625,0.7945756912231445,-9.406145095825195,-4.860454082489014
1761399117435209500,9.55020947265625,0.464325487613678,-8.982970237731934,-5.472771167755127
1761399117445292000,9.5602919921875,-0.501285970211029,-8.765471458435059,-6.486416339874268
1761399117455373000,9.570373046875,-1.5553332567214966,-8.754024505615234,-7.249941825866699
1761399117465454600,9.58045458984375,-0.7523030638694763,-8.629152297973633,-7.797914981842041
1761399117475521300,9.590521240234375,0.02446574904024601,-8.768389701843262,-8.143203735351562
1761399117485613300,9.60061328125,-0.5514145493507385,-9.290624618530273,-8.471433639526367
1761399117495692800,9.61069287109375,-1.0247931480407715,-10.122909545898438,-8.556502342224121
1761399117505764400,9.620764404296875,-0.9602245092391968,-10.973374366760254,-7.809362411499023
1761399117515857000,9.63085693359375,-0.5689970254898071,-11.130120277404785,-6.230386257171631
1761399117525937700,9.640937744140626,-0.018031330779194832,-10.806079864501953,-4.922778129577637
1761399117536018700,9.651018798828124,0.3792565166950226,-10.792462348937988,-3.6671688556671143
1761399117546088000,9.661087890625,0.7778910994529724,-11.158327102661133,-2.060060977935791
1761399117556178400,9.671178466796874,1.240346074104309,-11.964274406433105,-0.6676082015037537
1761399117566258400,9.681258544921874,1.3135937452316284,-12.729671478271484,0.3447650372982025
1761399117576342000,9.691342041015625,1.2968343496322632,-13.28490161895752,0.22550387680530548
1761399117586409500,9.701409423828125,1.217376708984375,-13.019145011901855,-0.3208978474140167
1761399117596502800,9.711502685546876,0.6335656046867371,-11.419519424438477,-1.3683611154556274
1761399117606562000,9.72156201171875,-0.203207865357399,-9.52585506439209,-3.062932252883911
1761399117616643300,9.731643310546875,-0.3522469103336334,-8.524031639099121,-4.850129127502441
1761399117626729200,9.741729248046875,0.6559364199638367,-8.853683471679688,-6.145167350769043
1761399117636804900,9.751804931640624,1.3320739269256592,-9.635764122009277,-6.901286602020264
1761399117646907000,9.761906982421875,1.1709890365600586,-9.777770042419434,-7.208716869354248
1761399117656974600,9.771974609375,1.05105459690094,-9.16777229309082,-7.3133134841918945
1761399117667068000,9.78206787109375,1.3854197263717651,-8.358531951904297,-6.958223342895508
1761399117677146000,9.79214599609375,1.8237831592559814,-7.725490570068359,-6.277746677398682
1761399117687221500,9.802221435546874,2.0150198936462402,-7.425167560577393,-5.405882835388184
1761399117697310000,9.81231005859375,1.965714454650879,-7.315557956695557,-4.591031551361084
1761399117707390200,9.82239013671875,1.6556652784347534,-7.271340370178223,-3.98148250579834
1761399117717471500,9.832471435546875,1.1978490352630615,-7.280542850494385,-3.630582332611084
1761399117727539000,9.8425390625,0.8720879554748535,-7.323563575744629,-3.436502456665039
1761399117737628700,9.852628662109375,0.8830863237380981,-7.367258071899414,-3.2869396209716797
1761399117747711700,9.862711669921875,1.150039792060852,-7.488239765167236,-3.322329044342041
1761399117757775600,9.872775634765626,1.461809754371643,-7.568819522857666,-3.4950108528137207
1761399117767875000,9.882875,1.7939304113388062,-7.426290035247803,-3.6053683757781982
1761399117777955600,9.89295556640625,1.9574843645095825,-7.478513240814209,-3.3338510990142822
1761399117788017000,9.903016845703124,1.976114273071289,-7.223830223083496,-3.591003179550171
1761399117798091500,9.913091552734375,2.0212299823760986,-6.957475185394287,-3.613074779510498
1761399117808171300,9.923171142578125,2.061108350753784,-6.5283894538879395,-3.4706945419311523
1761399117818252800,9.933252685546876,2.0509331226348877,-6.0550856590271,-3.2537949085235596
1761399117828335600,9.943335693359375,2.0742015838623047,-5.674931526184082,-3.1053543090820312
1761399117838414000,9.9534140625,2.0660464763641357,-5.458704948425293,-2.9519009590148926
1761399117848495000,9.9634951171875,2.0296096801757812,-5.479878902435303,-2.918531894683838
1761399117858575600,9.97357568359375,1.8698714971542358,-5.703362464904785,-2.995445489883423
1761399117868644900,9.983644775390625,1.9879355430603027,-5.969642639160156,-3.1744871139526367
1761399117878743000,9.993742919921875,2.3966708183288574,-6.173823356628418,-3.2487072944641113
1761399117888827000,10.003826904296876,3.0142998695373535,-6.34141731262207,-3.4133834838867188
1761399117898907600,10.01390771484375,3.730241060256958,-6.3646111488342285,-3.858929395675659
1761399117909004500,10.024004638671874,4.419920921325684,-6.3372273445129395,-4.882076740264893
1761399117919084800,10.034084716796874,4.989965438842773,-6.2215576171875,-5.9986724853515625
1761399117929165800,10.044165771484375,5.044807434082031,-5.931933879852295,-6.7405009269714355
1761399117939242500,10.054242431640626,4.60973596572876,-5.824494361877441,-7.219640254974365
1761399117949327000,10.0643271484375,3.9309051036834717,-6.156166076660156,-7.501781940460205
1761399117959407600,10.07440771484375,3.123685121536255,-6.555324077606201,-7.597026348114014
1761399117969488400,10.08448828125,2.531494140625,-7.133449077606201,-7.567697525024414
1761399117979543800,10.094543701171874,2.5166053771972656,-7.543381214141846,-7.07374382019043
1761399117989650200,10.104650146484374,2.5901522636413574,-8.035839080810547,-5.523049354553223
1761399117999726800,10.114726806640626,2.3079357147216797,-8.287604331970215,-3.9267899990081787
1761399118009811500,10.1248115234375,2.056993246078491,-9.156848907470703,-1.7511340379714966
1761399118019892000,10.13489208984375,1.9800796508789062,-9.79640007019043,-0.558447539806366
1761399118029972700,10.14497265625,2.0177884101867676,-10.246211051940918,0.47652095556259155
1761399118040053800,10.1550537109375,1.8026094436645508,-9.7135009765625,1.4509609937667847
1761399118050134300,10.16513427734375,1.4431798458099365,-7.7382097244262695,2.8743886947631836
1761399118060214800,10.17521484375,2.116549015045166,-5.877914905548096,4.207959175109863
1761399118070270700,10.185270751953125,2.8190977573394775,-5.859509468078613,5.336675643920898
1761399118080376000,10.1953759765625,5.39406156539917,-11.231574058532715,3.5989341735839844
1761399118090434300,10.205434326171876,7.335609436035156,-23.123350143432617,-6.105438709259033
1761399118100537900,10.215537841796875,-0.987308919429779,-32.06150436401367,-14.030470848083496
1761399118110594000,10.225593994140626,-2.5784056186676025,-29.953258514404297,-15.784972190856934
1761399118120674000,10.235674072265626,0.7857470512390137,-15.55617618560791,-13.83683967590332
1761399118130776300,10.2457763671875,1.3215245008468628,-5.382315158843994,-11.303549766540527
1761399118140860700,10.255860595703124,0.4263923466205597,0.7110779285430908,-8.360477447509766
1761399118150941000,10.26594091796875,-1.6186299324035645,4.060341835021973,-5.423989295959473
1761399118161021700,10.276021728515625,-2.6792614459991455,4.521150588989258,-2.129941701889038
1761399118171103500,10.286103515625,-1.9145383834838867,2.277933359146118,0.5777508020401001
1761399118181158100,10.296158203125,-0.9093477129936218,-1.8876036405563354,-0.1025017574429512
1761399118191264300,10.30626416015625,0.3271826207637787,-7.179612159729004,-2.6593594551086426
1761399118201341000,10.3163408203125,1.6423475742340088,-12.517709732055664,-5.717129230499268
1761399118211426000,10.326426025390624,2.001103639602661,-16.337509155273438,-7.992668151855469
1761399118221507000,10.336507080078125,2.2981343269348145,-16.288875579833984,-8.594061851501465
1761399118231586600,10.346586669921875,2.711508274078369,-11.846659660339355,-8.065017700195312
1761399118241642800,10.356642822265625,2.5493760108947754,-7.521534442901611,-7.029077053070068
1761399118251723000,10.366722900390625,1.8439093828201294,-4.866140365600586,-6.279916286468506
1761399118261825300,10.3768251953125,1.1568483114242554,-4.086977005004883,-5.50584077835083
1761399118271909600,10.38690966796875,0.7776666283607483,-5.318270206451416,-5.046528339385986
1761399118281990400,10.396990478515624,0.6910264492034912,-7.406836986541748,-4.7661824226379395
1761399118292071200,10.4070712890625,0.9121160507202148,-9.05479621887207,-4.43353796005249
1761399118302152000,10.41715185546875,0.8221089839935303,-9.901520729064941,-4.355501651763916
1761399118312233200,10.427233154296875,0.5333832502365112,-9.726519584655762,-4.62589693069458
1761399118322309600,10.4373095703125,0.42594343423843384,-8.779088973999023,-4.937143325805664
1761399118332390700,10.447390625,0.3519476354122162,-7.809511661529541,-5.08992338180542
1761399118342474800,10.457474853515626,-0.10646715760231018,-7.300294876098633,-5.169006824493408
1761399118352555300,10.46755517578125,-0.7270143032073975,-7.280617713928223,-5.0935893058776855
1761399118362611500,10.477611572265625,-1.0862194299697876,-7.671471118927002,-4.63397741317749
1761399118372716800,10.487716796875,-1.1490671634674072,-7.99296760559082,-4.34951639175415
1761399118382797300,10.49779736328125,-1.100809097290039,-8.166397094726562,-4.169127941131592
1761399118392853000,10.50785302734375,-1.1148749589920044,-8.262240409851074,-4.227860927581787
1761399118402958800,10.517958740234375,-0.99479079246521,-8.417489051818848,-4.488529682159424
1761399118413039400,10.528039306640625,-1.0509048700332642,-8.838569641113281,-4.992958068847656
1761399118423094800,10.5380947265625,-1.2784289121627808,-8.99351978302002,-5.400720596313477
1761399118433202000,10.548201904296874,-1.3608791828155518,-9.126696586608887,-4.978143692016602
1761399118443282000,10.558281982421875,-1.0121487379074097,-9.34614086151123,-3.916764259338379
1761399118453358600,10.568358642578126,-0.30391398072242737,-9.534684181213379,-3.2455649375915527
1761399118463443700,10.578443603515625,0.17290624976158142,-9.591695785522461,-3.462090492248535
1761399118473524500,10.5885244140625,0.13931261003017426,-9.237054824829102,-3.6350715160369873
1761399118483605500,10.59860546875,-0.1669207513332367,-8.811784744262695,-3.887510299682617
1761399118493685500,10.608685546875,-0.543408989906311,-8.542137145996094,-3.8796541690826416
1761399118503766500,10.6187666015625,-0.8420107960700989,-8.509217262268066,-4.121318817138672
1761399118513847300,10.628847412109375,-0.899621307849884,-8.736292839050293,-4.50102424621582
1761399118523904000,10.638904052734375,-0.9395745396614075,-9.143830299377441,-5.169156074523926
1761399118544089000,10.659089111328125,-0.8538321852684021,-9.212963104248047,-6.0137858390808105
1761399118554170400,10.66917041015625,-0.6490530967712402,-9.081506729125977,-6.030470371246338
1761399118564251100,10.679251220703126,-0.4183119237422943,-9.133430480957031,-6.213177680969238
1761399118574331600,10.68933154296875,-0.3958662748336792,-9.124003410339355,-6.487837791442871
1761399118584412400,10.699412353515624,-0.6880336999893188,-8.989105224609375,-6.867618083953857
1761399118594492400,10.709492431640625,-0.9794529676437378,-8.758439064025879,-6.484994411468506
1761399118604573700,10.71957373046875,-1.0574889183044434,-8.620023727416992,-6.53953742980957
1761399118614610200,10.729610107421875,-1.1271452903747559,-8.266355514526367,-6.520608425140381
1761399118624735200,10.7397353515625,-1.3285574913024902,-7.97329044342041,-6.613832473754883
1761399118634815700,10.749815673828126,-1.6750433444976807,-7.699603080749512,-6.8016276359558105
1761399118644911400,10.759911376953125,-1.88820219039917,-7.5801920890808105,-6.550086975097656
1761399118654977300,10.769977294921874,-1.624765157699585,-8.245331764221191,-6.190806865692139
1761399118665057000,10.78005712890625,-0.9727192521095276,-9.688586235046387,-5.648819446563721
1761399118675138800,10.790138916015625,-0.21375732123851776,-10.77884578704834,-5.148880481719971
1761399118685218800,10.80021875,-0.2446574866771698,-10.240973472595215,-5.5108537673950195
1761399118695299600,10.810299560546875,-0.6809259057044983,-8.778565406799316,-6.351891994476318
1761399118705380900,10.820380859375,-0.8738088011741638,-7.542109489440918,-6.625578880310059
1761399118715436800,10.830436767578124,-1.1489923000335693,-7.323040008544922,-7.123049259185791
1761399118725542700,10.840542724609374,-1.2497732639312744,-7.985785007476807,-6.426486492156982
1761399118735623200,10.850623046875,-0.8696189522743225,-9.18468189239502,-5.4700775146484375
1761399118745703700,10.86070361328125,-0.18816928565502167,-10.111536979675293,-4.4264302253723145
1761399118755783400,10.870783447265625,0.4016273319721222,-10.603321075439453,-3.418471097946167
1761399118765865200,10.880865234375,0.6829460263252258,-10.777947425842285,-2.6496331691741943
1761399118775945500,10.890945556640625,0.9626935124397278,-10.865635871887207,-2.3226749897003174
1761399118786000400,10.90100048828125,1.27768075466156,-11.071087837219238,-2.3941268920898438
1761399118796107000,10.91110693359375,1.7613842487335205,-11.233220100402832,-2.2685060501098633
1761399118806187000,10.92118701171875,2.208725929260254,-11.354351997375488,-2.3377883434295654
1761399118816268800,10.931268798828125,2.322300910949707,-11.364602088928223,-2.6021978855133057
1761399118826329000,10.9413291015625,1.7778444290161133,-11.151293754577637,-3.201720952987671
1761399118836430000,10.95143017578125,0.7608324289321899,-10.7534818649292,-4.1133131980896
1761399118846511000,10.961510986328125,-0.39534255862236023,-9.934216499328613,-4.954126834869385
1761399118856561700,10.971561767578125,-1.2476783990859985,-9.07409954071045,-5.508459568023682
1761399118866672000,10.981672119140624,-1.868973731994629,-8.399981498718262,-5.968969345092773
1761399118876752100,10.991752197265624,-2.0254197120666504,-8.096516609191895,-6.251036167144775
1761399118886833400,11.00183349609375,-1.975889801979065,-8.052597999572754,-6.175843238830566
1761399118896914200,11.0119140625,-1.7394623756408691,-8.12756633758545,-5.861903667449951
1761399118907005200,11.022005126953125,-1.4329297542572021,-8.458490371704102,-5.536366939544678
1761399118917075500,11.032075439453125,-0.9053075313568115,-9.088912963867188,-5.3273234367370605
1761399118927155500,11.042155517578125,-0.2552817463874817,-9.648633003234863,-5.321637153625488
1761399118937236700,11.05223681640625,0.2190694510936737,-9.821239471435547,-5.152696132659912
1761399118947317000,11.06231689453125,0.36496612429618835,-9.635165214538574,-4.695852756500244
1761399118957397800,11.072397705078124,0.3266589045524597,-9.348834037780762,-4.044854164123535
1761399118967478300,11.082478271484375,0.047884032130241394,-9.03294849395752,-3.8758385181427
1761399118977559300,11.092559326171875,-0.7704840302467346,-9.285387992858887,-3.7306151390075684
1761399118987640000,11.10264013671875,-1.240645408630371,-9.598429679870605,-3.2253637313842773
1761399118997721000,11.11272119140625,-0.8341548442840576,-9.91850471496582,-2.7522096633911133
1761399119007801900,11.1228017578125,-0.2719663381576538,-9.733402252197266,-2.752284526824951
1761399119017881900,11.1328818359375,0.4396352767944336,-9.308655738830566,-3.095553159713745
1761399119027962600,11.142962646484374,-0.05199906975030899,-8.942418098449707,-3.7415387630462646
1761399119038040800,11.153040771484376,-0.6101473569869995,-8.739583969116211,-4.653804302215576
1761399119048099000,11.16309912109375,-0.034416649490594864,-8.753800392150879,-5.504718780517578
1761399119058202600,11.17320263671875,0.7107786536216736,-9.088089942932129,-6.275352478027344
1761399119068260600,11.183260498046875,0.8055740594863892,-9.33461856842041,-6.471676826477051
1761399119078340900,11.1933408203125,0.6691045761108398,-9.312472343444824,-6.270414352416992
1761399119088443000,11.20344287109375,0.5235819816589355,-9.331476211547852,-5.603629112243652
1761399119098527500,11.213527587890624,0.4287865459918976,-9.106719970703125,-4.803067684173584
1761399119108608300,11.223608154296874,0.44270285964012146,-8.705467224121094,-4.030788421630859
1761399119118663700,11.23366357421875,0.45759180188179016,-8.370353698730469,-3.166855573654175
1761399119128769500,11.24376953125,0.6145616769790649,-7.902736186981201,-2.4130561351776123
1761399119138850800,11.253850830078125,0.8025065064430237,-7.369053363800049,-1.7218799591064453
1761399119148931000,11.26393115234375,1.188197374343872,-6.9689226150512695,-1.2837409973144531
1761399119158990000,11.273989990234375,1.4137012958526611,-6.899864673614502,-0.8915408849716187
1761399119169111600,11.284111572265624,1.578976035118103,-6.957999229431152,-0.943913996219635
1761399119179174000,11.294173828125,1.6275334358215332,-7.071499347686768,-1.1325322389602661
1761399119189237000,11.304237060546875,1.848772644996643,-7.254281520843506,-1.277381420135498
1761399119199336000,11.3143359375,1.893364667892456,-7.266925811767578,-1.3494319915771484
1761399119209416400,11.32441650390625,1.5520412921905518,-5.643133640289307,-1.6610522270202637
1761399119219492400,11.334492431640625,2.348487377166748,-5.877615451812744,-1.955389380455017
1761399119229577500,11.344577392578126,2.1722142696380615,-5.7130889892578125,-1.7346739768981934
1761399119239657700,11.35465771484375,2.7299885749816895,-5.59562349319458,-1.3810802698135376
1761399119249738800,11.36473876953125,3.1786768436431885,-5.041365623474121,-1.6021698713302612
1761399119259819800,11.37481982421875,3.592649221420288,-4.942903995513916,-2.4444799423217773
1761399119269899800,11.384899658203125,3.700014352798462,-5.278167247772217,-3.536235809326172
1761399119279958800,11.394958740234374,3.7626376152038574,-6.116661548614502,-4.862848281860352
1761399119300141800,11.415141845703126,3.566462755203247,-8.606407165527344,-7.9543609619140625
1761399119310222000,11.42522216796875,3.3912370204925537,-9.845107078552246,-9.849222183227539
1761399119320303400,11.435303466796874,3.3772459030151367,-11.25566577911377,-11.22252082824707
1761399119330384100,11.445384033203124,3.558307409286499,-11.575591087341309,-11.8934965133667
1761399119340465400,11.45546533203125,3.847931146621704,-10.168249130249023,-11.288586616516113
1761399119350541000,11.465541015625,4.0201640129089355,-8.147917747497559,-9.910274505615234
1761399119360626700,11.475626708984375,3.863642930984497,-6.287472724914551,-8.740931510925293
1761399119370707000,11.48570703125,3.677119731903076,-4.64093542098999,-7.777040481567383
1761399119380756200,11.495756103515625,3.981931447982788,-4.013504981994629,-7.0977606773376465
1761399119390843400,11.505843505859374,2.390011787414551,-6.709376335144043,-7.657854080200195
1761399119400949800,11.51594970703125,1.8317139148712158,-12.28622055053711,-8.694169044494629
1761399119410997000,11.5259970703125,1.6757915019989014,-17.223962783813477,-8.071601867675781
1761399119421110500,11.536110595703125,1.205106496810913,-18.90020179748535,-7.0848917961120605
1761399119431191000,11.54619091796875,1.6365116834640503,-17.71784019470215,-5.826663970947266
1761399119441271800,11.556271728515625,1.7810616493225098,-14.595128059387207,-4.836287498474121
1761399119451333400,11.56633349609375,2.162562608718872,-8.955286979675293,-2.8733413219451904
1761399119461433000,11.57643310546875,1.8962825536727905,-4.545616149902344,-1.0272622108459473
1761399119471513900,11.586513916015624,1.0636241436004639,-1.2303204536437988,-0.36257192492485046
1761399119481580000,11.596580078125,-0.6587047576904297,-0.12352584302425385,0.3362357020378113
1761399119491650000,11.606650146484375,-1.330727219581604,-1.4162451028823853,1.7893664836883545
1761399119501730800,11.616730712890625,-1.7616087198257446,-3.8121676445007324,2.4508395195007324
1761399119511811600,11.6268115234375,-2.3167643547058105,-7.234379768371582,1.7856255769729614
1761399119521892000,11.63689208984375,-3.0387656688690186,-12.86943244934082,-0.2875286638736725
1761399119531964000,11.6469638671875,-3.166705846786499,-17.276334762573242,-4.352135181427002
1761399119542054000,11.657053955078124,-0.3239654302597046,-17.32145118713379,-7.8056960105896
1761399119552133400,11.66713330078125,2.7304375171661377,-15.542484283447266,-10.87102222442627
1761399119562224400,11.677224365234375,3.718719005584717,-11.672257423400879,-9.327884674072266
1761399119572305000,11.687304931640625,2.9792847633361816,-8.191311836242676,-6.003984451293945
1761399119582401800,11.69740185546875,1.927407145500183,-6.383615016937256,-2.5644893646240234
1761399119592476000,11.707475830078126,1.1636568307876587,-6.473547458648682,-0.0983119085431099
1761399119602561500,11.7175615234375,0.8836848735809326,-7.101052761077881,0.37155017256736755
1761399119612644000,11.72764404296875,0.548496663570404,-8.300098419189453,-0.6851906180381775
1761399119622712300,11.73771240234375,0.10699088871479034,-9.16537857055664,-2.0147955417633057
1761399119632805600,11.7478056640625,0.20433014631271362,-9.511863708496094,-3.2741456031799316
1761399119642886000,11.757885986328125,0.3802291452884674,-9.45343017578125,-3.8878095149993896
1761399119652980200,11.767980224609374,0.48624739050865173,-9.183334350585938,-3.9113025665283203
1761399119663039700,11.778039794921876,0.3936217129230499,-8.168567657470703,-3.381660223007202
1761399119673126400,11.78812646484375,0.2793734073638916,-7.929895401000977,-3.4986021518707275
1761399119683209000,11.798208984375,0.39706337451934814,-8.26014518737793,-3.66155743598938
1761399119693289200,11.808289306640624,0.6215946078300476,-8.428338050842285,-3.554192304611206
1761399119703358200,11.818358154296876,0.8043769598007202,-8.467168807983398,-3.607912302017212
1761399119713451000,11.828450927734375,0.784998893737793,-8.607379913330078,-3.790170907974243
1761399119723526400,11.8385263671875,0.8173954486846924,-8.776021003723145,-4.0610151290893555
1761399119733598200,11.84859814453125,0.8597428798675537,-8.871265411376953,-4.22733736038208
1761399119743675000,11.8586748046875,0.753200888633728,-8.930971145629883,-4.246939659118652
1761399119753773800,11.86877392578125,0.6560112833976746,-8.700902938842773,-4.0770263671875
1761399119763854300,11.878854248046874,0.667832612991333,-8.195053100585938,-3.917288064956665
1761399119773914600,11.88891455078125,0.8568249344825745,-7.9532389640808105,-3.72208571434021
1761399119784006700,11.899006591796875,1.0511293411254883,-7.886051654815674,-3.4321630001068115
1761399119794096600,11.9090966796875,1.0236709117889404,-8.013018608093262,-3.393481731414795
1761399119804175600,11.919175537109375,0.9564087390899658,-8.329651832580566,-3.7306151390075684
1761399119814244600,11.92924462890625,1.1668740510940552,-8.235081672668457,-4.333505153656006
1761399119824338700,11.939338623046876,1.373897671699524,-8.41928482055664,-4.528557777404785
1761399119834419700,11.949419677734374,1.3944728374481201,-8.283638954162598,-4.456507205963135
1761399119844487400,11.9594873046875,1.4722095727920532,-8.577301979064941,-4.55264949798584
1761399119854581200,11.969581298828125,1.5604209899902344,-8.900744438171387,-4.16104793548584
1761399119864659700,11.97965966796875,1.193734049797058,-8.623839378356934,-3.3640029430389404
1761399119874742500,11.989742431640625,0.7012766599655151,-8.499566078186035,-3.378293514251709
1761399119884813600,11.9998134765625,0.6280290484428406,-8.12636947631836,-3.6919338703155518
1761399119894892000,12.00989208984375,0.37963059544563293,-8.131831169128418,-4.246341228485107
1761399119904984300,12.019984375,-0.19393034279346466,-7.159785270690918,-3.4711434841156006
1761399119915040800,12.030040771484375,0.01750759966671467,-7.364938735961914,-3.710339307785034
1761399119925144000,12.04014404296875,0.03725976496934891,-8.496797561645508,-4.146158695220947
1761399119935214000,12.050214111328126,0.4242226183414459,-10.305991172790527,-4.5563154220581055
1761399119945307100,12.06030712890625,0.9741408228874207,-10.630255699157715,-4.014552593231201
1761399119955375900,12.0703759765625,1.268403172492981,-9.919925689697266,-2.7853543758392334
1761399119965470000,12.080469970703126,0.9566332101821899,-9.662848472595215,-3.195286512374878
1761399119975547400,12.09054736328125,0.6140379309654236,-9.26526165008545,-4.1151838302612305
1761399119985628200,12.100628173828126,0.692298412322998,-9.02935791015625,-4.508057117462158
1761399119995708000,12.1107080078125,0.796371340751648,-8.98012638092041,-4.92307710647583
1761399120025940200,12.140940185546874,1.3909564018249512,-8.378883361816406,-6.576048851013184
1761399120036020700,12.151020751953125,0.6756138205528259,-8.390629768371582,-6.850858688354492
1761399120046098400,12.161098388671874,-0.0769137293100357,-8.963293075561523,-7.141903877258301
1761399120056182300,12.171182373046875,-0.30967503786087036,-9.626561164855957,-7.861660480499268
1761399120066263000,12.181262939453125,0.12330138683319092,-9.59139633178711,-7.962441444396973
1761399120076356400,12.1913564453125,0.5956324934959412,-9.525405883789062,-7.748160362243652
1761399120086421000,12.2014208984375,0.6774842739105225,-9.967360496520996,-7.567547798156738
1761399120096517600,12.211517578125,0.763301432132721,-10.834660530090332,-7.121927261352539
1761399120106599000,12.221598876953125,1.3725509643554688,-11.618163108825684,-6.1757683753967285
1761399120116664300,12.231664306640624,1.9405752420425415,-12.02951717376709,-4.988244533538818
1761399120126749200,12.241749267578125,2.0287866592407227,-12.124237060546875,-4.164863586425781
1761399120136840700,12.2518408203125,1.759588599205017,-12.32250690460205,-3.648090124130249
1761399120146921700,12.261921630859375,1.4597148895263672,-12.408024787902832,-3.2450411319732666
1761399120156967200,12.27196728515625,0.7050175666809082,-11.6128511428833,-3.150320529937744
1761399120167082800,12.282082763671875,-0.04369417950510979,-10.809446334838867,-3.4951603412628174
1761399120177161700,12.29216162109375,-0.40289926528930664,-9.784278869628906,-4.15992546081543
1761399120187244500,12.30224462890625,-0.056338559836149216,-9.003096580505371,-5.150975227355957
1761399120197315800,12.31231591796875,0.8718634843826294,-8.83714771270752,-5.890259742736816
1761399120207405600,12.322405517578124,1.3862427473068237,-8.769512176513672,-5.716680526733398
1761399120217486600,12.332486572265625,1.493607759475708,-8.999131202697754,-5.611559867858887
1761399120227550700,12.34255078125,1.439064860343933,-8.78305435180664,-5.872303485870361
1761399120237646000,12.35264599609375,1.3856441974639893,-8.421903610229492,-6.371644020080566
1761399120247728600,12.362728759765625,1.1965023279190063,-8.509217262268066,-6.613084316253662
1761399120257815800,12.37281591796875,1.174206256866455,-8.446369171142578,-5.91517448425293
1761399120267890000,12.382889892578126,1.2644377946853638,-8.11589527130127,-5.00358247756958
1761399120277970200,12.39297021484375,1.0013000965118408,-7.699004650115967,-4.5539960861206055
1761399120288051500,12.403051513671874,0.7126491069793701,-7.499687194824219,-4.279635429382324
1761399120298123800,12.413123779296875,0.49619829654693604,-7.418957710266113,-3.912200450897217
1761399120308210700,12.423210693359374,0.46567222476005554,-7.331943511962891,-3.2320973873138428
1761399120318294000,12.4332939453125,0.6123918890953064,-7.071723461151123,-2.5712978839874268
1761399120328357000,12.443357177734375,0.8895955681800842,-6.753818511962891,-2.1211130619049072
1761399120338432800,12.453432861328125,1.134627103805542,-6.614356517791748,-1.993621826171875
1761399120348535600,12.46353564453125,1.2778303623199463,-6.6664299964904785,-2.039560556411743
1761399120358616600,12.473616455078124,1.5298948287963867,-6.555623531341553,-2.569427251815796
1761399120368684000,12.48368408203125,1.773879051208496,-6.771101474761963,-2.857255220413208
1761399120378765000,12.49376513671875,1.9712510108947754,-6.70294189453125,-3.5305497646331787
1761399120388859000,12.50385888671875,2.097245931625366,-6.658873558044434,-3.9047932624816895
1761399120398939400,12.513939453125,1.958980679512024,-6.849212646484375,-3.655048131942749
1761399120409020200,12.524020263671876,1.7713351249694824,-7.047706604003906,-3.32277774810791
1761399120419080700,12.534080810546875,1.4778209924697876,-7.185373306274414,-2.8830678462982178
1761399120429181700,12.544181640625,1.4174422025680542,-7.392471790313721,-2.155005931854248
1761399120439247600,12.55424755859375,1.731381893157959,-7.5604400634765625,-1.7662475109100342
1761399120449343500,12.564343505859375,2.1174468994140625,-7.576675891876221,-1.9165585041046143
1761399120459423700,12.574423828125,2.319308042526245,-7.73663854598999,-2.2911014556884766
1761399120469482800,12.584482666015624,2.51877498626709,-7.7166619300842285,-2.672452926635742
1761399120479585000,12.5945849609375,2.755950689315796,-7.641618251800537,-2.9076831340789795
1761399120489665500,12.60466552734375,3.105055093765259,-7.379378318786621,-3.285667657852173
1761399120499733200,12.614733154296875,3.423633575439453,-7.130156993865967,-4.023530960083008
1761399120509827000,12.6248271484375,3.6082863807678223,-7.185223579406738,-4.763189315795898
1761399120519907300,12.6349072265625,3.5113961696624756,-7.325733661651611,-5.225869178771973
1761399120529988600,12.644988525390625,3.2743701934814453,-7.376535415649414,-5.459527969360352
1761399120540069600,12.655069580078125,3.0276925563812256,-7.4439473152160645,-5.664830684661865
1761399120550126000,12.6651259765625,2.8482770919799805,-7.673640727996826,-6.096460342407227
1761399120560205300,12.675205322265626,2.670806884765625,-8.002394676208496,-6.333486557006836
1761399120570286000,12.6852861328125,2.677091598510742,-8.261791229248047,-6.507290363311768
1761399120580379600,12.695379638671875,2.9455413818359375,-8.613439559936523,-6.783371925354004
1761399120590472700,12.70547265625,3.1221139430999756,-7.821108818054199,-6.33565616607666
1761399120600552000,12.715552001953125,3.3068413734436035,-7.73207426071167,-6.717082500457764
1761399120610631700,12.725631591796875,3.734879732131958,-8.643068313598633,-7.4788126945495605
1761399120620714200,12.73571435546875,4.340837478637695,-9.475577354431152,-7.803676128387451
1761399120630781200,12.74578125,4.800374507904053,-9.895833969116211,-7.851110935211182
1761399120640863700,12.75586376953125,4.98510217666626,-9.626561164855957,-7.837120056152344
1761399120650950700,12.76595068359375,4.800599098205566,-8.681525230407715,-7.708431720733643
1761399120661037600,12.77603759765625,4.461819171905518,-7.440280914306641,-7.086612701416016
1761399120671127000,12.786126953125,4.276867389678955,-6.307000637054443,-5.930512428283691
1761399120681186600,12.7961865234375,3.8349874019622803,-5.408950328826904,-4.743137836456299
1761399120691275800,12.80627587890625,2.897433042526245,-4.735880374908447,-3.8722472190856934
1761399120701360600,12.816360595703125,1.9506009817123413,-4.202572345733643,-3.4194438457489014
1761399120711440100,12.826440185546875,1.6365865468978882,-4.554070949554443,-3.252971887588501
1761399120721522400,12.8365224609375,1.8020108938217163,-7.290269374847412,-3.4989013671875
1761399120731592200,12.84659228515625,1.7934815883636475,-12.067599296569824,-4.920234203338623
1761399120741683700,12.85668359375,1.8264018297195435,-16.454450607299805,-6.8557963371276855
1761399120751764000,12.866763916015625,0.768538773059845,-19.16932487487793,-7.230114936828613
1761399120761840600,12.876840576171874,0.4851999282836914,-17.086145401000977,-6.545971870422363
1761399120771900000,12.88689990234375,2.217928647994995,-12.856489181518555,-3.9699604511260986
1761399120782006300,12.89700634765625,3.3598880767822266,-9.87121868133545,-2.4130561351776123
1761399120792087300,12.90708740234375,3.5253124237060547,-7.826869964599609,-1.1371710300445557
1761399120802164700,12.917164794921876,2.6378116607666016,-6.249614715576172,0.3819499909877777
1761399120812248300,12.927248291015625,0.7945008873939514,-5.6191911697387695,1.8020856380462646
1761399120822327300,12.937327392578124,-0.4928314685821533,-5.544821262359619,2.466925621032715
1761399120832386800,12.94738671875,-1.0655694007873535,-5.882030010223389,2.553191661834717
1761399120842490600,12.95749072265625,-1.286434531211853,-6.801477909088135,1.255609154701233
1761399120852571000,12.96757080078125,-1.452756643295288,-9.042450904846191,-1.6835726499557495
1761399120862652400,12.97765234375,-1.2310686111450195,-11.472865104675293,-5.4123921394348145
1761399120872732400,12.987732421875,-0.2347813993692398,-12.741867065429688,-8.467318534851074
1761399120882811600,12.997811767578124,0.6291513442993164,-12.160000801086426,-9.511713981628418
1761399120892881700,13.007881591796876,2.229001760482788,-10.422409057617188,-8.21308422088623
1761399120902974500,13.017974365234375,3.4671781063079834,-9.318681716918945,-5.233275890350342
