time,seconds_elapsed,z,y,x
1761399108014767400,0.129767333984375,0.0045298621989786625,0.02518070489168167,-0.006128637120127678
1761399108024848000,0.139847900390625,0.004679747391492128,0.023015696555376053,0.0017986217280849814
1761399108034928600,0.1499287109375,0.005295941606163979,0.021316997706890106,-0.00046630934230051935
1761399108045009000,0.1600087890625,0.0045631700195372105,0.02208307757973671,-0.012257274240255356
1761399108055123200,0.170123291015625,0.0019485069205984473,0.023232197389006615,-0.023365428671240807
1761399108065195800,0.18019580078125,0.0016154287150129676,0.038770291954278946,-0.04055225849151611
1761399108075251200,0.190251220703125,-0.003680513007566333,0.03122607246041298,-0.0597708635032177
1761399108085356800,0.200356689453125,-0.010042304173111916,0.02659628540277481,-0.061636101454496384
1761399108095437800,0.210437744140625,-0.009192955680191517,0.02662959322333336,-0.05377545952796936
1761399108105496600,0.22049658203125,-0.0044465926475822926,0.04305034503340721,-0.051244065165519714
1761399108115599400,0.230599365234375,0.0019485069205984473,0.061935871839523315,-0.05480800196528435
1761399108125679900,0.240679931640625,0.007927258498966694,0.07619161158800125,-0.056806471198797226
1761399108135761200,0.25076123046875,0.01277354545891285,0.08330283313989639,-0.06293510645627975
1761399108145841400,0.26084130859375,0.014655436389148235,0.06994640082120895,-0.06008728966116905
1761399108155903700,0.27090380859375,0.01653732731938362,0.06250210851430893,-0.045398544520139694
1761399108166003000,0.2810029296875,0.022183001041412354,0.05858843773603439,-0.032375190407037735
1761399108176058400,0.291058349609375,0.027578866109251976,0.055091116577386856,-0.022532733157277107
1761399108186163200,0.3011630859375,0.028078483417630196,0.05211006850004196,-0.015588055364787579
1761399108196245000,0.311244873046875,0.02579689770936966,0.05670654773712158,-0.012240620329976082
1761399108206305500,0.321305419921875,0.023531967774033546,0.07482599467039108,-0.01014222763478756
1761399108216407000,0.331406982421875,0.021883230656385422,0.0950438380241394,-0.009426110424101353
1761399108226464800,0.34146484375,0.02254938706755638,0.10848353803157806,-0.01342304702848196
1761399108236568300,0.351568359375,0.02617993764579296,0.12070750445127487,-0.015121745876967907
1761399108246661400,0.361661376953125,0.02856144681572914,0.11744333803653717,-0.023115620017051697
1761399108256703500,0.371703369140625,0.023598583415150642,0.11534494161605835,-0.04023583233356476
1761399108266810400,0.381810302734375,0.01841921918094158,0.11734341084957123,-0.053209226578474045
1761399108276883200,0.39188330078125,0.011674387380480766,0.12124042958021164,-0.05728943273425102
1761399108286972400,0.401972412109375,0.005695635452866554,0.13756124675273895,-0.052043452858924866
1761399108297052700,0.412052734375,0,0.15511447191238403,-0.04150152951478958
1761399108307091700,0.422091796875,-0.0022815850097686052,0.17180168628692627,-0.031875573098659515
1761399108317213700,0.432213623046875,-0.003663859097287059,0.17872971296310425,-0.031709033995866776
1761399108327274800,0.442274658203125,-0.007361026015132666,0.17295080423355103,-0.03743797913193703
1761399108337375200,0.452375244140625,-0.0177031010389328,0.1627919226884842,-0.04726378247141838
1761399108347455500,0.46245556640625,-0.03014356829226017,0.15165045857429504,-0.05632350593805313
1761399108357511200,0.47251123046875,-0.033374425023794174,0.13006699085235596,-0.06356795132160187
1761399108367636000,0.482635986328125,-0.025896821171045303,0.113229900598526,-0.07281087338924408
1761399108377684000,0.49268408203125,-0.015021822415292263,0.11362959444522858,-0.08333613723516464
1761399108387779000,0.502779052734375,-0.01022549718618393,0.12721918523311615,-0.08793261647224426
1761399108397860000,0.512860107421875,-0.010192189365625381,0.13929325342178345,-0.08690007776021957
1761399108407922200,0.522922119140625,-0.01941845379769802,0.14234092831611633,-0.08420214056968689
1761399108418017800,0.533017822265625,-0.031792305409908295,0.13073314726352692,-0.08363591134548187
1761399108428076000,0.543075927734375,-0.038637060672044754,0.10590218007564545,-0.08666691929101944
1761399108438179800,0.553179931640625,-0.048612747341394424,0.07237786799669266,-0.09667591750621796
1761399108448262700,0.5632626953125,-0.062968410551548,0.03390735015273094,-0.11001569777727127
1761399108458343400,0.573343505859375,-0.08048832416534424,-0.006611600052565336,-0.12330551445484161
1761399108468420000,0.583420166015625,-0.09694238007068634,-0.03765447810292244,-0.13812749087810516
1761399108478479600,0.593479736328125,-0.10791730135679245,-0.0651167705655098,-0.16933690011501312
1761399108488585000,0.6035849609375,-0.11782637983560562,-0.1067015677690506,-0.19774846732616425
1761399108498647000,0.61364697265625,-0.12437136471271515,-0.14707063138484955,-0.21796630322933197
1761399108508726800,0.623726806640625,-0.1278853416442871,-0.1775805801153183,-0.2297905832529068
1761399108518828800,0.633828857421875,-0.12931756675243378,-0.20457656681537628,-0.2385338842868805
1761399108528904200,0.643904296875,-0.13206546008586884,-0.22730915248394012,-0.24619467556476593
1761399108538988800,0.65398876953125,-0.13418051600456238,-0.24559512734413147,-0.2635979950428009
1761399108549044500,0.66404443359375,-0.1363455206155777,-0.2653966248035431,-0.2832329571247101
1761399108559123200,0.674123291015625,-0.13637882471084595,-0.28496497869491577,-0.2978883981704712
1761399108569205000,0.684205078125,-0.13569602370262146,-0.29812154173851013,-0.3089465796947479
1761399108579302700,0.694302734375,-0.1357959359884262,-0.3032343089580536,-0.3148420751094818
1761399108589393200,0.70439306640625,-0.13984283804893494,-0.3028346002101898,-0.3155248761177063
1761399108599466500,0.714466552734375,-0.14457254111766815,-0.3021351397037506,-0.3119942545890808
1761399108609553700,0.7245537109375,-0.15496458113193512,-0.3029678463935852,-0.3047164976596832
1761399108619609600,0.734609619140625,-0.16450726985931396,-0.29972031712532043,-0.291626513004303
1761399108629708300,0.744708251953125,-0.1709856390953064,-0.29632294178009033,-0.2729075253009796
1761399108639770400,0.754770263671875,-0.17588189244270325,-0.2841988801956177,-0.2536722719669342
1761399108649877000,0.764876953125,-0.18214376270771027,-0.2744896709918976,-0.244862362742424
1761399108659917800,0.774917724609375,-0.19040408730506897,-0.2788862884044647,-0.24466250836849213
1761399108670038500,0.78503857421875,-0.19678254425525665,-0.2888120114803314,-0.2395830750465393
1761399108680119800,0.795119873046875,-0.20232829451560974,-0.30383384227752686,-0.2331879734992981
1761399108690214100,0.805214111328125,-0.20867343246936798,-0.3251175284385681,-0.22009800374507904
1761399108700283000,0.815282958984375,-0.2164674550294876,-0.35472816228866577,-0.19644945859909058
1761399108710337000,0.8253369140625,-0.2143690586090088,-0.3818240761756897,-0.16504019498825073
1761399108720427800,0.835427734375,-0.2048596888780594,-0.3890352249145508,-0.13686178624629974
1761399108730522400,0.8455224609375,-0.19629958271980286,-0.3926657736301422,-0.12062422931194305
1761399108740617000,0.855616943359375,-0.19803158938884735,-0.4016921818256378,-0.11216405034065247
1761399108750665500,0.86566552734375,-0.20880666375160217,-0.4158480167388916,-0.10983250290155411
1761399108760783400,0.875783447265625,-0.21651741862297058,-0.42267611622810364,-0.10786734521389008
1761399108770846000,0.885845947265625,-0.22211313247680664,-0.4175633490085602,-0.10735107213258743
1761399108780926500,0.895926513671875,-0.22707599401474,-0.4052228033542633,-0.10918299853801727
1761399108791025000,0.90602490234375,-0.2406822293996811,-0.39519715309143066,-0.11278024315834045
1761399108801087200,0.916087158203125,-0.2581688463687897,-0.390350878238678,-0.10488629341125488
1761399108811167700,0.926167724609375,-0.27142533659935,-0.4030578136444092,-0.08285317569971085
1761399108821230600,0.936230712890625,-0.2638145089149475,-0.4418780505657196,-0.04889586567878723
1761399108831327500,0.946327392578125,-0.215551495552063,-0.5284783840179443,-0.013223200105130672
1761399108841410800,0.956410888671875,-0.11726014316082001,-0.6616596579551697,0.022349540144205093
1761399108851476000,0.96647607421875,0.018136102706193924,-0.8069316744804382,0.04416615515947342
1761399108861571300,0.9765712890625,0.13084973394870758,-0.930603563785553,0.035589393228292465
1761399108871652600,0.986652587890625,0.171335369348526,-1.0601376295089722,0.010408690199255943
1761399108881710300,0.99671044921875,0.17594850063323975,-1.2016125917434692,0.009442764334380627
1761399108891792600,1.006792724609375,0.22004804015159607,-1.2512078285217285,0.06183594837784767
1761399108901894400,1.016894287109375,0.29645615816116333,-1.1996973752975464,0.1739666908979416
1761399108911975000,1.026974853515625,0.3692503869533539,-1.1478204727172852,0.3367086350917816
1761399108922051600,1.037051513671875,0.4019753038883209,-1.1018723249435425,0.5449157953262329
1761399108932110000,1.047110107421875,0.3905174136161804,-1.066899061203003,0.7531395554542542
1761399108942191600,1.057191650390625,0.3643374741077423,-1.1185262203216553,0.9171139001846313
1761399108952276700,1.06727685546875,0.3848051130771637,-1.1731343269348145,1.0273127555847168
1761399108962378800,1.077378662109375,0.487493097782135,-1.1891720294952393,1.1336146593093872
1761399108972459800,1.087459716796875,0.6444728374481201,-1.1906375885009766,1.2527899742126465
1761399108982538800,1.097538818359375,0.8028181195259094,-1.1826270818710327,1.3702332973480225
1761399108992620500,1.10762060546875,0.9024417996406555,-1.1352133750915527,1.4695239067077637
1761399109002676500,1.117676513671875,0.9094530940055847,-1.0255475044250488,1.5639848709106445
1761399109012756700,1.1277568359375,0.8815910816192627,-0.8527964949607849,1.6755660772323608
1761399109022829600,1.13782958984375,0.8594580888748169,-0.6394100189208984,1.7445465326309204
1761399109032943600,1.147943603515625,0.8521137237548828,-0.45127084851264954,1.711371898651123
1761399109043000000,1.158,0.8564270734786987,-0.4182794690132141,1.5707297325134277
1761399109053105200,1.168105224609375,0.8411720991134644,-0.5428673624992371,1.3690342903137207
1761399109063185700,1.178185546875,0.8490160703659058,-0.6739668846130371,1.1847920417785645
1761399109073255200,1.188255126953125,0.8696502447128296,-0.7649471759796143,1.0344905853271484
1761399109083321600,1.198321533203125,0.8771778345108032,-0.8671355247497559,0.9315528273582458
1761399109093402000,1.208402099609375,0.898428201675415,-0.9438101053237915,0.8769446611404419
1761399109103508500,1.218508544921875,0.9234923124313354,-0.9320690631866455,0.8437367677688599
1761399109113585700,1.228585693359375,0.949539065361023,-0.8733141422271729,0.7845155000686646
1761399109123651800,1.23865185546875,0.9761520028114319,-0.8185560703277588,0.6776806712150574
1761399109133725200,1.24872509765625,0.9910072684288025,-0.823369026184082,0.5368053317070007
1761399109143807000,1.258806884765625,0.969024121761322,-0.9021087288856506,0.3883523941040039
1761399109153912000,1.268912109375,0.8734473586082458,-1.0416017770767212,0.2424975037574768
1761399109163993300,1.278993408203125,0.7240784764289856,-1.1828935146331787,0.09917400032281876
1761399109174069500,1.289069580078125,0.5971590876579285,-1.261899709701538,-0.022932427003979683
1761399109184153900,1.29915380859375,0.5179031491279602,-1.25790274143219,-0.10816711187362671
1761399109194210000,1.3092099609375,0.4529862105846405,-1.2014960050582886,-0.15947778522968292
1761399109204290000,1.3192900390625,0.4032243490219116,-1.1240053176879883,-0.18121114373207092
1761399109214355500,1.32935546875,0.3773108720779419,-1.0141727924346924,-0.17699770629405975
1761399109224477200,1.339477294921875,0.3545949459075928,-0.8687343001365662,-0.14941883087158203
1761399109234531800,1.34953173828125,0.33957311511039734,-0.7580191493034363,-0.15080110728740692
1761399109244633900,1.3596337890625,0.357659250497818,-0.7099059820175171,-0.22292916476726532
1761399109254719000,1.369718994140625,0.43518319725990295,-0.6607103943824768,-0.33444371819496155
1761399109264756000,1.379755859375,0.39130014181137085,-0.5439997911453247,-0.4431937038898468
1761399109274880500,1.389880615234375,0.3116445243358612,-0.4699232280254364,-0.5218501091003418
1761399109284961300,1.399961181640625,0.23915007710456848,-0.3714820146560669,-0.5463147163391113
1761399109295041800,1.410041748046875,0.13892687857151031,-0.29076051712036133,-0.5178698301315308
1761399109305122600,1.42012255859375,0.023015696555376053,-0.23611906170845032,-0.4519536793231964
1761399109315178000,1.430177978515625,-0.07765715569257736,-0.20560911297798157,-0.38836905360221863
1761399109325283800,1.440283935546875,-0.14257407188415527,-0.18131105601787567,-0.3434867858886719
1761399109335339800,1.45033984375,-0.18930493295192719,-0.17315064370632172,-0.3213037848472595
1761399109345445400,1.4604453125,-0.23580263555049896,-0.17984551191329956,-0.3238518238067627
1761399109355526400,1.4705263671875,-0.28564777970314026,-0.1768977791070938,-0.3307132422924042
1761399109365606700,1.480606689453125,-0.309329628944397,-0.16215907037258148,-0.31752336025238037
1761399109375687400,1.4906875,-0.2751224935054779,-0.19228598475456238,-0.26814451813697815
1761399109385743000,1.5007431640625,-0.18502488732337952,-0.28236696124076843,-0.18580761551856995
1761399109395839700,1.51083984375,-0.081637442111969,-0.4061887264251709,-0.09529364109039307
1761399109405911000,1.5209111328125,0.019734878093004227,-0.550678014755249,-0.004096860531717539
1761399109416010800,1.5310107421875,0.12140696495771408,-0.6736004948616028,0.06638246774673462
1761399109426070500,1.541070556640625,0.2263099104166031,-0.7343039512634277,0.08861542493104935
1761399109436169700,1.551169677734375,0.3254672586917877,-0.7024450302124023,0.04842955619096756
1761399109446252500,1.56125244140625,0.3891018331050873,-0.5753591060638428,-0.012790199369192123
1761399109456308200,1.57130810546875,0.39782848954200745,-0.38950151205062866,-0.062318913638591766
1761399109466401000,1.581401123046875,0.36610278487205505,-0.17693108320236206,-0.13166576623916626
1761399109476471300,1.59147119140625,0.3215535879135132,0.01333977747708559,-0.1886221319437027
1761399109486576400,1.601576416015625,0.2694268822669983,0.13411389291286469,-0.18773946166038513
1761399109496656600,1.61165673828125,0.20301109552383423,0.13464681804180145,-0.12222300469875336
1761399109506713300,1.62171337890625,0.06366787850856781,0.08688341826200485,-0.10959934443235397
1761399109516810500,1.631810546875,-0.19974693655967712,0.05034475401043892,-0.2645139694213867
1761399109526877200,1.641877197265625,-0.46814125776290894,0.2817007899284363,-0.43669870495796204
1761399109536979500,1.6519794921875,-0.5842522978782654,0.610765278339386,-0.5021152496337891
1761399109547060500,1.662060546875,-0.47302085161209106,0.5050796270370483,-0.2709423899650574
1761399109557115100,1.672115234375,-0.2507078945636749,0.46627601981163025,0.18745635449886322
1761399109567220700,1.682220703125,-0.08645042032003403,0.6556142568588257,0.490823894739151
1761399109577319000,1.69231884765625,-0.06526665389537811,0.7819507718086243,0.44231104850769043
1761399109587380000,1.7023798828125,-0.16940352320671082,0.8388238549232483,0.08676684647798538
1761399109597437700,1.712437744140625,-0.31599119305610657,0.7435968518257141,-0.4188956618309021
1761399109607543800,1.722543701171875,-0.46261218190193176,0.5100424885749817,-0.9018755555152893
1761399109617599200,1.73259912109375,-0.6037539839744568,0.2561037540435791,-1.2546385526657104
1761399109627706000,1.7427060546875,-0.7098893523216248,-0.029377488419413567,-1.4438269138336182
1761399109637786400,1.752786376953125,-0.6991142630577087,-0.3324618935585022,-1.5190858840942383
1761399109647872300,1.762872314453125,-0.5251309275627136,-0.5627021193504333,-1.4991512298583984
1761399109657926400,1.772926513671875,-0.31890562176704407,-0.5866338014602661,-1.3694006204605103
1761399109668024300,1.7830244140625,-0.23017361760139465,-0.42525747418403625,-1.1525501012802124
1761399109678105300,1.793105224609375,-0.2476935237646103,-0.2956900894641876,-0.9601642489433289
1761399109688187100,1.803187255859375,-0.3016521632671356,-0.17491596937179565,-0.9071714878082275
1761399109698264000,1.81326416015625,-0.3417714238166809,-0.11464548110961914,-0.972854495048523
1761399109708325600,1.82332568359375,-0.33216214179992676,-0.11747664213180542,-1.0888489484786987
1761399109718425600,1.833425537109375,-0.2765713930130005,-0.040135908871889114,-1.1678217649459839
1761399109728512800,1.8435126953125,-0.21190428733825684,0.1222563162446022,-1.1553813219070435
1761399109738593500,1.853593505859375,-0.17350037395954132,0.25986751914024353,-1.0581891536712646
1761399109748669700,1.863669677734375,-0.16797128319740295,0.31883901357650757,-0.9236422181129456
1761399109758754300,1.87375439453125,-0.1865403950214386,0.32555052638053894,-0.7799856066703796
1761399109768810200,1.883810302734375,-0.20522606372833252,0.2932586073875427,-0.6536824107170105
1761399109778916400,1.893916259765625,-0.22809188067913055,0.26128309965133667,-0.5767913460731506
1761399109788997000,1.9039970703125,-0.2601339817047119,0.1848749965429306,-0.5386039614677429
1761399109799077000,1.9140771484375,-0.27418988943099976,0.1164940670132637,-0.502731442451477
1761399109809154000,1.924154052734375,-0.2745063006877899,0.06236887350678444,-0.4835294783115387
1761399109819238400,1.93423828125,-0.2696433663368225,0.007094563450664282,-0.48091480135917664
1761399109829319200,1.944319091796875,-0.26376453042030334,-0.05713954567909241,-0.5051129460334778
1761399109839367200,1.9543671875,-0.2768711745738983,-0.08523468673229218,-0.5604538321495056
1761399109849457000,1.964456787109375,-0.32200324535369873,-0.07347702980041504,-0.6314994096755981
1761399109859525000,1.974525146484375,-0.38871878385543823,-0.023432044312357903,-0.6855746507644653
1761399109869642500,1.984642578125,-0.45080456137657166,0.03898679092526436,-0.7244281768798828
1761399109879720000,1.994719970703125,-0.4879927337169647,0.03837059810757637,-0.7455453276634216
1761399109889800400,2.004800537109375,-0.5108419060707092,0.01433901209384203,-0.754088819026947
1761399109899888400,2.014888427734375,-0.502731442451477,-0.06368453055620193,-0.7509745359420776
1761399109909939700,2.024939697265625,-0.5013325214385986,-0.11064854264259338,-0.7403160333633423
1761399109920046000,2.035046142578125,-0.5056291818618774,-0.13438035547733307,-0.7401661276817322
1761399109930126800,2.045126953125,-0.5130568742752075,-0.14672090113162994,-0.7487928867340088
1761399109940203300,2.055203369140625,-0.5230158567428589,-0.15051798522472382,-0.7607004046440125
1761399109950287600,2.06528759765625,-0.5585886240005493,-0.11208078265190125,-0.7714255452156067
1761399109960351000,2.07535107421875,-0.5804885029792786,-0.08736638724803925,-0.7944578528404236
1761399109970446800,2.08544677734375,-0.5980750322341919,-0.09965696930885315,-0.7827335000038147
1761399109980504600,2.095504638671875,-0.6208075881004333,-0.05765581876039505,-0.7181663513183594
1761399109990611200,2.105611083984375,-0.6102323532104492,0.03936983272433281,-0.6209408640861511
1761399110000666000,2.115666015625,-0.506428599357605,0.022232962772250175,-0.5101923942565918
1761399110010772200,2.125772216796875,-0.4036073684692383,-0.03470673784613609,-0.3899511694908142
1761399110020825600,2.13582568359375,-0.3097459673881531,-0.10595214366912842,-0.2916598320007324
1761399110030906000,2.145906005859375,-0.23738476634025574,-0.18877200782299042,-0.23350439965724945
1761399110040989700,2.15598974609375,-0.19788169860839844,-0.2633149027824402,-0.1916864514350891
1761399110051069700,2.166069580078125,-0.1747327744960785,-0.2892949879169464,-0.1412750780582428
1761399110061176000,2.176176025390625,-0.14705398678779602,-0.2579023838043213,-0.0676148533821106
1761399110071253000,2.1862529296875,-0.1170436441898346,-0.1455051600933075,0.011591117829084396
1761399110081311200,2.196311279296875,-0.08030512928962708,-0.0045298621989786625,0.08563438057899475
1761399110091419000,2.2064189453125,-0.052959416061639786,0.1313493400812149,0.17013628780841827
1761399110101499400,2.21649951171875,-0.039886102080345154,0.25981757044792175,0.25788572430610657
1761399110111579100,2.2265791015625,-0.02892783284187317,0.3484996259212494,0.34848296642303467
1761399110121659600,2.23665966796875,-0.024331355467438698,0.3408055007457733,0.435083270072937
1761399110131736300,2.246736328125,-0.010941615328192711,0.18595750629901886,0.5063453316688538
1761399110141822200,2.256822265625,0.06563303619623184,-0.17669792473316193,0.5454986691474915
1761399110151901700,2.266901611328125,0.23671860992908478,-0.6805618405342102,0.5685476660728455
1761399110161983500,2.2769833984375,0.44640791416168213,-1.1082674264907837,0.6220067143440247
1761399110172064300,2.287064208984375,0.6432403922080994,-1.3421381711959839,0.7184327840805054
1761399110182144000,2.29714404296875,0.7578526139259338,-1.5694806575775146,0.7418481707572937
1761399110192225500,2.3072255859375,0.7182496190071106,-1.8309136629104614,0.698581337928772
1761399110202301700,2.3173017578125,0.6629753112792969,-1.9648443460464478,0.7227961421012878
1761399110212386000,2.327385986328125,0.6660395860671997,-1.945975422859192,0.9133001565933228
1761399110222466800,2.337466796875,0.6779637932777405,-1.863255500793457,1.298804759979248
1761399110232547300,2.34754736328125,0.6829932928085327,-1.7348538637161255,1.776255488395691
1761399110242629000,2.357629150390625,0.7150187492370605,-1.5318595170974731,2.2422983646392822
1761399110252708900,2.367708984375,0.7925926446914673,-1.2798359394073486,2.5798230171203613
1761399110262764300,2.377764404296875,0.8898347616195679,-1.07192862033844,2.661027431488037
1761399110272870100,2.3878701171875,1.011291742324829,-0.8637714385986328,2.4685583114624023
1761399110282972700,2.39797265625,1.161310076713562,-0.6905874609947205,2.06473445892334
1761399110293031700,2.40803173828125,1.3274327516555786,-0.5751093029975891,1.6166112422943115
1761399110303112400,2.418112548828125,1.480798602104187,-0.5162211060523987,1.3139097690582275
1761399110313194000,2.428194091796875,1.583569884300232,-0.5332747101783752,1.2201483249664307
1761399110323270000,2.438269775390625,1.575542688369751,-0.6446226835250854,1.2368855476379395
1761399110333356000,2.44835595703125,1.4853451251983643,-0.8096295595169067,1.255721092224121
1761399110343435300,2.458435302734375,1.3732976913452148,-1.006761908531189,1.1820108890533447
1761399110353516000,2.46851611328125,1.2899115085601807,-1.2196154594421387,1.0084439516067505
1761399110363597300,2.478597412109375,1.2777374982833862,-1.4126341342926025,0.8005532026290894
1761399110373677300,2.48867724609375,1.2287417650222778,-1.5938786268234253,0.6044701337814331
1761399110383758000,2.498758056640625,1.144173264503479,-1.831996202468872,0.4306366741657257
1761399110393834500,2.50883447265625,1.066565990447998,-2.0616202354431152,0.2631150484085083
1761399110403919400,2.51891943359375,0.9951207637786865,-2.213470458984375,0.0964261069893837
1761399110413999900,2.528999755859375,0.9186294078826904,-2.264148235321045,-0.05054460093379021
1761399110424080600,2.53908056640625,0.8304303288459778,-2.2135536670684814,-0.15847855806350708
1761399110434138000,2.54913818359375,0.7624990344047546,-2.0436673164367676,-0.2161843329668045
1761399110444242200,2.5592421875,0.7040438055992126,-1.7098231315612793,-0.23227201402187347
1761399110454323500,2.569323486328125,0.6791629195213318,-1.4104524850845337,-0.27542227506637573
1761399110464403700,2.57940380859375,0.6750660538673401,-1.124738097190857,-0.3353763222694397
1761399110474474000,2.589473876953125,0.6797457933425903,-0.8607903718948364,-0.38282331824302673
1761399110484565200,2.599565185546875,0.6948175430297852,-0.7061089277267456,-0.4324353039264679
1761399110494646300,2.609646240234375,0.7309232354164124,-0.6596611738204956,-0.5269461870193481
1761399110504727600,2.6197275390625,0.6577792763710022,-0.6660729050636292,-0.6635748147964478
1761399110514807000,2.62980712890625,0.5883657932281494,-0.6855413317680359,-0.8378579616546631
1761399110524884700,2.639884765625,0.5366887450218201,-0.6400761604309082,-1.0304603576660156
1761399110534968800,2.64996875,0.4497220516204834,-0.5245646834373474,-1.222429871559143
1761399110545049000,2.660049072265625,0.31064528226852417,-0.3024682104587555,-1.3833400011062622
1761399110555129900,2.6701298828125,0.12945079803466797,-0.013389739207923412,-1.4861111640930176
1761399110565211000,2.6802109375,-0.05425842106342316,0.20975592732429504,-1.4933056831359863
1761399110575291600,2.690291748046875,-0.24236427247524261,0.3569931089878082,-1.3656702041625977
1761399110585346800,2.700346923828125,-0.45913150906562805,0.40247491002082825,-1.105952501296997
1761399110595453000,2.710452880859375,-0.6919031143188477,0.2958732843399048,-0.7398996949195862
1761399110605533400,2.720533447265625,-0.8451523780822754,-0.10120578110218048,-0.23678521811962128
1761399110615614200,2.7306142578125,-0.7842990159988403,-0.6489860415458679,0.13791099190711975
1761399110625695000,2.740695068359375,-0.44336026906967163,-1.042284607887268,0.11935853958129883
1761399110635764500,2.750764404296875,-0.013406393118202686,-1.1775310039520264,-0.14685413241386414
1761399110645856800,2.760856689453125,0.3084469735622406,-1.2139697074890137,-0.29294219613075256
1761399110655912000,2.770911865234375,0.4702896177768707,-1.1237221956253052,-0.18254345655441284
1761399110666001000,2.7810009765625,0.5313095450401306,-0.8886023759841919,0.11006565392017365
1761399110676098800,2.791098876953125,0.6549647450447083,-0.5408355593681335,0.38318970799446106
1761399110686179300,2.801179443359375,0.8238020539283752,-0.18267668783664703,0.46509361267089844
1761399110696260900,2.8112607421875,0.9804320335388184,0.02997702918946743,0.3349599838256836
1761399110706340900,2.8213408203125,1.1204414367675781,0.09412787109613419,0.1579289734363556
1761399110716422100,2.831422119140625,1.1518672704696655,0.05645673722028732,0.07577526569366455
1761399110726502400,2.84150244140625,0.917630136013031,-0.017220137640833855,0.030659839510917664
1761399110736583200,2.851583251953125,0.4500051736831665,-0.04962863773107529,-0.19275230169296265
1761399110746663400,2.861663330078125,-0.11459551751613617,0.19110356271266937,-0.6883225440979004
1761399110756744200,2.871744140625,-0.6774308681488037,-0.0654665008187294,-1.0721617937088013
1761399110766825000,2.881824951171875,-0.8355597257614136,-0.6326485276222229,-0.863371729850769
1761399110776906200,2.89190625,-0.5506946444511414,-0.759917676448822,-0.43789777159690857
1761399110786960600,2.901960693359375,-0.23838399350643158,-0.7440964579582214,-0.19588322937488556
1761399110797067000,2.91206689453125,-0.11166442930698395,-0.6475704312324524,-0.24997511506080627
1761399110807147500,2.9221474609375,-0.18236026167869568,-0.522066593170166,-0.5213838219642639
1761399110817228300,2.932228271484375,-0.36791807413101196,-0.7306567430496216,-0.9535359740257263
1761399110827306200,2.94230615234375,-0.5654333829879761,-1.1216071844100952,-1.4246416091918945
1761399110837390000,2.95239013671875,-0.6855247020721436,-1.39126718044281,-1.7694940567016602
1761399110847471000,2.96247119140625,-0.647137463092804,-1.4353834390640259,-1.8958971500396729
1761399110857551400,2.97255126953125,-0.4440097510814667,-1.2955572605133057,-1.833211898803711
1761399110867631900,2.9826318359375,-0.21728350222110748,-1.0158882141113281,-1.6503852605819702
1761399110877676500,2.992676513671875,-0.05960432440042496,-0.7886289954185486,-1.4206613302230835
1761399110887794000,3.0027939453125,-0.028544792905449867,-0.38860222697257996,-1.2196986675262451
1761399110897874000,3.0128740234375,-0.1215568482875824,-0.02704594098031521,-1.1723016500473022
1761399110907929300,3.022929443359375,-0.28225037455558777,0.2136862576007843,-1.2872302532196045
1761399110918033400,3.033033447265625,-0.4119509756565094,0.33437711000442505,-1.4614800214767456
1761399110928112000,3.043112060546875,-0.4563003480434418,0.4540853798389435,-1.586867332458496
1761399110938185500,3.053185546875,-0.4183960556983948,0.5895149111747742,-1.6034879684448242
1761399110948276700,3.06327685546875,-0.3394731879234314,0.6497354507446289,-1.5163047313690186
1761399110958363000,3.07336279296875,-0.28096804022789,0.5916799306869507,-1.3452025651931763
1761399110968439600,3.083439453125,-0.2782367765903473,0.5013824701309204,-1.111864686012268
1761399110988575200,3.1035751953125,-0.398278146982193,0.4618127942085266,-0.676914632320404
1761399110998681000,3.11368115234375,-0.4514040946960449,0.4812479019165039,-0.5587551593780518
1761399111008761900,3.123761962890625,-0.4886755347251892,0.41663074493408203,-0.5048131346702576
1761399111039004000,3.15400390625,-0.5270294547080994,-0.2709423899650574,-0.680478572845459
1761399111049084700,3.164084716796875,-0.5071446895599365,-0.47593528032302856,-0.80698162317276
1761399111059165200,3.174165283203125,-0.5075943470001221,-0.5939448475837708,-0.9416950345039368
1761399111069246000,3.184245849609375,-0.5158880352973938,-0.5899812579154968,-1.0679816007614136
1761399111079326700,3.19432666015625,-0.5413018465042114,-0.47841671109199524,-1.1699035167694092
1761399111089404000,3.20440380859375,-0.5701464414596558,-0.32966405153274536,-1.2342041730880737
1761399111099488000,3.214488037109375,-0.6130135655403137,-0.22657637298107147,-1.2557543516159058
1761399111109568800,3.22456884765625,-0.6384773850440979,-0.18978789448738098,-1.2294745445251465
1761399111119649500,3.2346494140625,-0.6526831984519958,-0.1964661180973053,-1.1523003578186035
1761399111129747500,3.24474755859375,-0.6687042117118835,-0.2240949422121048,-1.027529239654541
1761399111139785700,3.25478564453125,-0.699330747127533,-0.2549213171005249,-0.8797258734703064
1761399111149891600,3.2648916015625,-0.7442963123321533,-0.26106661558151245,-0.7417649030685425
1761399111159968800,3.27496875,-0.7905442118644714,-0.23475344479084015,-0.6468376517295837
1761399111170053600,3.2850537109375,-0.8050497770309448,-0.20297779142856598,-0.6161611676216125
1761399111180133600,3.295133544921875,-0.8244515657424927,-0.21163782477378845,-0.6571297645568848
1761399111190214700,3.305214599609375,-0.8074479103088379,-0.29175975918769836,-0.7569699287414551
1761399111200295200,3.315295166015625,-0.7548049092292786,-0.42753905057907104,-0.8658531904220581
1761399111210351000,3.32535107421875,-0.6884557604789734,-0.5873498916625977,-0.9430606961250305
1761399111220452600,3.33545263671875,-0.6385107040405273,-0.7140195369720459,-0.9412287473678589
1761399111230537500,3.345537353515625,-0.6128137111663818,-0.7527564764022827,-0.8222699165344238
1761399111240618200,3.3556181640625,-0.5773909091949463,-0.7210640907287598,-0.5961098670959473
1761399111250673400,3.36567333984375,-0.49543702602386475,-0.6840091943740845,-0.3408554792404175
1761399111260754200,3.375754150390625,-0.37546229362487793,-0.6133633255958557,-0.14722052216529846
1761399111270835000,3.3858349609375,-0.2755888104438782,-0.5544584393501282,-0.03360757976770401
1761399111280915700,3.395915771484375,-0.23546956479549408,-0.5015156865119934,0.05162710323929787
1761399111290996200,3.405996337890625,-0.24266405403614044,-0.4274391233921051,0.11849253624677658
1761399111301077200,3.4160771484375,-0.27653810381889343,-0.38538801670074463,0.17421649396419525
1761399111311157500,3.426157470703125,-0.30188533663749695,-0.40698811411857605,0.19231928884983063
1761399111321227000,3.43622705078125,-0.2386837601661682,-0.5372716188430786,0.17025287449359894
1761399111331328300,3.446328369140625,-0.11972492188215256,-0.7644975185394287,0.1389102190732956
1761399111341408800,3.45640869140625,-0.03560604900121689,-0.9786500334739685,0.12159015983343124
1761399111351501800,3.466501708984375,0.0015488131903111935,-1.1782804727554321,0.11602775752544403
1761399111361542700,3.476542724609375,0.06861408799886703,-1.4976856708526611,0.058971475809812546
1761399111371668200,3.486668212890625,0.15160049498081207,-1.7615834474563599,0.011174770072102547
1761399111381749000,3.4967490234375,0.2079240083694458,-1.8384912014007568,0.10558575391769409
1761399111391810000,3.50681005859375,0.27219143509864807,-1.8782440423965454,0.43065333366394043
1761399111401910300,3.51691015625,0.37631163001060486,-1.9561842679977417,0.9917566776275635
1761399111411986000,3.52698583984375,0.4643108546733856,-1.8954309225082397,1.5987248420715332
1761399111422071600,3.537071533203125,0.5067450404167175,-1.6909042596817017,2.1489531993865967
1761399111432151300,3.5471513671875,0.5927790999412537,-1.3950976133346558,2.5843029022216797
1761399111442232000,3.557232177734375,0.7172170877456665,-1.1367123126983643,2.8708834648132324
1761399111452313600,3.567313720703125,0.9031246304512024,-1.067332148551941,2.988293409347534
1761399111462393600,3.5773935546875,1.1679050922393799,-1.0973091125488281,2.8776614665985107
1761399111472475100,3.58747509765625,1.4586656093597412,-1.0799890756607056,2.527846336364746
1761399111482551300,3.59755126953125,1.6898716688156128,-0.95378577709198,2.040602922439575
1761399111492636400,3.607636474609375,1.8271498680114746,-0.7168340086936951,1.6097997426986694
1761399111502717000,3.617717041015625,1.9323192834854126,-0.5618194937705994,1.3302305936813354
1761399111512797200,3.627797119140625,2.006162643432617,-0.4781336188316345,1.253039836883545
1761399111522852900,3.637852783203125,1.9978357553482056,-0.38513821363449097,1.3650039434432983
1761399111532958700,3.647958740234375,1.911818265914917,-0.4067549705505371,1.591780185699463
1761399111543013600,3.658013671875,1.8253012895584106,-0.6069015860557556,1.7738573551177979
1761399111553119700,3.66811962890625,1.6668726205825806,-0.840189516544342,1.7869306802749634
1761399111563176700,3.6781767578125,1.553026556968689,-1.0989412069320679,1.570679783821106
1761399111573300000,3.688300048828125,1.5440667867660522,-1.3187061548233032,1.209689736366272
1761399111583362600,3.698362548828125,1.5995409488677979,-1.3868871927261353,0.8614232540130615
1761399111593424600,3.708424560546875,1.6338313817977905,-1.3132436275482178,0.6814611554145813
1761399111603519700,3.718519775390625,1.6218571662902832,-1.258435606956482,0.6809948086738586
1761399111613604000,3.72860400390625,1.5615200996398926,-1.3168408870697021,0.7659297585487366
1761399111623684600,3.7386845703125,1.4594815969467163,-1.4167309999465942,0.8848386406898499
1761399111633765600,3.748765625,1.3935654163360596,-1.507278323173523,1.0355397462844849
1761399111643846100,3.75884619140625,1.4298876523971558,-1.50941002368927,1.1349469423294067
1761399111653927000,3.768927001953125,1.5934622287750244,-1.4514377117156982,1.0997406244277954
1761399111664007700,3.779007568359375,1.8015028238296509,-1.382773756980896,0.9214605689048767
1761399111674084600,3.789084716796875,1.9532698392868042,-1.2532063722610474,0.6584787368774414
1761399111684169000,3.7991689453125,2.0357565879821777,-1.1630254983901978,0.39318203926086426
1761399111694228000,3.80922802734375,1.9799827337265015,-1.0749928951263428,0.189737930893898
1761399111704330500,3.81933056640625,1.932469129562378,-0.8823738098144531,0.04015256464481354
1761399111714411300,3.829411376953125,1.9231762886047363,-0.5449990630149841,-0.02931087277829647
1761399111724465400,3.83946533203125,1.909703254699707,-0.11847587674856186,-0.047696784138679504
1761399111734572800,3.84957275390625,1.8001039028167725,0.1024714782834053,-0.11431240290403366
1761399111744653300,3.8596533203125,1.6195422410964966,0.06768146902322769,-0.21258708834648132
1761399111754735000,3.869735107421875,1.3459019660949707,-0.09556010365486145,-0.2541385889053345
1761399111764814600,3.879814697265625,1.0116081237792969,-0.3541286289691925,-0.2776872217655182
1761399111774895000,3.88989501953125,0.6631418466567993,-0.6247546076774597,-0.38900190591812134
1761399111784976100,3.89997607421875,0.39013436436653137,-0.7844655513763428,-0.626136839389801
1761399111795056600,3.910056640625,0.2135363668203354,-0.7459949851036072,-0.8852882981300354
1761399111805138000,3.920137939453125,0.07920597493648529,-0.5573895573616028,-1.096842885017395
1761399111815218200,3.93021826171875,-0.06704862415790558,-0.32556718587875366,-1.278486967086792
1761399111825298700,3.940298583984375,-0.2270926535129547,-0.10105589777231216,-1.4593483209609985
1761399111835357400,3.950357421875,-0.4179297387599945,0.08884858340024948,-1.6660898923873901
1761399111845460700,3.960460693359375,-0.6693037748336792,0.20281125605106354,-1.8993611335754395
1761399111855541800,3.970541748046875,-0.9724881052970886,0.29180970788002014,-2.1372621059417725
1761399111865621800,3.980621826171875,-1.2800856828689575,0.40310776233673096,-2.3310470581054688
1761399111875703300,3.990703369140625,-1.5255309343338013,0.5405524373054504,-2.439197540283203
1761399111885783000,4.000782958984375,-1.6845757961273193,0.6756822466850281,-2.5020992755889893
1761399111895817500,4.0108173828125,-1.7438137531280518,0.7259104251861572,-2.485761880874634
1761399111905922000,4.020922119140625,-1.7150524854660034,0.7407490611076355,-2.280952215194702
1761399111916025600,4.031025634765625,-1.5974425077438354,0.8524967432022095,-1.913150668144226
1761399111926084600,4.041084716796875,-1.3032846450805664,0.9007098078727722,-1.3726814985275269
1761399111936204300,4.051204345703125,-0.8534126877784729,0.7069082856178284,-0.9444096088409424
1761399111946268000,4.061267822265625,-0.5524100065231323,0.26531335711479187,-0.7691938877105713
1761399111956348000,4.071347900390625,-0.4957534372806549,-0.24606144428253174,-0.5974255204200745
1761399111966428700,4.0814287109375,-0.4835461378097534,-0.6711024045944214,-0.2454119473695755
1761399111976509400,4.091509521484375,-0.27072587609291077,-0.8650204539299011,0.2853979766368866
1761399111986590200,4.101590087890625,-0.0001498851488577202,-0.49878445267677307,0.5468143224716187
1761399111996671200,4.111671142578125,0.0692136287689209,0.36055704951286316,0.5194686055183411
1761399112006751700,4.121751708984375,-0.04912902042269707,1.0220001935958862,0.6302337050437927
1761399112016832300,4.131832275390625,-0.1514839231967926,0.5407189726829529,1.020451307296753
1761399112026889200,4.14188916015625,-0.07266099005937576,-0.506428599357605,1.6705198287963867
1761399112036994600,4.15199462890625,0.33645883202552795,-0.6485530138015747,1.9341678619384766
1761399112047074600,4.162074462890625,0.7847153544425964,0.08824904263019562,1.291660189628601
1761399112057129700,4.172129638671875,0.8902844190597534,0.39138340950012207,-0.02028445526957512
1761399112067235800,4.18223583984375,0.615578293800354,0.009909073822200298,-1.2930258512496948
1761399112077316000,4.192316162109375,0.09322855621576309,-0.46684226393699646,-2.176698684692383
1761399112087398000,4.20239794921875,-0.4813145101070404,-0.896912693977356,-2.716668128967285
1761399112097452500,4.21245263671875,-0.8262168765068054,-1.2975389957427979,-3.0314769744873047
1761399112107558700,4.22255859375,-0.8309632539749146,-1.4861611127853394,-3.0634024143218994
1761399112117639200,4.23263916015625,-0.6971824169158936,-1.5206347703933716,-2.6587791442871094
1761399112127720000,4.242719970703125,-0.6705028414726257,-1.3881195783615112,-1.856277585029602
1761399112137801000,4.252801025390625,-0.7193487882614136,-1.1245216131210327,-1.040236234664917
1761399112147881500,4.262881591796875,-0.7314062118530273,-0.8343939185142517,-0.4884423613548279
1761399112157962000,4.2729619140625,-0.7225296497344971,-0.4773508608341217,-0.3002365827560425
1761399112168040000,4.2830400390625,-0.6683545112609863,-0.177647203207016,-0.4899745285511017
1761399112178098200,4.29309814453125,-0.49863457679748535,-0.0005995405954308808,-0.9856613278388977
1761399112188201500,4.303201416015625,-0.3018520176410675,0.24456259608268738,-1.5102593898773193
1761399112198284800,4.313284912109375,-0.18169410526752472,0.6257205009460449,-1.8006534576416016
1761399112208340500,4.323340576171875,-0.15508116781711578,0.8390070796012878,-1.792060136795044
1761399112218446600,4.333446533203125,-0.2136862576007843,0.8361259698867798,-1.5467147827148438
1761399112228486100,4.343486083984375,-0.3070480525493622,0.7389004230499268,-1.1776142120361328
1761399112238604500,4.3536044921875,-0.3966793715953827,0.6229226589202881,-0.7768213748931885
1761399112248688400,4.3636884765625,-0.4700064957141876,0.5862340927124023,-0.44620805978775024
1761399112258754600,4.373754638671875,-0.515754759311676,0.5744597911834717,-0.24591155350208282
1761399112268850000,4.383849853515625,-0.5377545952796936,0.5454320311546326,-0.16713859140872955
1761399112278930400,4.393930419921875,-0.5285283327102661,0.49801838397979736,-0.18604077398777008
1761399112289011700,4.40401171875,-0.5026481747627258,0.423691987991333,-0.2781701683998108
1761399112299092000,4.414092041015625,-0.4832630157470703,0.3157580494880676,-0.43045347929000854
1761399112309147600,4.424147705078125,-0.5105920433998108,0.21836599707603455,-0.628335177898407
1761399112319254000,4.43425390625,-0.5880826711654663,0.16595615446567535,-0.8215537667274475
1761399112329333800,4.444333740234375,-0.6905375123023987,0.12861810624599457,-0.9554678201675415
1761399112339415000,4.4544150390625,-0.7637813687324524,0.06689873337745667,-1.0101925134658813
1761399112349496300,4.464496337890625,-0.7961398959159851,-0.010175535455346107,-1.0204846858978271
1761399112359555300,4.474555419921875,-0.7939416170120239,-0.0647670328617096,-1.029377818107605
1761399112369653000,4.484653076171875,-0.7844155430793762,-0.07547549903392792,-1.0507115125656128
1761399112379738400,4.49473828125,-0.780701756477356,-0.05607369914650917,-1.0877498388290405
1761399112389778200,4.504778076171875,-0.7941747307777405,-0.009559341706335545,-1.1328319311141968
1761399112399900000,4.51489990234375,-0.8317292928695679,0.05620693042874336,-1.1655235290527344
1761399112409996500,4.52499658203125,-0.8933654427528381,0.12936753034591675,-1.152933120727539
1761399112420060700,4.535060791015625,-0.9477071166038513,0.12650306522846222,-1.090647578239441
1761399112430143000,4.54514306640625,-0.9310532212257385,-0.02233288623392582,-1.0265300273895264
1761399112440217900,4.5552177734375,-0.810961902141571,-0.26974329352378845,-0.9995340704917908
1761399112450303700,4.5653037109375,-0.661543071269989,-0.5114747285842896,-0.9417283535003662
1761399112460383200,4.57538330078125,-0.5113914608955383,-0.6456385850906372,-0.7934919595718384
1761399112470464800,4.58546484375,-0.34846630692481995,-0.7198150753974915,-0.56405109167099
1761399112480544500,4.59554443359375,-0.21705034375190735,-0.7347869277000427,-0.2641475796699524
1761399112490626000,4.6056259765625,-0.17618165910243988,-0.5922961235046387,0.038270674645900726
1761399112500702000,4.615701904296875,-0.20962269604206085,-0.3969624638557434,0.2672785222530365
1761399112510787300,4.625787353515625,-0.22234627604484558,-0.25510451197624207,0.3918996751308441
1761399112520842800,4.6358427734375,-0.1595943719148636,-0.19161982834339142,0.42942094802856445
1761399112530949000,4.64594921875,-0.030126914381980896,-0.26363131403923035,0.38761964440345764
1761399112541029400,4.656029296875,0.13917668163776398,-0.4539687931537628,0.27703770995140076
1761399112551110100,4.666110107421875,0.2942078709602356,-0.7085237503051758,0.13539624214172363
1761399112561186300,4.676186279296875,0.39149999618530273,-0.8891519904136658,0.0075608729384839535
1761399112571271000,4.68627099609375,0.40302449464797974,-1.0920132398605347,-0.10790064930915833
1761399112581352000,4.69635205078125,0.35133078694343567,-1.314975619316101,-0.163274884223938
1761399112591432400,4.706432373046875,0.37885966897010803,-1.4590319395065308,-0.056756507605314255
1761399112601513500,4.716513427734375,0.538670539855957,-1.5503286123275757,0.31395941972732544
1761399112611594000,4.726593994140625,0.7288581728935242,-1.65751314163208,0.8037673830986023
1761399112621674500,4.736674560546875,0.821237325668335,-1.7100563049316406,1.241931676864624
1761399112631751400,4.74675146484375,0.8757955431938171,-1.6531832218170166,1.5763421058654785
1761399112641836500,4.75683642578125,0.9283552765846252,-1.474703311920166,1.8588922023773193
1761399112651911200,4.7669111328125,0.970872700214386,-1.2997872829437256,2.12785267829895
1761399112661997800,4.776997802734375,1.033158302307129,-1.185608148574829,2.31074595451355
1761399112672078800,4.787078857421875,1.1246881484985352,-0.9906075596809387,2.3116118907928467
1761399112682133000,4.797133056640625,1.233904480934143,-0.7241950631141663,2.0920469760894775
1761399112692235800,4.80723583984375,1.3139097690582275,-0.4895581901073456,1.7611171007156372
1761399112702320000,4.817320068359375,1.3443198204040527,-0.33104631304740906,1.485994577407837
1761399112712401700,4.827401611328125,1.3385409116744995,-0.22456125915050507,1.3877365589141846
1761399112722481700,4.837481689453125,1.3133769035339355,-0.163274884223938,1.4812315702438354
1761399112732562200,4.847562255859375,1.315308690071106,-0.1940346509218216,1.69133722782135
1761399112742618600,4.85761865234375,1.3304637670516968,-0.3164241909980774,1.881091833114624
1761399112752739600,4.867739501953125,1.3031014204025269,-0.40337422490119934,1.9347341060638428
1761399112762779100,4.877779052734375,1.229924201965332,-0.3947308659553528,1.8008366823196411
1761399112772885000,4.887885009765625,1.1470377445220947,-0.37727755308151245,1.505696177482605
1761399112782965800,4.8979658203125,1.0944945812225342,-0.44828981161117554,1.176748275756836
1761399112793043500,4.90804345703125,1.0872001647949219,-0.5767413973808289,0.9054728150367737
1761399112803127300,4.918127197265625,1.1028882265090942,-0.7557708621025085,0.7249111533164978
1761399112813208300,4.928208251953125,1.1029548645019531,-0.9965530037879944,0.5986579060554504
1761399112823263200,4.93826318359375,1.0837194919586182,-1.2489595413208008,0.5135731101036072
1761399112833370000,4.9483701171875,0.9901745915412903,-1.4094699621200562,0.44823986291885376
1761399112843450000,4.9584501953125,0.8717986345291138,-1.485728144645691,0.3861207962036133
1761399112853531100,4.96853125,0.7653301954269409,-1.4359662532806396,0.29197627305984497
1761399112863611400,4.978611328125,0.6807949542999268,-1.2729744911193848,0.16753828525543213
1761399112873716700,4.988716796875,0.5974255204200745,-1.0683313608169556,0.061186447739601135
1761399112883769300,4.998769287109375,0.5167540311813354,-0.895813524723053,-0.021283689886331558
1761399112893853400,5.008853515625,0.44615811109542847,-0.7720916867256165,-0.09367821365594864
1761399112903935000,5.01893505859375,0.3837059736251831,-0.7107053995132446,-0.18046171963214874
1761399112914015000,5.029014892578125,0.32603350281715393,-0.6672220230102539,-0.2976885437965393
1761399112924096500,5.039096435546875,0.27377355098724365,-0.6213072538375854,-0.4427940249443054
1761399112934199300,5.04919921875,0.2218133509159088,-0.5332747101783752,-0.5859176516532898
1761399112944257300,5.05925732421875,0.1559971272945404,-0.38685354590415955,-0.6939515471458435
1761399112954334200,5.069334228515625,0.07669123262166977,-0.2093895524740219,-0.7580524682998657
1761399112964418800,5.079418701171875,-0.03299138695001602,-0.008943147026002407,-0.8077643513679504
1761399112974499300,5.089499267578125,-0.16260872781276703,0.2179829627275467,-0.8703830242156982
1761399112984579800,5.099579833984375,-0.2779703140258789,0.44309380650520325,-0.9633117914199829
1761399112994660900,5.109660888671875,-0.37915945053100586,0.6127637624740601,-1.0784403085708618
1761399113004741400,5.119741455078125,-0.49445444345474243,0.7054094672203064,-1.1639413833618164
1761399113014822400,5.129822509765625,-0.6173102855682373,0.6645241379737854,-1.1527000665664673
1761399113024879400,5.13987939453125,-0.6907206773757935,0.4533359408378601,-0.9648439884185791
1761399113034984000,5.14998388671875,-0.6625422835350037,0.24038246273994446,-0.6659063696861267
1761399113045064200,5.160064208984375,-0.45551759004592896,0.048779286444187164,-0.4170970320701599
1761399113055145000,5.17014501953125,0.0005995405954308808,-0.31625765562057495,-0.2462446391582489
1761399113065194200,5.1801943359375,0.5167040228843689,-0.46108001470565796,-0.07520903646945953
1761399113075307000,5.19030712890625,0.8293477892875671,-0.3362090289592743,0.12900114059448242
1761399113085383000,5.2003828125,0.9936885237693787,-0.3511475920677185,0.26294851303100586
1761399113095442200,5.210442138671875,1.051544189453125,-0.20384380221366882,0.3546615540981293
1761399113105548300,5.22054833984375,1.0880662202835083,0.15111753344535828,0.3326617479324341
1761399113115637500,5.230637451171875,1.0701299905776978,0.4631783962249756,0.21315333247184753
1761399113125709800,5.240709716796875,0.9334014058113098,0.5625689029693604,0.15101760625839233
1761399113135763200,5.25076318359375,0.5529596209526062,0.5235321521759033,0.118092842400074
1761399113145868800,5.260868896484375,-0.0856010690331459,0.3111449182033539,-0.08202048391103745
1761399113155951900,5.270951904296875,-0.7481600046157837,0.08012193441390991,-0.32638323307037354
1761399113166032400,5.281032470703125,-1.1873900890350342,-0.0014322358183562756,-0.40344083309173584
1761399113176113200,5.291113037109375,-1.1581459045410156,-0.10347071290016174,-0.45899826288223267
1761399113186194000,5.30119384765625,-0.7441297769546509,-0.08152086287736893,-0.5215170383453369
1761399113196275000,5.31127490234375,-0.19017094373703003,-0.03527297079563141,-0.4157147705554962
1761399113206355500,5.32135546875,0.3119276463985443,0.018818913027644157,-0.2490924596786499
1761399113216436200,5.331436279296875,0.43581604957580566,0.1872398555278778,-0.1820271760225296
1761399113226494000,5.341493896484375,0.13559609651565552,0.3605237305164337,-0.2172335386276245
1761399113236598300,5.351598388671875,-0.3776439428329468,0.4917898178100586,-0.38533803820610046
1761399113246678300,5.36167822265625,-0.9019755125045776,0.45863187313079834,-0.6562304496765137
1761399113256750000,5.37175,-1.3117448091506958,0.22557714581489563,-0.9425277709960938
1761399113266839800,5.38183984375,-1.4641447067260742,-0.13834398984909058,-1.1973824501037598
1761399113276920300,5.39192041015625,-1.22311270236969,-0.46612614393234253,-1.375612497329712
1761399113287001900,5.402001953125,-0.6790130138397217,-0.6007063388824463,-1.4120179414749146
1761399113297081600,5.41208154296875,-0.18639050424098969,-0.42738914489746094,-1.2120212316513062
1761399113307162400,5.422162353515625,0.05161045119166374,-0.03114280290901661,-0.8425377011299133
1761399113317243400,5.432243408203125,0.0799054354429245,0.2160511016845703,-0.48472854495048523
1761399113327300400,5.44230029296875,-0.04238418862223625,0.37972569465637207,-0.32000479102134705
1761399113337405400,5.452405517578125,-0.21336983144283295,0.5833696126937866,-0.4420279562473297
1761399113347485400,5.4624853515625,-0.3578091561794281,0.7246447205543518,-0.7800522446632385
1761399113357566700,5.472566650390625,-0.39691251516342163,0.7947409749031067,-1.141974925994873
1761399113367646700,5.482646728515625,-0.34213781356811523,0.9268064498901367,-1.3266334533691406
1761399113377728000,5.49272802734375,-0.2832662761211395,1.024864673614502,-1.3038341999053955
1761399113387808000,5.50280810546875,-0.2770043909549713,0.997552216053009,-1.1225064992904663
1761399113397888800,5.512888671875,-0.3097792863845825,0.8894017934799194,-0.8581923842430115
1761399113407971300,5.522971435546875,-0.34986522793769836,0.8029180765151978,-0.5859176516532898
1761399113418046000,5.5330458984375,-0.3848051130771637,0.7582190036773682,-0.38115790486335754
1761399113428128000,5.5431279296875,-0.4278554618358612,0.7412319779396057,-0.30631527304649353
1761399113438210800,5.5532109375,-0.4621292054653168,0.7095063328742981,-0.3131600320339203
1761399113448292000,5.5632919921875,-0.4662593603134155,0.6946843266487122,-0.35847529768943787
1761399113458369500,5.57336962890625,-0.43731489777565,0.6697534322738647,-0.4146655797958374
1761399113468415700,5.583415771484375,-0.4082038700580597,0.5997404456138611,-0.470889151096344
1761399113478535400,5.593535400390625,-0.4196617603302002,0.5102423429489136,-0.5135731101036072
1761399113488615200,5.603615234375,-0.4775507152080536,0.4613298177719116,-0.526879608631134
1761399113498696000,5.613696044921875,-0.5499619245529175,0.45719966292381287,-0.5164209604263306
1761399113508777000,5.62377685546875,-0.6061854958534241,0.47521916031837463,-0.5142892599105835
1761399113518827300,5.6338271484375,-0.6330315470695496,0.4604138433933258,-0.5548747777938843
1761399113528939300,5.643939208984375,-0.6440564393997192,0.3722314238548279,-0.6508512496948242
1761399113539018800,5.654018798828125,-0.6660229563713074,0.28176742792129517,-0.7685277462005615
1761399113549099300,5.664099365234375,-0.677664041519165,0.1588449478149414,-0.8591416478157043
1761399113559180000,5.674179931640625,-0.6947009563446045,0.06899712979793549,-0.8854880928993225
1761399113569261300,5.68426123046875,-0.693102240562439,0.008909839205443859,-0.8443862795829773
1761399113579341600,5.694341552734375,-0.6903043389320374,0.013189892284572124,-0.7563037872314453
1761399113589402000,5.704402099609375,-0.7015624046325684,0.07119544595479965,-0.6598776578903198
1761399113599478000,5.71447802734375,-0.7474605441093445,0.18162748217582703,-0.6036041378974915
1761399113609583600,5.72458349609375,-0.7630485892295837,0.2093895524740219,-0.5987411737442017
1761399113619664400,5.734664306640625,-0.7622159123420715,0.23177239298820496,-0.5979917645454407
1761399113629745000,5.744744873046875,-0.7136198282241821,0.21303674578666687,-0.6023883819580078
1761399113639825700,5.75482568359375,-0.6312995553016663,0.09556010365486145,-0.6108985543251038
1761399113659987200,5.7749873046875,-0.42004477977752686,-0.10643510520458221,-0.45928138494491577
1761399113670068000,5.78506787109375,-0.31925535202026367,-0.1439063847064972,-0.2835160791873932
1761399113680148500,5.7951484375,-0.22561044991016388,-0.14708729088306427,-0.12468778342008591
1761399113690229200,5.805229248046875,-0.14365658164024353,-0.11304670572280884,-0.0333244651556015
1761399113700284700,5.81528466796875,-0.09176301211118698,-0.07099559903144836,0.037054937332868576
1761399113710390800,5.825390869140625,-0.06328483670949936,0.007410987745970488,0.11236389726400375
1761399113720467700,5.8354677734375,-0.0026646247133612633,0.06638246774673462,0.18187730014324188
1761399113730551600,5.845551513671875,0.13576263189315796,0.019601646810770035,0.2455451786518097
1761399113740632800,5.8556328125,0.3158079981803894,-0.1457216739654541,0.308713436126709
1761399113750713300,5.86571337890625,0.4954536557197571,-0.3969458341598511,0.3621891140937805
1761399113760794000,5.875794189453125,0.6357961297035217,-0.6558973789215088,0.37018299102783203
1761399113770875100,5.885875244140625,0.7354697585105896,-0.910302460193634,0.30228501558303833
1761399113780951600,5.89595166015625,0.7757888436317444,-1.054275393486023,0.2779703140258789
1761399113791037000,5.906036865234375,0.8300972580909729,-1.146304965019226,0.41073524951934814
1761399113801117000,5.916116943359375,0.8728477954864502,-1.2423313856124878,0.6323320865631104
1761399113811197700,5.92619775390625,0.8854381442070007,-1.2796694040298462,0.91591477394104
1761399113821279000,5.936279052734375,0.913999617099762,-1.1646908521652222,1.2691774368286133
1761399113831359200,5.946359130859375,0.9579992294311523,-0.9535526037216187,1.7110388278961182
1761399113841436000,5.956435791015625,0.9770346283912659,-0.735020101070404,2.181711435317993
1761399113851495200,5.9664951171875,0.9676252007484436,-0.5580223798751831,2.553410053253174
1761399113861602600,5.9766025390625,0.9450258016586304,-0.4156481623649597,2.679546594619751
1761399113871681800,5.986681884765625,0.9371318817138672,-0.25418853759765625,2.537921905517578
1761399113881737200,5.9967373046875,0.9513376355171204,-0.06098660081624985,2.2437806129455566
1761399113891843800,6.00684375,0.9727545976638794,0.14667093753814697,1.9679752588272095
1761399113901923800,6.016923828125,0.9989678263664246,0.3430038094520569,1.8255677223205566
1761399113912000800,6.027000732421875,1.0372718572616577,0.4333512485027313,1.8421549797058105
1761399113922085400,6.03708544921875,1.0637348890304565,0.42447471618652344,1.9530867338180542
1761399113932166400,6.04716650390625,1.0758090019226074,0.32520079612731934,2.057689905166626
1761399113942222300,6.057222412109375,1.0411854982376099,0.1600107103586197,2.0575900077819824
1761399113952302600,6.067302490234375,0.9582989811897278,0.05042802542448044,1.9025087356567383
1761399113962408700,6.07740869140625,0.883056640625,-0.062152374535799026,1.6205915212631226
1761399113972473300,6.087473388671875,0.8882193565368652,-0.17315064370632172,1.2675286531448364
1761399113982570500,6.097570556640625,0.955917477607727,-0.2798355519771576,0.8994107842445374
1761399113992650200,6.107650146484375,1.0018322467803955,-0.46592628955841064,0.5897814035415649
1761399114002731500,6.1177314453125,0.9889422059059143,-0.7181330323219299,0.37331393361091614
1761399114012815400,6.1278154296875,0.9048233032226562,-0.9690574407577515,0.229307621717453
1761399114022869000,6.137868896484375,0.7631984949111938,-1.1464381217956543,0.14160814881324768
1761399114032974000,6.14797412109375,0.6354297399520874,-1.2228962182998657,0.07367687672376633
1761399114043050000,6.158050048828125,0.5236154198646545,-1.1577461957931519,0.00841022189706564
1761399114053135600,6.168135498046875,0.43481680750846863,-1.0137897729873657,-0.0580388568341732
1761399114063215400,6.17821533203125,0.3791095018386841,-0.8044835329055786,-0.1232222393155098
1761399114073296100,6.188296142578125,0.3637212812900543,-0.5679814219474792,-0.17581526935100555
1761399114083377000,6.198376953125,0.32341882586479187,-0.3584253489971161,-0.23663532733917236
1761399114093457400,6.20845751953125,0.2590681314468384,-0.19804823398590088,-0.2994705140590668
1761399114103513900,6.218513916015625,0.17826339602470398,-0.054541539400815964,-0.3592080771923065
1761399114113619000,6.228618896484375,0.08070482313632965,0.06984647363424301,-0.4160311818122864
1761399114123699500,6.238699462890625,0.004413284827023745,0.16892056167125702,-0.46592628955841064
1761399114133779000,6.248779052734375,-0.06586619466543198,0.2731073796749115,-0.49931737780570984
1761399114143861500,6.258861572265625,-0.1671052873134613,0.4195285141468048,-0.5068615674972534
1761399114153941800,6.268941650390625,-0.2922593653202057,0.6234555840492249,-0.49293893575668335
1761399114164018400,6.279018310546875,-0.41130149364471436,0.8461016416549683,-0.47670137882232666
1761399114174103000,6.28910302734375,-0.5098925828933716,1.0327253341674805,-0.48919180035591125
1761399114184149000,6.29914892578125,-0.6009228229522705,1.1433072090148926,-0.5415516495704651
1761399114194265000,6.30926513671875,-0.6945011615753174,1.1725680828094482,-0.6212572455406189
1761399114204345600,6.319345703125,-0.7702764272689819,1.1399264335632324,-0.712986946105957
1761399114214396700,6.329396728515625,-0.8010694980621338,1.1033878326416016,-0.7959733605384827
1761399114224506600,6.339506591796875,-0.7254607677459717,1.0396533012390137,-0.8196385502815247
1761399114234588000,6.349587890625,-0.5117578506469727,0.856776773929596,-0.6920197010040283
1761399114244668000,6.35966796875,-0.18144428730010986,0.559454619884491,-0.39916080236434937
1761399114254748700,6.369748779296875,0.16344141960144043,0.36713534593582153,0.022149693220853806
1761399114264829400,6.379829345703125,0.3911169469356537,0.490340918302536,0.5138062834739685
1761399114274910200,6.38991015625,0.5481966137886047,0.6619760394096375,0.8425710201263428
1761399114284991000,6.399990966796875,0.6480034589767456,0.7244115471839905,0.8967961072921753
1761399114295072000,6.410072021484375,0.705242931842804,0.7570865154266357,0.7743399739265442
1761399114305152300,6.42015234375,0.7163177728652954,0.8161911964416504,0.6104488968849182
1761399114315232800,6.430232666015625,0.6308832168579102,0.8679348826408386,0.46023064851760864
1761399114325318700,6.440318603515625,0.39393147826194763,0.8764450550079346,0.348366379737854
1761399114335394800,6.450394775390625,0.036655243486166,0.7574862241744995,0.2753390073776245
1761399114345475000,6.46047509765625,-0.32175344228744507,0.5531761050224304,0.21163782477378845
1761399114355530800,6.47053076171875,-0.5729276537895203,0.3642708659172058,0.11824272572994232
1761399114365637400,6.480637451171875,-0.8054661154747009,0.2328549027442932,-0.2170836478471756
1761399114375717000,6.490717041015625,-1.014639139175415,0.2500583827495575,-0.7939749360084534
1761399114385798100,6.500798095703125,-1.1627089977264404,0.5772410035133362,-1.2202816009521484
1761399114395878400,6.51087841796875,-1.1366289854049683,1.1670722961425781,-1.3277825117111206
1761399114405959200,6.520959228515625,-0.8382243514060974,1.9472911357879639,-1.2998871803283691
1761399114416040200,6.531040283203125,-0.2354029417037964,2.28676438331604,-1.0493957996368408
1761399114426120700,6.54112060546875,0.385171502828598,2.1259210109710693,-0.5803219676017761
1761399114436201700,6.55120166015625,0.6313828229904175,1.7975891828536987,-0.09910738468170166
1761399114446282000,6.561281982421875,0.43919676542282104,1.4871437549591064,0.2732572555541992
1761399114456362800,6.57136279296875,0.035805895924568176,1.1706362962722778,0.5202679634094238
1761399114466443300,6.581443359375,-0.4354829490184784,0.8104456067085266,0.6132301092147827
1761399114476524000,6.59152392578125,-0.8376747369766235,0.6145457625389099,0.49841806292533875
1761399114486605300,6.601605224609375,-1.058255672454834,0.7088068723678589,0.2577691376209259
1761399114496660000,6.611659912109375,-0.9896249771118164,0.9680748581886292,-0.05527431145310402
1761399114506741500,6.621741455078125,-0.5768746137619019,1.2765717506408691,-0.43435049057006836
1761399114516847000,6.63184716796875,-0.0022482771892100573,1.7869973182678223,-0.7256439328193665
1761399114526902500,6.641902587890625,0.36527010798454285,2.2257611751556396,-0.7660462856292725
1761399114536983300,6.6519833984375,0.3752457797527313,2.3797597885131836,-0.5469309091567993
1761399114547064000,6.66206396484375,0.18422549962997437,2.5138401985168457,-0.18532465398311615
1761399114557144800,6.672144775390625,-0.05255972221493721,2.71325421333313,0.13664528727531433
1761399114567225000,6.68222509765625,-0.19704900681972504,2.656980514526367,0.32666635513305664
1761399114577305000,6.69230517578125,-0.26994314789772034,2.55077862739563,0.4433436095714569
1761399114587375000,6.702375,-0.2670786678791046,2.537572145462036,0.5767580270767212
1761399114597466400,6.71246630859375,-0.16420750319957733,2.451737880706787,0.6971324682235718
1761399114607555800,6.722555908203125,-0.051044218242168427,2.255471706390381,0.7285417318344116
1761399114617638000,6.732637939453125,0.011790964752435684,2.0498626232147217,0.6762484312057495
1761399114627723300,6.74272314453125,0.07062920928001404,1.8756626844406128,0.6460882425308228
1761399114637815800,6.75281591796875,0.11083173751831055,1.7819178104400635,0.6515673995018005
1761399114647883500,6.762883544921875,0.06313495337963104,1.6966664791107178,0.6572297215461731
1761399114657976800,6.772976806640625,-0.05482465401291847,1.6495193243026733,0.6195086240768433
1761399114668050700,6.78305078125,-0.1535656601190567,1.6951509714126587,0.5027813911437988
1761399114678126600,6.793126708984375,-0.17020291090011597,1.8247350454330444,0.34451931715011597
1761399114688219400,6.803219482421875,-0.12493759393692017,1.9030916690826416,0.2263265699148178
1761399114698286800,6.813286865234375,-0.09860777109861374,1.87567937374115,0.20217840373516083
1761399114708380200,6.823380126953125,-0.11116481572389603,1.713553547859192,0.2800687253475189
1761399114718461400,6.83346142578125,-0.1542651206254959,1.462945580482483,0.39533039927482605
1761399114728542200,6.843542236328125,-0.19283556938171387,1.2838494777679443,0.47072261571884155
1761399114738607900,6.85360791015625,-0.22519409656524658,1.1980153322219849,0.476584792137146
1761399114748703500,6.863703369140625,-0.28148430585861206,1.1360794305801392,0.3974454402923584
1761399114758783700,6.87378369140625,-0.34658440947532654,1.0354565382003784,0.2411651909351349
1761399114768864500,6.883864501953125,-0.3951472043991089,0.9144659042358398,0.07540888339281082
1761399114778945800,6.89394580078125,-0.4392300844192505,0.8729310631752014,-0.04421611875295639
1761399114789021400,6.904021484375,-0.45128750801086426,0.766978919506073,-0.07012959569692612
1761399114799104800,6.914104736328125,-0.4793493449687958,0.721014142036438,-0.0005828866851516068
1761399114809187800,6.924187744140625,-0.5061121582984924,0.6967993974685669,0.07599176466464996
1761399114819268900,6.934268798828125,-0.5733939409255981,0.706275463104248,0.08430206775665283
1761399114829337600,6.944337646484375,-0.6300338506698608,0.6973323225975037,0.01961830072104931
1761399114839429600,6.9544296875,-0.6773975491523743,0.6712523102760315,-0.11004900187253952
1761399114849510400,6.964510498046875,-0.7553378343582153,0.6544318199157715,-0.2655465006828308
1761399114859589600,6.974589599609375,-0.7964397072792053,0.5385206937789917,-0.34272071719169617
1761399114869670400,6.98467041015625,-0.8029680252075195,0.5030811429023743,-0.30902984738349915
1761399114879752700,6.994752685546875,-0.7532394528388977,0.486493855714798,-0.2345869094133377
1761399114889822000,7.004822021484375,-0.6694703102111816,0.46564316749572754,-0.17469945549964905
1761399114899913700,7.014913818359375,-0.5843355655670166,0.45863187313079834,-0.12057427316904068
1761399114909982000,7.02498193359375,-0.5057624578475952,0.4608302116394043,-0.06916366517543793
1761399114920075500,7.035075439453125,-0.4250243008136749,0.47710105776786804,-0.006062021479010582
1761399114930153700,7.04515380859375,-0.33762460947036743,0.5222498178482056,0.081637442111969
1761399114940237300,7.0552373046875,-0.2270926535129547,0.5632350444793701,0.18878866732120514
1761399114950305800,7.065305908203125,-0.11306335777044296,0.5458816885948181,0.31332656741142273
1761399114960398300,7.0753984375,-0.008510145358741283,0.4724879264831543,0.45724961161613464
1761399114970476500,7.0854765625,0.08743300288915634,0.4121841490268707,0.618942379951477
1761399114980558600,7.09555859375,0.18024520576000214,0.34493568539619446,0.7730409502983093
1761399114990638300,7.105638427734375,0.317390114068985,0.15732944011688232,0.880325436592102
1761399115000716800,7.115716796875,0.5244814157485962,-0.15015161037445068,0.9393801689147949
1761399115010789000,7.1257890625,0.7782202959060669,-0.4416781961917877,1.0425677299499512
1761399115020882700,7.135882568359375,1.043167233467102,-0.6844255328178406,1.269210696220398
1761399115030963000,7.145962890625,1.2632153034210205,-0.8668357729911804,1.560787320137024
1761399115041044200,7.156044189453125,1.3792097568511963,-0.8926826119422913,1.9203284978866577
1761399115051124500,7.16612451171875,1.4063889980316162,-0.8373916149139404,2.3735477924346924
1761399115061201400,7.176201416015625,1.3943980932235718,-0.6928357481956482,2.866220235824585
1761399115081350100,7.19635009765625,1.2978887557983398,0.08954804390668869,3.5796401500701904
1761399115091436800,7.206436767578125,1.216750979423523,0.7200149297714233,3.574577569961548
1761399115101516000,7.21651611328125,1.0779073238372803,1.2699768543243408,3.266263723373413
1761399115111609000,7.226609130859375,0.976967990398407,1.4296377897262573,2.750042676925659
1761399115121693700,7.236693603515625,0.9973856806755066,1.2910939455032349,2.2164182662963867
1761399115131757800,7.2467578125,1.0997406244277954,1.0872668027877808,1.8637884855270386
1761399115141851000,7.256850830078125,1.217566967010498,0.8727978467941284,1.8066155910491943
1761399115151917000,7.2669169921875,1.3117780685424805,0.5017988085746765,1.9268734455108643
1761399115162012400,7.277012451171875,1.3527300357818604,0.03077641688287258,2.067615509033203
1761399115172087000,7.287087158203125,1.2503418922424316,-0.22174674272537231,2.0339746475219727
1761399115182174000,7.297174072265625,1.0432672500610352,-0.2741565704345703,1.7438637018203735
1761399115192252700,7.307252685546875,0.8283319473266602,-0.4329349100589752,1.2752561569213867
1761399115202335000,7.3173349609375,0.6982815861701965,-0.7801854610443115,0.8278489708900452
1761399115212416000,7.327416015625,0.6369452476501465,-1.0867339372634888,0.5526265501976013
1761399115222478600,7.337478515625,0.5856345891952515,-1.2764885425567627,0.4118677079677582
1761399115232577500,7.34757763671875,0.5193686485290527,-1.3408558368682861,0.302268385887146
1761399115242657800,7.35765771484375,0.4100857377052307,-1.3104290962219238,0.18838897347450256
1761399115252737500,7.367737548828125,0.26216575503349304,-1.1943681240081787,0.10403694212436676
1761399115272886800,7.38788671875,-0.0897645503282547,-0.8024184703826904,0.12137366086244583
1761399115282980900,7.39798095703125,-0.21538494527339935,-0.6085669994354248,0.1591114103794098
1761399115293061600,7.4080615234375,-0.26030054688453674,-0.44530877470970154,0.16194257140159607
1761399115303129300,7.41812939453125,-0.20835700631141663,-0.30221840739250183,0.09749195724725723
1761399115313223200,7.42822314453125,-0.10473641008138657,-0.15483134984970093,-0.030709801241755486
1761399115323301600,7.438301513671875,0.02939414232969284,-0.024814318865537643,-0.18146094679832458
1761399115333373400,7.44837353515625,0.07599176466464996,0.12916769087314606,-0.3083137273788452
1761399115343433200,7.45843310546875,0.04368319362401962,0.2772875130176544,-0.388502299785614
1761399115353545700,7.468545654296875,-0.019901415333151817,0.4174967408180237,-0.405239462852478
1761399115363626500,7.47862646484375,-0.10235489904880524,0.5433502793312073,-0.37243127822875977
1761399115373694500,7.488694580078125,-0.22502756118774414,0.6329482793807983,-0.3446192443370819
1761399115383786200,7.4987861328125,-0.362605482339859,0.6994972825050354,-0.3500484228134155
1761399115393868500,7.50886865234375,-0.49355512857437134,0.7619327902793884,-0.3920329213142395
1761399115403949000,7.518948974609375,-0.6064352989196777,0.8131102323532104,-0.4570997357368469
1761399115414030000,7.529030029296875,-0.7130869030952454,0.8459351062774658,-0.5295442342758179
1761399115424110600,7.539110595703125,-0.8172237873077393,0.8590250611305237,-0.5841856598854065
1761399115434191600,7.549191650390625,-0.8818908929824829,0.8378745913505554,-0.6113148927688599
1761399115454352400,7.569352294921875,-0.8104456067085266,0.715801477432251,-0.597608745098114
1761399115464433700,7.57943359375,-0.6466377973556519,0.6300172209739685,-0.5338408946990967
1761399115474514200,7.58951416015625,-0.3837226331233978,0.5525099635124207,-0.40797069668769836
1761399115484576500,7.599576416015625,-0.06976320594549179,0.5359559655189514,-0.2194485068321228
1761399115494676000,7.609676025390625,0.19226932525634766,0.538537323474884,0.005495788529515266
1761399115504756500,7.619756591796875,0.3348933756351471,0.5350566506385803,0.2452620565891266
1761399115514831600,7.62983154296875,0.4076542854309082,0.5674651265144348,0.4365321397781372
1761399115524917800,7.639917724609375,0.43075326085090637,0.601855456829071,0.5024150013923645
1761399115534995200,7.6499951171875,0.4030744731426239,0.5667157173156738,0.43676531314849854
1761399115545079300,7.660079345703125,0.3660028576850891,0.40352410078048706,0.3499651551246643
1761399115555159800,7.670159912109375,0.32590025663375854,0.05895482376217842,0.3413384258747101
1761399115565240600,7.680240478515625,0.20301109552383423,-0.27215811610221863,0.4060555100440979
1761399115575318800,7.69031884765625,-0.054874617606401443,-0.3174067735671997,0.3601573407649994
1761399115585402000,7.700402099609375,-0.36415427923202515,-0.33630895614624023,0.14360661804676056
1761399115595481900,7.71048193359375,-0.7395499348640442,-0.23295481503009796,-0.05087767913937569
1761399115605548500,7.720548583984375,-1.0578893423080444,0.12407159060239792,-0.12258939445018768
1761399115625712400,7.74071240234375,-0.7065252661705017,1.0109752416610718,-0.1254538595676422
1761399115645884000,7.7608837890625,0.4328683018684387,1.9615968465805054,-0.21043874323368073
1761399115655954200,7.7709541015625,0.695500373840332,1.6650906801223755,-0.029111025854945183
1761399115676116000,7.791115966796875,0.21140466630458832,1.3560441732406616,0.047830015420913696
1761399115686208800,7.801208740234375,-0.3289312720298767,0.9429274201393127,-0.05908805504441261
1761399115696287700,7.811287841796875,-0.8134933114051819,0.5299772024154663,-0.23948314785957336
1761399115706353400,7.821353515625,-1.1412421464920044,0.39304879307746887,-0.4493556618690491
1761399115716451300,7.831451416015625,-1.2026784420013428,0.5356062054634094,-0.6375947594642639
1761399115726545400,7.84154541015625,-0.9829467535018921,0.7840158939361572,-0.7244115471839905
1761399115736582000,7.851581787109375,-0.6313661932945251,1.0731443166732788,-0.6696035265922546
1761399115746693400,7.861693359375,-0.27905282378196716,1.322186827659607,-0.49049079418182373
1761399115756772400,7.8717724609375,-0.026912709698081017,1.4087038040161133,-0.26549655199050903
1761399115766855200,7.881855224609375,0.04133499041199684,1.4834798574447632,-0.07276090979576111
1761399115776917800,7.891917724609375,0.0021650076378136873,1.6628423929214478,0.030326761305332184
1761399115787016400,7.902016357421875,-0.06318491697311401,1.8646044731140137,-0.003031010739505291
1761399115797097000,7.912096923828125,-0.15966098010540009,1.9671425819396973,-0.16317495703697205
1761399115807174700,7.922174560546875,-0.2735403776168823,1.9803657531738281,-0.35442841053009033
1761399115817257700,7.9322578125,-0.37318068742752075,2.0213510990142822,-0.4607635736465454
1761399115827324200,7.94232421875,-0.4373648464679718,2.0383546352386475,-0.4606303572654724
1761399115837419800,7.952419677734375,-0.46073028445243835,1.9720054864883423,-0.3608068525791168
1761399115847500500,7.96250048828125,-0.44780683517456055,1.7960070371627808,-0.20096266269683838
1761399115857574700,7.97257470703125,-0.42505761981010437,1.6577962636947632,-0.00782733503729105
1761399115867645400,7.9826455078125,-0.3952804207801819,1.5403696298599243,0.18629057705402374
1761399115877729500,7.9927294921875,-0.36608612537384033,1.4361661672592163,0.3258003294467926
1761399115887821000,8.002821044921875,-0.34173813462257385,1.3421214818954468,0.36387115716934204
1761399115897899800,8.012899658203125,-0.33229535818099976,1.2587354183197021,0.291626513004303
1761399115907985000,8.02298486328125,-0.3303301930427551,1.1881728172302246,0.15304937958717346
1761399115918044400,8.03304443359375,-0.341055303812027,1.1624925136566162,0.019768185913562775
1761399115928145700,8.043145751953125,-0.3984946310520172,1.1869903802871704,-0.06628254055976868
1761399115938236000,8.05323583984375,-0.4883924126625061,1.235819697380066,-0.10576894879341125
1761399115948307500,8.063307373046875,-0.5592714548110962,1.2897449731826782,-0.125936821103096
1761399115958391600,8.0733916015625,-0.5948441624641418,1.3190059661865234,-0.13129939138889313
1761399115968468700,8.08346875,-0.6055026650428772,1.2790032625198364,-0.13577929139137268
1761399115978543400,8.09354345703125,-0.604803204536438,1.182510495185852,-0.15874502062797546
1761399115988630000,8.103630126953124,-0.6091498732566833,1.0403693914413452,-0.22644314169883728
1761399115998701300,8.113701416015624,-0.6274691820144653,0.9027249217033386,-0.30363398790359497
1761399116008791800,8.123791748046875,-0.6778472065925598,0.835726261138916,-0.34451931715011597
1761399116018870500,8.13387060546875,-0.7436801195144653,0.7845821380615234,-0.34818318486213684
1761399116028953300,8.143953369140625,-0.806848406791687,0.7473606467247009,-0.35158059000968933
1761399116039034400,8.154034423828126,-0.8555610775947571,0.7126705646514893,-0.3709490895271301
1761399116049114600,8.164114501953126,-0.888619065284729,0.662775456905365,-0.40372395515441895
1761399116059195100,8.174195068359374,-0.8843057155609131,0.5878495573997498,-0.439779669046402
1761399116069276000,8.18427587890625,-0.8330116868019104,0.5305268168449402,-0.47891634702682495
1761399116079355000,8.19435498046875,-0.7606005072593689,0.5141893029212952,-0.5120576024055481
1761399116089437200,8.204437255859375,-0.6781136989593506,0.5055459141731262,-0.49868452548980713
1761399116099518500,8.2145185546875,-0.6028879880905151,0.5528263449668884,-0.4047398567199707
1761399116109576400,8.224576416015625,-0.5371384024620056,0.6590116620063782,-0.274273157119751
1761399116119680000,8.234679931640626,-0.4450589418411255,0.711071789264679,-0.16162614524364471
1761399116129759700,8.244759765625,-0.32318568229675293,0.692402720451355,-0.07316060364246368
1761399116139841300,8.25484130859375,-0.20635853707790375,0.6120643019676208,0.008993108756840229
1761399116149919500,8.26491943359375,-0.12543721497058868,0.5231324434280396,0.10387040674686432
1761399116160002300,8.275002197265625,-0.0754588395357132,0.4928889572620392,0.20982255041599274
1761399116170082600,8.28508251953125,-0.042733918875455856,0.5192188024520874,0.3233688771724701
1761399116180163600,8.29516357421875,-0.021849922835826874,0.5815709829330444,0.446740984916687
1761399116190244400,8.305244384765626,0.02075076475739479,0.6524666547775269,0.5667157173156738
1761399116200311300,8.315311279296875,0.12442132085561752,0.6453388333320618,0.6671720743179321
1761399116210403800,8.32540380859375,0.3040503263473511,0.5182528495788574,0.7386506199836731
1761399116220473900,8.335473876953126,0.5121075510978699,0.3184226453304291,0.815758228302002
1761399116230547000,8.345546875,0.7273426651954651,0.03488992899656296,0.8867537975311279
1761399116240646100,8.355646240234375,0.9349835515022278,-0.3465677499771118,0.9183295965194702
1761399116260809500,8.3758095703125,1.2016791105270386,-0.6674551963806152,0.9532861709594727
1761399116270890000,8.385889892578126,1.0989412069320679,-0.6711024045944214,1.0935287475585938
1761399116280955600,8.39595556640625,1.001132845878601,-0.7326052784919739,1.3951308727264404
1761399116291051300,8.40605126953125,1.008177399635315,-0.6457718014717102,1.8320960998535156
1761399116301132300,8.41613232421875,1.082287311553955,-0.3992440700531006,2.309730052947998
1761399116311215600,8.426215576171876,1.1224231719970703,-0.0869833454489708,2.7564876079559326
1761399116321293800,8.4362939453125,1.04474937915802,0.28201723098754883,3.0823380947113037
1761399116341451300,8.456451171875,0.8226862549781799,1.1702033281326294,3.073378324508667
1761399116351529200,8.466529296875,0.8827069401741028,1.468774437904358,2.763815402984619
1761399116361616100,8.4766162109375,1.0124242305755615,1.598791480064392,2.427722930908203
1761399116371697200,8.486697265625,1.1474207639694214,1.6362462043762207,2.288196563720703
1761399116381765400,8.496765380859374,1.246794581413269,1.6013562679290771,2.33870792388916
1761399116391865300,8.506865234375,1.2442132234573364,1.5044138431549072,2.4324026107788086
1761399116401937400,8.5169375,1.1594115495681763,1.1925361156463623,2.4258410930633545
1761399116412020000,8.52702001953125,1.0077444314956665,0.6852915287017822,2.2711095809936523
1761399116422090200,8.53709033203125,0.777620792388916,0.32035452127456665,1.9988349676132202
1761399116432181200,8.54718115234375,0.6118478178977966,0.05507446452975273,1.684975504875183
1761399116442262000,8.557261962890625,0.58621746301651,-0.19689911603927612,1.4114017486572266
1761399116452349700,8.567349609375,0.5920130014419556,-0.4226594567298889,1.2223799228668213
1761399116462415600,8.57741552734375,0.555274486541748,-0.5978252291679382,1.0990744829177856
1761399116472502500,8.58750244140625,0.47600191831588745,-0.8123441934585571,0.975602388381958
1761399116482584800,8.597584716796876,0.34132176637649536,-0.9945045709609985,0.8571598529815674
1761399116492652800,8.60765283203125,0.18357598781585693,-1.0565403699874878,0.7668623328208923
1761399116502746400,8.617746337890624,0.05995405837893486,-1.0479968786239624,0.7043436169624329
1761399116512827000,8.627826904296874,-0.013223200105130672,-0.9392635822296143,0.666405975818634
1761399116522895400,8.637895263671876,-0.07069582492113113,-0.715185284614563,0.6630752086639404
1761399116532987000,8.64798681640625,-0.12233958393335342,-0.467291921377182,0.6589950323104858
1761399116543069000,8.65806884765625,-0.15011829137802124,-0.2576359212398529,0.6160112619400024
1761399116553150000,8.66814990234375,-0.1578790247440338,-0.07560873031616211,0.5062620639801025
1761399116563230500,8.67823046875,-0.1576625108718872,0.10860010981559753,0.3299804627895355
1761399116573311500,8.6883115234375,-0.2202811986207962,0.3155914843082428,0.12079077214002609
1761399116583368700,8.69836865234375,-0.2876129448413849,0.5478302240371704,-0.06333480030298233
1761399116593476400,8.708476318359375,-0.35236331820487976,0.766495943069458,-0.1732172667980194
1761399116603538700,8.71853857421875,-0.42609015107154846,0.9483066201210022,-0.2115212380886078
1761399116613622800,8.728622802734375,-0.49342188239097595,1.1024885177612305,-0.23303809762001038
1761399116623701800,8.73870166015625,-0.5449990630149841,1.2507082223892212,-0.29169315099716187
1761399116633795300,8.74879541015625,-0.578806459903717,1.4172972440719604,-0.4008594751358032
1761399116643876400,8.75887646484375,-0.6186259388923645,1.5708962678909302,-0.5416016578674316
1761399116653944300,8.7689443359375,-0.678413450717926,1.6288352012634277,-0.6908206343650818
1761399116664035800,8.779035888671874,-0.7416650056838989,1.6228398084640503,-0.8117779493331909
1761399116674118400,8.789118408203125,-0.7584187984466553,1.586933970451355,-0.8798091411590576
1761399116684199000,8.799198974609375,-0.6928024291992188,1.4947545528411865,-0.860757052898407
1761399116694280200,8.8092802734375,-0.5172536373138428,1.2496258020401,-0.6776474118232727
1761399116704360400,8.8193603515625,-0.25592055916786194,0.8205212354660034,-0.32390180230140686
1761399116714428000,8.829427978515625,0.03523966297507286,0.4520036280155182,0.09960700571537018
1761399116724502300,8.839502197265626,0.2912934422492981,0.40144237875938416,0.4529029428958893
1761399116734597600,8.84959765625,0.45774921774864197,0.4512375593185425,0.6211240291595459
1761399116744649700,8.859649658203125,0.5081106424331665,0.381191223859787,0.6297340989112854
1761399116754763800,8.869763671875,0.4968692362308502,0.23378752171993256,0.5701297521591187
1761399116764844500,8.879844482421875,0.45738282799720764,0.06549980491399765,0.4784833490848541
1761399116774912300,8.889912353515625,0.35361236333847046,-0.03958633169531822,0.3370583653450012
1761399116785006300,8.90000634765625,0.1657063513994217,-0.003230857430025935,0.16145960986614227
1761399116795074800,8.91007470703125,-0.07494257390499115,0.165506511926651,0.07184494286775589
1761399116805161700,8.92016162109375,-0.35817551612854004,0.4206942915916443,0.02254938706755638
1761399116815248100,8.930248046875,-0.747643768787384,0.6984647512435913,-0.21448564529418945
1761399116825328600,8.94032861328125,-1.2058593034744263,1.0651004314422607,-0.5843188762664795
1761399116835409700,8.95040966796875,-1.512774109840393,1.5012829303741455,-0.8535126447677612
1761399116845489000,8.960489013671875,-1.4618964195251465,1.9266235828399658,-0.9551846981048584
1761399116855576000,8.970576171875,-0.9596479535102844,2.1569972038269043,-0.8516473770141602
1761399116865636600,8.98063671875,-0.06878062337636948,1.963478684425354,-0.4675750434398651
1761399116875732700,8.990732666015624,0.7253608107566833,1.6333650350570679,0.08458518236875534
1761399116885811700,9.000811767578124,0.941994845867157,1.4119846820831299,0.5193520188331604
1761399116895894000,9.01089404296875,0.701678991317749,1.16693913936615,0.7870635390281677
1761399116905974500,9.020974609375,0.21735011041164398,0.966542661190033,0.9152486324310303
1761399116916053200,9.03105322265625,-0.2939247786998749,0.6961665153503418,0.7901278734207153
1761399116926124500,9.04112451171875,-0.7240951061248779,0.5409188270568848,0.47127220034599304
1761399116936205000,9.051205078125,-0.9356996417045593,0.6814278364181519,0.07382676005363464
1761399116946297300,9.06129736328125,-0.8019854426383972,0.9355331063270569,-0.34220442175865173
1761399116956373200,9.071373291015625,-0.41373294591903687,1.2213307619094849,-0.6710690855979919
1761399116966453000,9.081452880859375,0.05747262388467789,1.4695405960083008,-0.7723248600959778
1761399116976537600,9.09153759765625,0.3346935212612152,1.5663163661956787,-0.6124306917190552
1761399116986618400,9.101618408203125,0.3358759582042694,1.5353734493255615,-0.30280131101608276
1761399116996700700,9.11170068359375,0.18449196219444275,1.5794230699539185,-0.003197549842298031
1761399117006782000,9.121781982421876,0.025647012516856194,1.708024501800537,0.12159015983343124
1761399117016843000,9.131843017578126,-0.0985078439116478,1.752873420715332,0.053842075169086456
1761399117026943000,9.14194287109375,-0.20182867348194122,1.7427644729614258,-0.09128005057573318
1761399117037021700,9.152021728515624,-0.26328158378601074,1.7908942699432373,-0.17033614218235016
1761399117047087900,9.162087890625,-0.2574860155582428,1.8323792219161987,-0.13804422318935394
1761399117057172500,9.17217236328125,-0.22474443912506104,1.792609691619873,-0.020184531807899475
1761399117067260200,9.18226025390625,-0.19836466014385223,1.6983152627944946,0.14533862471580505
1761399117077334500,9.19233447265625,-0.19233594834804535,1.6096664667129517,0.31535834074020386
1761399117087424800,9.2024248046875,-0.17942917346954346,1.502681851387024,0.4290212392807007
1761399117097507300,9.21250732421875,-0.17260107398033142,1.3908674716949463,0.4672253131866455
1761399117107570000,9.22256982421875,-0.19338513910770416,1.2800856828689575,0.4175300598144531
1761399117117669000,9.232669189453125,-0.2334710955619812,1.1794794797897339,0.2845153212547302
1761399117127750000,9.24275,-0.27683785557746887,1.1121478080749512,0.12305570393800735
1761399117137831000,9.252830810546875,-0.3149752914905548,1.1003568172454834,-0.027528904378414154
1761399117147899100,9.262899169921875,-0.3471839427947998,1.1516008377075195,-0.1202411949634552
1761399117157970700,9.272970703125,-0.3798922300338745,1.2220802307128906,-0.14340677857398987
1761399117168071000,9.28307080078125,-0.424924373626709,1.2556211948394775,-0.11266366392374039
1761399117178154000,9.293154052734375,-0.4868102967739105,1.2268931865692139,-0.04596477746963501
1761399117188222700,9.30322265625,-0.5419014096260071,1.1452224254608154,0.026529669761657715
1761399117198315300,9.313315185546875,-0.5687308311462402,1.075559139251709,0.06100325286388397
1761399117208398300,9.3233984375,-0.5609368085861206,0.9876598119735718,0.058555129915475845
1761399117218476300,9.333476318359375,-0.5546749830245972,0.9067052006721497,0.03175899758934975
1761399117228557000,9.34355712890625,-0.5842356085777283,0.8388238549232483,-0.011507848277688026
1761399117238612200,9.3536123046875,-0.6251709461212158,0.7684611082077026,-0.069280244410038
1761399117248701200,9.363701171875,-0.6793960332870483,0.7374016046524048,-0.12450459599494934
1761399117258796800,9.373796875,-0.7158181667327881,0.703527569770813,-0.1844586431980133
1761399117268880400,9.38388037109375,-0.7488095164299011,0.6930022835731506,-0.2570696771144867
1761399117278960600,9.393960693359375,-0.7644142508506775,0.6519837379455566,-0.3453187048435211
1761399117289041200,9.404041259765625,-0.7453787922859192,0.5680147409439087,-0.432984858751297
1761399117299119600,9.41411962890625,-0.6757821440696716,0.4545183777809143,-0.514255940914154
1761399117309202400,9.424202392578126,-0.5930122137069702,0.3577258884906769,-0.5617029070854187
1761399117319283500,9.434283447265624,-0.5689306855201721,0.3709324300289154,-0.5309597849845886
1761399117329363700,9.44436376953125,-0.6265698671340942,0.4875597059726715,-0.4417947828769684
1761399117339432000,9.454431884765626,-0.6846086978912354,0.6227561235427856,-0.34923237562179565
1761399117349525800,9.46452587890625,-0.6624757051467896,0.6837093830108643,-0.28030186891555786
1761399117359604000,9.47460400390625,-0.5574395060539246,0.6143292188644409,-0.22650976479053497
1761399117369687000,9.48468701171875,-0.42738914489746094,0.4585985839366913,-0.13174903392791748
1761399117379754500,9.49475439453125,-0.32388514280319214,0.40157559514045715,0.018902182579040527
1761399117389848000,9.50484814453125,-0.25285622477531433,0.40812060236930847,0.16667227447032928
1761399117399928800,9.5149287109375,-0.22377851605415344,0.46580973267555237,0.268960565328598
1761399117409993200,9.5249931640625,-0.22536064684391022,0.5349234342575073,0.3189389407634735
1761399117420090400,9.53509033203125,-0.21849922835826874,0.5750593543052673,0.3435533940792084
1761399117430169600,9.545169677734375,-0.16635584831237793,0.6084004640579224,0.3944477438926697
1761399117440251600,9.555251708984375,-0.06078675389289856,0.5597377419471741,0.480048805475235
1761399117450332200,9.565332275390626,0.11279689520597458,0.3386571407318115,0.5596378445625305
1761399117460413400,9.575413330078124,0.3012858033180237,0.07898946851491928,0.5995739102363586
1761399117470495000,9.585494873046875,0.4690905511379242,-0.03892017528414726,0.6411086916923523
1761399117480561700,9.595561767578126,0.623388946056366,-0.12358862906694412,0.6503849625587463
1761399117490651600,9.605651611328126,0.7880960702896118,-0.34824979305267334,0.6003732681274414
1761399117500723000,9.615722900390624,0.9188792109489441,-0.617293655872345,0.5467976331710815
1761399117510816800,9.625816650390625,0.9054061770439148,-0.8384242057800293,0.5694469809532166
1761399117520897500,9.6358974609375,0.7514408230781555,-1.0440665483474731,0.7468776702880859
1761399117530978000,9.64597802734375,0.650285005569458,-1.179412841796875,1.1133302450180054
1761399117541047600,9.656047607421876,0.6421745419502258,-1.1227896213531494,1.6159616708755493
1761399117551139800,9.666139892578125,0.6524500250816345,-0.850065290927887,2.1805124282836914
1761399117561216500,9.676216552734376,0.6557308435440063,-0.510542094707489,2.7185168266296387
1761399117571301000,9.686301025390625,0.6074678301811218,-0.2873964309692383,3.086451530456543
1761399117581369600,9.69636962890625,0.6145290732383728,-0.1444060057401657,3.215702533721924
1761399117591462100,9.706462158203125,0.6954670548439026,0.010575229302048683,3.100041151046753
1761399117601534700,9.71653466796875,0.7942746877670288,0.028528138995170593,2.785665273666382
1761399117611611100,9.726611083984375,0.8902344703674316,-0.21954843401908875,2.374680280685425
1761399117621683700,9.73668359375,0.9958202242851257,-0.6142959594726562,2.0192859172821045
1761399117631769600,9.74676953125,1.0976089239120483,-0.8591749668121338,1.859558343887329
1761399117641845000,9.756844970703124,1.1304837465286255,-0.9041904807090759,1.8372920751571655
1761399117651947300,9.766947265625,1.0483466386795044,-1.0049965381622314,1.8205715417861938
1761399117662014700,9.7770146484375,0.9019755125045776,-1.2579859495162964,1.7536895275115967
1761399117672108300,9.7871083984375,0.7582689523696899,-1.3919999599456787,1.6027218103408813
1761399117682179000,9.797178955078126,0.7209142446517944,-1.335426688194275,1.3700001239776611
1761399117692269000,9.80726904296875,0.7777206897735596,-1.184625506401062,1.1089003086090088
1761399117702350000,9.81735009765625,0.8486663103103638,-1.089681625366211,0.8927658796310425
1761399117712430600,9.8274306640625,0.8800589442253113,-1.1126307249069214,0.7350866794586182
1761399117722499300,9.837499267578124,0.8681014180183411,-1.202262043952942,0.5949773788452148
1761399117732588000,9.847588134765624,0.8348602652549744,-1.3310799598693848,0.45198696851730347
1761399117742673400,9.85767333984375,0.7987545728683472,-1.450072169303894,0.31362634897232056
1761399117752733200,9.867733154296875,0.7792861461639404,-1.5136067867279053,0.1921694129705429
1761399117762834400,9.87783447265625,0.7987379431724548,-1.5221502780914307,0.09154651314020157
1761399117772915200,9.887915283203125,0.840189516544342,-1.4590486288070679,0.0013656201772391796
1761399117782996200,9.897996337890625,0.78804612159729,-1.3766450881958008,-0.11677718162536621
1761399117793044700,9.908044677734376,0.7279588580131531,-1.401076316833496,-0.2634481191635132
1761399117803131600,9.918131591796875,0.6761319041252136,-1.4406293630599976,-0.4254906177520752
1761399117813209900,9.9282099609375,0.6351799368858337,-1.482663869857788,-0.5715786814689636
1761399117823293700,9.938293701171874,0.5976253747940063,-1.518869400024414,-0.6795958876609802
1761399117833374200,9.948374267578124,0.5521935224533081,-1.5242153406143188,-0.7332714200019836
1761399117843455000,9.958455078125,0.4864272475242615,-1.4891588687896729,-0.7368519902229309
1761399117853535700,9.96853564453125,0.4067383110523224,-1.4415620565414429,-0.7287582159042358
1761399117863604200,9.978604248046874,0.3305966556072235,-1.4016592502593994,-0.7657632231712341
1761399117873685500,9.988685546875,0.27745404839515686,-1.3370920419692993,-0.8709825873374939
1761399117883786800,9.998786865234376,0.25247320532798767,-1.261266827583313,-1.033441424369812
1761399117893856800,10.008856689453125,0.2387503832578659,-1.223046064376831,-1.21048903465271
1761399117903964000,10.0189638671875,0.2334044724702835,-1.2176835536956787,-1.3210543394088745
1761399117914019600,10.02901953125,0.2461780160665512,-1.299687385559082,-1.315325379371643
1761399117924126500,10.03912646484375,0.26626262068748474,-1.3900514841079712,-1.263048768043518
1761399117934180900,10.049180908203125,0.2584519386291504,-1.4390639066696167,-1.2767382860183716
1761399117944287200,10.059287353515625,0.23566940426826477,-1.5310267210006714,-1.3552948236465454
1761399117954368500,10.069368408203125,0.20579230785369873,-1.7131205797195435,-1.4211276769638062
1761399117964448300,10.0794482421875,0.13276493549346924,-1.9467415809631348,-1.4549684524536133
1761399117974529500,10.089529541015626,0.08879861980676651,-2.1909544467926025,-1.4740371704101562
1761399117984609500,10.099609619140624,0.11016558110713959,-2.4104862213134766,-1.4918568134307861
1761399117994691300,10.10969140625,0.046580970287323,-2.385805130004883,-1.5300109386444092
1761399118004771600,10.119771484375,-0.10190524160861969,-2.317274332046509,-1.616094946861267
1761399118014851800,10.129851806640625,-0.3768278956413269,-2.040952682495117,-1.686457633972168
1761399118024903000,10.13990283203125,-0.572361409664154,-1.6603610515594482,-1.6541324853897095
1761399118034989600,10.149989501953126,-0.5770744681358337,-1.1562306880950928,-1.4812815189361572
1761399118045094700,10.1600947265625,-0.3784933090209961,-0.6840591430664062,-1.1986981630325317
1761399118055174700,10.170174560546876,-0.08521803468465805,-0.6672720313072205,-0.9494391083717346
1761399118065255700,10.180255615234374,0.21453560888767242,-1.2344707250595093,-0.6881393194198608
1761399118075336700,10.190336669921875,0.3833395838737488,-2.263298988342285,-0.44690755009651184
1761399118085417200,10.200417236328125,0.26836103200912476,-2.956118106842041,-0.014205780811607838
1761399118095497500,10.21049755859375,0.5017654895782471,-1.9085041284561157,0.519951581954956
1761399118105578000,10.220577880859375,1.0635184049606323,-0.37845999002456665,0.3977119028568268
1761399118115659000,10.230658935546876,1.2972393035888672,-1.0128238201141357,0.3533792197704315
1761399118125739500,10.240739501953126,1.2593183517456055,-1.9931893348693848,0.7841824293136597
1761399118135831000,10.2508310546875,1.1789132356643677,-1.8997108936309814,1.009493112564087
1761399118145901800,10.26090185546875,1.0544419288635254,-1.3493160009384155,0.6190422773361206
1761399118155960300,10.270960205078126,0.9274226427078247,-1.1551814079284668,-0.41608116030693054
1761399118166062300,10.281062255859375,0.6524999737739563,-1.464461088180542,-1.5215007066726685
1761399118176143400,10.291143310546875,0.09259571135044098,-1.6010231971740723,-2.2274763584136963
1761399118186223900,10.301223876953125,-0.3628719449043274,-1.6072850227355957,-2.54443359375
1761399118196304400,10.311304443359376,-0.4325019121170044,-1.6897717714309692,-2.5218842029571533
1761399118206386200,10.32138623046875,-0.10556910187005997,-1.7521406412124634,-2.246845006942749
1761399118216466000,10.3314658203125,0.4530028700828552,-1.715968370437622,-1.928788661956787
1761399118226546700,10.341546630859375,0.9505215883255005,-1.8031182289123535,-1.6512845754623413
1761399118236628000,10.3516279296875,1.1626757383346558,-2.0715625286102295,-1.4572666883468628
1761399118246682000,10.36168212890625,1.051544189453125,-2.19212007522583,-1.4761521816253662
1761399118256762600,10.3717626953125,0.7312229871749878,-2.176165819168091,-1.713220477104187
1761399118266869500,10.381869384765626,0.336225688457489,-2.126553773880005,-2.00065016746521
1761399118276927700,10.391927734375,0.06929689645767212,-2.130084276199341,-2.1754496097564697
1761399118287031000,10.402031005859374,-0.02316558174788952,-2.1349306106567383,-2.1768651008605957
1761399118297104600,10.412104736328125,0.011957503855228424,-2.123739242553711,-2.0174872875213623
1761399118307192300,10.4221923828125,0.14135834574699402,-2.165274143218994,-1.7969563007354736
1761399118317272800,10.43227294921875,0.31042879819869995,-2.2723920345306396,-1.6021056175231934
1761399118327353600,10.442353515625,0.4390968680381775,-2.3468849658966064,-1.4810150861740112
1761399118337435400,10.452435302734376,0.4782501757144928,-2.356027841567993,-1.4634451866149902
1761399118347515100,10.46251513671875,0.4416781961917877,-2.32789945602417,-1.5587555170059204
1761399118367676700,10.4826767578125,0.19833135604858398,-2.286031484603882,-1.870949625968933
1761399118377757700,10.4927578125,0.058804936707019806,-2.3184900283813477,-1.9412790536880493
1761399118387838000,10.502837890625,-0.03282484784722328,-2.3744304180145264,-1.9292216300964355
1761399118397920000,10.512919921875,-0.06631585210561752,-2.413533926010132,-1.8592585325241089
1761399118407998500,10.52299853515625,-0.052376531064510345,-2.3939321041107178,-1.75445556640625
1761399118418055200,10.53305517578125,0.0018319295486435294,-2.288512945175171,-1.6507683992385864
1761399118428158200,10.543158203125,0.07167840749025345,-2.118626594543457,-1.5437836647033691
1761399118438242600,10.55324267578125,0.09562671929597855,-1.9192126989364624,-1.4242419004440308
1761399118448318500,10.563318359375,0.04624789208173752,-1.7916769981384277,-1.297572374343872
1761399118458382800,10.5733828125,-0.012040773406624794,-1.7565206289291382,-1.1742501258850098
1761399118468483600,10.583483642578125,-0.007677450310438871,-1.7371021509170532,-1.0770413875579834
1761399118478564900,10.59356494140625,0.012074081227183342,-1.7428644895553589,-1.0100759267807007
1761399118488644900,10.603644775390626,0.02892783284187317,-1.7678120136260986,-0.9632951617240906
1761399118498726100,10.61372607421875,0.003264165250584483,-1.8162249326705933,-0.9342174530029297
1761399118508806400,10.623806396484374,-0.03632216528058052,-1.8947813510894775,-0.916397750377655
1761399118518863400,10.63386328125,-0.06170271709561348,-1.950305461883545,-0.8935985565185547
1761399118539048400,10.65404833984375,-0.024331355467438698,-1.9157320261001587,-0.8181730508804321
1761399118549129200,10.664129150390625,-0.022232962772250175,-1.7869973182678223,-0.758335530757904
1761399118559209700,10.674209716796875,-0.06170271709561348,-1.6809618473052979,-0.6872900128364563
1761399118569292000,10.6842919921875,-0.11775976419448853,-1.594961166381836,-0.6214737892150879
1761399118579367700,10.69436767578125,-0.16199253499507904,-1.4746533632278442,-0.5824370384216309
1761399118589452800,10.704452880859375,-0.17801359295845032,-1.3786269426345825,-0.5808049440383911
1761399118599532800,10.71453271484375,-0.23518644273281097,-1.3356764316558838,-0.6009061932563782
1761399118609614000,10.724614013671875,-0.2951071858406067,-1.3150089979171753,-0.620924174785614
1761399118619687400,10.7346875,-0.3512974679470062,-1.358392357826233,-0.6264366507530212
1761399118629774800,10.74477490234375,-0.38207387924194336,-1.4593983888626099,-0.6296841502189636
1761399118639851500,10.7548515625,-0.3705660402774811,-1.5865509510040283,-0.657562792301178
1761399118649936400,10.764936279296874,-0.3249509930610657,-1.7039443254470825,-0.7248445749282837
1761399118660017000,10.775016845703124,-0.2206975519657135,-1.790411353111267,-0.8138929605484009
1761399118670097700,10.78509765625,-0.07272760570049286,-1.9054898023605347,-0.8883192539215088
1761399118680154600,10.795154541015625,0.017086906358599663,-2.0762922763824463,-0.9354165196418762
1761399118690259200,10.80525927734375,0.003946975339204073,-2.3088808059692383,-0.9699733853340149
1761399118700340500,10.815340576171875,-0.014372319914400578,-2.535573720932007,-0.9595980048179626
1761399118710388700,10.825388671875,-0.01450555119663477,-2.7596518993377686,-0.8753292560577393
1761399118720501500,10.83550146484375,0.036638591438531876,-2.9475746154785156,-0.7381843328475952
1761399118730582000,10.84558203125,0.019318530336022377,-2.998835325241089,-0.5425176024436951
1761399118740662500,10.85566259765625,-0.05196018144488335,-2.9597818851470947,-0.2741565704345703
1761399118750744000,10.865744140625,-0.06813112646341324,-2.8486671447753906,0.059687595814466476
1761399118760824000,10.875823974609375,-0.01227392815053463,-2.7616004943847656,0.4198615849018097
1761399118770900700,10.885900634765624,0.11879230290651321,-2.715019464492798,0.7528231143951416
1761399118780985300,10.8959853515625,0.3324785530567169,-2.6812119483947754,1.016487717628479
1761399118791066400,10.90606640625,0.6197417378425598,-2.615778923034668,1.1621594429016113
1761399118801147400,10.9161474609375,0.8884358406066895,-2.4323360919952393,1.1749995946884155
1761399118811227400,10.926227294921874,1.0915968418121338,-2.2160184383392334,1.0777407884597778
1761399118821309000,10.936308837890625,1.2295078039169312,-2.062636137008667,0.9068883657455444
1761399118831389200,10.94638916015625,1.305866003036499,-2.004913568496704,0.695766806602478
1761399118841466000,10.956466064453124,1.3376415967941284,-2.07958984375,0.5002166628837585
1761399118851539200,10.966539306640625,1.3327953815460205,-2.2937090396881104,0.3401726484298706
1761399118861631200,10.97663134765625,1.3200217485427856,-2.525364875793457,0.21630091965198517
1761399118871730000,10.98672998046875,1.355944275856018,-2.724362373352051,0.09605972468852997
1761399118881792800,10.996792724609374,1.475219488143921,-2.7412161827087402,-0.03882025182247162
1761399118891873000,11.006873046875,1.6251046657562256,-2.541785478591919,-0.18289318680763245
1761399118901929500,11.016929443359375,1.7166345119476318,-2.2511916160583496,-0.2912101745605469
1761399118912034600,11.02703466796875,1.7032947540283203,-1.9715725183486938,-0.3446692228317261
1761399118922091000,11.037091064453126,1.6270365715026855,-1.7337048053741455,-0.32778215408325195
1761399118932197000,11.047197021484376,1.563118815422058,-1.5763087272644043,-0.240265890955925
1761399118942277400,11.05727734375,1.5354900360107422,-1.5381546020507812,-0.12640313804149628
1761399118952358100,11.067358154296874,1.5255810022354126,-1.5618197917938232,-0.055424194782972336
1761399118962434600,11.0774345703125,1.5209511518478394,-1.5851519107818604,-0.07114548236131668
1761399118972519400,11.08751953125,1.5852352380752563,-1.6632421016693115,-0.18409226834774017
1761399118982574600,11.09757470703125,1.6770482063293457,-1.9523872137069702,-0.4193786382675171
1761399118992696600,11.107696533203125,1.7268767356872559,-2.283433437347412,-0.6857411861419678
1761399119002762000,11.117761962890626,1.7315231561660767,-2.4557015895843506,-0.8412386775016785
1761399119012841700,11.127841796875,1.7477940320968628,-2.4730215072631836,-0.845268964767456
1761399119022923300,11.13792333984375,1.7805522680282593,-2.3739142417907715,-0.724378228187561
1761399119032999200,11.147999267578125,1.7890124320983887,-2.435333728790283,-0.6811280250549316
1761399119043084800,11.158084716796875,1.8175239562988281,-2.6358468532562256,-0.7959234118461609
1761399119053164500,11.16816455078125,1.8800593614578247,-2.687457323074341,-0.9420447945594788
1761399119063245000,11.1782451171875,1.9607974290847778,-2.566999673843384,-1.060187578201294
1761399119073326800,11.188326904296876,2.019219398498535,-2.456650733947754,-1.1572299003601074
1761399119083406600,11.198406494140626,2.0655505657196045,-2.3838233947753906,-1.2319059371948242
1761399119093483800,11.20848388671875,2.0696141719818115,-2.3022191524505615,-1.2838661670684814
1761399119103569200,11.218569091796875,2.0284955501556396,-2.2118051052093506,-1.3245183229446411
1761399119113648600,11.228648681640625,1.9585990905761719,-2.117543935775757,-1.3618897199630737
1761399119123730400,11.23873046875,1.8445032835006714,-2.036855936050415,-1.3944981098175049
1761399119133779000,11.248779052734376,1.703144907951355,-1.971938967704773,-1.402658462524414
1761399119143865000,11.258864990234375,1.5293947458267212,-1.8868041038513184,-1.3735973834991455
1761399119153946400,11.2689462890625,1.3497823476791382,-1.7457455396652222,-1.3050498962402344
1761399119164048600,11.279048583984375,1.1540323495864868,-1.585418462753296,-1.2201817035675049
1761399119174133000,11.289133056640624,0.9727545976638794,-1.4713225364685059,-1.1328818798065186
1761399119184192300,11.299192138671875,0.8276990652084351,-1.4022421836853027,-1.058255672454834
1761399119194294500,11.30929443359375,0.7147689461708069,-1.3161747455596924,-0.9755857586860657
1761399119204375000,11.319375,0.613246738910675,-1.261549949645996,-0.8962132334709167
1761399119214456000,11.3294560546875,0.37742745876312256,-1.200413465499878,-0.8844389319419861
1761399119224514800,11.339514892578125,0.15431508421897888,-0.9234090447425842,-0.835376501083374
1761399119234593000,11.349593017578124,0.07479268312454224,-0.8541288375854492,-0.8674352765083313
1761399119244698000,11.359697998046874,0.009076378308236599,-0.7262601256370544,-0.9384974837303162
1761399119254778600,11.369778564453124,-0.1334310919046402,-0.5260635614395142,-1.0261470079421997
1761399119264860000,11.37985986328125,-0.325450599193573,-0.2620824873447418,-1.0740103721618652
1761399119274940200,11.389940185546875,-0.4862940311431885,-0.02609666809439659,-1.0319591760635376
1761399119285022200,11.400022216796875,-0.549712061882019,0.045481812208890915,-0.8685677647590637
1761399119305160700,11.42016064453125,-0.5297273993492126,-0.07719084620475769,-0.45100438594818115
1761399119315263000,11.430262939453126,-0.5026148557662964,-0.048779286444187164,-0.4256404936313629
1761399119325343500,11.440343505859374,-0.29299214482307434,-0.13348104059696198,-0.502315104007721
1761399119335424800,11.4504248046875,0.00003330780964461155,-0.2654632329940796,-0.5760252475738525
1761399119345522700,11.460522705078125,0.2660794258117676,-0.31271037459373474,-0.5849517583847046
1761399119355586600,11.470586669921875,0.4524866044521332,-0.26647913455963135,-0.5802220702171326
1761399119365666600,11.48066650390625,0.5617528557777405,-0.2579689919948578,-0.6432904005050659
1761399119375747300,11.490747314453126,0.5940780639648438,-0.28821247816085815,-0.7488594651222229
1761399119385827800,11.500827880859376,0.48106470704078674,-0.24158154428005219,-0.871881902217865
1761399119395883500,11.510883544921874,0.12147358059883118,-0.2047264575958252,-1.1855748891830444
1761399119405994200,11.520994140625,-0.4036406874656677,-0.020484302192926407,-1.491207242012024
1761399119426151000,11.54115087890625,-1.1539324522018433,0.5287615060806274,-1.4121012687683105
1761399119436232200,11.551232177734375,-1.0396533012390137,0.02166672982275486,-0.8911171555519104
1761399119446308000,11.56130810546875,-0.6193420886993408,-0.647820234298706,-0.2682444453239441
1761399119456367600,11.57136767578125,-0.25532102584838867,-1.1316494941711426,0.19818146526813507
1761399119466474500,11.581474609375,0.08403560519218445,-1.2412821054458618,0.3781602084636688
1761399119476556000,11.59155615234375,0.37129881978034973,-0.7770711779594421,0.2304733842611313
1761399119486620400,11.601620361328125,0.34118854999542236,-0.3855046033859253,-0.18768951296806335
1761399119496690400,11.6116904296875,-0.09659264981746674,-0.274273157119751,-0.5576393604278564
1761399119506771500,11.621771484375,-0.6315826773643494,-0.3233188986778259,-0.8054994344711304
1761399119516851500,11.6318515625,-1.0117746591567993,-0.7598677277565002,-0.820221483707428
1761399119526932700,11.6419326171875,-1.20933997631073,-1.5476973056793213,-0.536272406578064
1761399119537004300,11.65200439453125,-1.1952674388885498,-2.255321741104126,-0.18422549962997437
1761399119547088400,11.66208837890625,-0.781317949295044,-2.2663965225219727,0.15371553599834442
1761399119557184300,11.672184326171875,-0.002448124112561345,-1.357243299484253,0.3258835971355438
1761399119567264500,11.682264404296875,0.5109751224517822,-0.3388569951057434,0.1698032170534134
1761399119577353200,11.692353271484375,0.5124906301498413,0.1504347175359726,-0.27037614583969116
1761399119587436000,11.70243603515625,0.18072818219661713,0.35832542181015015,-0.7904609441757202
1761399119597521000,11.71252099609375,-0.2178497314453125,0.2620658576488495,-1.1892386674880981
1761399119607604000,11.72260400390625,-0.5407856106758118,0.08178732544183731,-1.3038175106048584
1761399119617671400,11.73267138671875,-0.7077410221099854,-0.19703234732151031,-1.0873334407806396
1761399119627765500,11.742765625,-0.7541720867156982,-0.41220080852508545,-0.6868403553962708
1761399119637845800,11.752845703125,-0.7018621563911438,-0.2561037540435791,-0.4518704116344452
1761399119647926500,11.762926513671875,-0.5898646712303162,-0.012756891548633575,-0.5074445009231567
1761399119658013000,11.773012939453125,-0.4850616455078125,0.04641443118453026,-0.648169994354248
1761399119668086000,11.7830859375,-0.5844188332557678,-0.11666060239076614,-0.6707859635353088
1761399119678168800,11.7931689453125,-0.6616096496582031,-0.2465277463197708,-0.6818275451660156
1761399119688248800,11.803248779296876,-0.5748594999313354,-0.21323660016059875,-0.7580357789993286
1761399119698317800,11.81331787109375,-0.4438098967075348,-0.1301669180393219,-0.8119778037071228
1761399119718486000,11.833486083984376,-0.24734379351139069,0.015521439723670483,-0.8848053216934204
1761399119728570000,11.843570068359375,-0.18227699398994446,0.05925459414720535,-0.8787266612052917
1761399119738635000,11.853635009765625,-0.13887691497802734,0.12137366086244583,-0.8454854488372803
1761399119748720600,11.863720703125,-0.12680283188819885,0.11860910803079605,-0.7938416600227356
1761399119758814000,11.87381396484375,-0.1593945175409317,0.11666060239076614,-0.7888954877853394
1761399119768883700,11.8838837890625,-0.22259609401226044,0.03845386579632759,-0.8104622960090637
1761399119778966000,11.893966064453124,-0.23113954067230225,-0.01690371334552765,-0.8015024662017822
1761399119789047300,11.90404736328125,-0.1894548237323761,-0.042267609387636185,-0.7453621625900269
1761399119799134700,11.914134765625,-0.16865409910678864,-0.15208345651626587,-0.5916299819946289
1761399119809218300,11.92421826171875,-0.18918836116790771,-0.30541595816612244,-0.4718051254749298
1761399119819284500,11.934284423828124,-0.29077717661857605,-0.4323020577430725,-0.43523314595222473
1761399119829379000,11.944379150390626,-0.3406389653682709,-0.3635714054107666,-0.37616175413131714
1761399119839447300,11.954447265625,-0.3733472526073456,-0.24795998632907867,-0.25640350580215454
1761399119849540600,11.96454052734375,-0.37811025977134705,-0.1605103313922882,-0.10007331520318985
1761399119859619600,11.97461962890625,-0.33549290895462036,-0.14095865190029144,0.029993683099746704
1761399119869702000,11.984701904296875,-0.29618969559669495,-0.16940352320671082,0.05780570209026337
1761399119879773700,11.994773681640625,-0.2719249725341797,-0.196665957570076,-0.043599922209978104
1761399119889851400,12.004851318359375,-0.1829930990934372,-0.22622664272785187,-0.19619965553283691
1761399119899944000,12.01494384765625,-0.12182331085205078,-0.21265371143817902,-0.31805628538131714
1761399119910013200,12.02501318359375,-0.19491730630397797,-0.2173667699098587,-0.4063552916049957
1761399119920091000,12.0350908203125,-0.26934361457824707,-0.09197951853275299,-0.4370151162147522
1761399119930186500,12.0451865234375,-0.3611565828323364,0.00634513795375824,-0.45691654086112976
1761399119940254200,12.055254150390626,-0.48128119111061096,0.12542055547237396,-0.5102922916412354
1761399119950347800,12.06534765625,-0.4953204393386841,0.13930991291999817,-0.5011159777641296
1761399119960415700,12.075415771484375,-0.5529096126556396,0.11189758777618408,-0.3971123695373535
1761399119970510300,12.08551025390625,-0.5727943778038025,0.10303770750761032,-0.32839834690093994
1761399119980588000,12.095588134765626,-0.5131234526634216,0.0767078846693039,-0.27973562479019165
1761399119990666200,12.105666259765625,-0.42024463415145874,0.10053962469100952,-0.192019522190094
1761399120000750300,12.115750244140624,-0.35069793462753296,0.07314395159482956,-0.149468794465065
1761399120020900400,12.135900390625,-0.1145455539226532,0.06806451082229614,-0.01014222763478756
1761399120030980000,12.14597998046875,0.05037806183099747,0.0827532559633255,0.10650172084569931
1761399120041074000,12.156073974609376,0.24591155350208282,0.06140294671058655,0.23195558786392212
1761399120051126000,12.1661259765625,0.48669371008872986,-0.09824138134717941,0.33028024435043335
1761399120061223000,12.176222900390625,0.7982383370399475,-0.29598984122276306,0.4258570075035095
1761399120071316000,12.18631591796875,1.0541589260101318,-0.5002666711807251,0.5639012455940247
1761399120081396700,12.196396728515625,1.208657145500183,-0.6814611554145813,0.7345870733261108
1761399120091461000,12.206461181640625,1.2777374982833862,-0.8345937728881836,0.8960633277893066
1761399120101558000,12.21655810546875,1.284066081047058,-1.0099260807037354,1.0711791515350342
1761399120111639600,12.2266396484375,1.2405660152435303,-1.1661564111709595,1.3075146675109863
1761399120121693400,12.236693359375,1.1371285915374756,-1.335776448249817,1.6017892360687256
1761399120131800600,12.246800537109374,1.016471028327942,-1.4571501016616821,1.926390528678894
1761399120141881000,12.256881103515624,0.8730642795562744,-1.3970128297805786,2.243647336959839
1761399120151946500,12.266946533203125,0.6946343779563904,-1.1516507863998413,2.4982357025146484
1761399120162022700,12.277022705078124,0.5306600332260132,-0.9270562529563904,2.585452079772949
1761399120172123100,12.287123046875,0.47889968752861023,-0.6801787614822388,2.4472079277038574
1761399120182202400,12.297202392578125,0.5413018465042114,-0.5109917521476746,2.1805789470672607
1761399120192275700,12.307275634765626,0.6717352271080017,-0.4159312844276428,1.886737585067749
1761399120202365200,12.317365234375,0.8783102631568909,-0.4003099203109741,1.6168943643569946
1761399120212446000,12.327446044921874,1.0618196725845337,-0.5005497336387634,1.3577262163162231
1761399120222527200,12.33752734375,1.183109998703003,-0.7141860723495483,1.0857512950897217
1761399120232591400,12.34759130859375,1.2020955085754395,-1.0109586715698242,0.8131102323532104
1761399120242686500,12.3576865234375,1.2444796562194824,-1.2819010019302368,0.5385539531707764
1761399120252768800,12.367768798828125,1.352030634880066,-1.5204015970230103,0.2777538299560547
1761399120262856200,12.377856201171875,1.4125674962997437,-1.716567873954773,0.04851282387971878
1761399120272930300,12.387930419921876,1.3834398984909058,-1.8504819869995117,-0.1383606344461441
1761399120283010800,12.3980107421875,1.2803188562393188,-2.00028395652771,-0.3402559161186218
1761399120293091800,12.408091796875,1.1761987209320068,-2.1146295070648193,-0.5519437193870544
1761399120303164200,12.4181640625,1.1288683414459229,-2.2092902660369873,-0.7449458241462708
1761399120313251600,12.42825146484375,1.0868338346481323,-2.22527813911438,-0.8765283226966858
1761399120323317000,12.43831689453125,1.0100094079971313,-2.084019660949707,-0.9105855822563171
1761399120333392000,12.448391845703124,0.8989611268043518,-1.822453498840332,-0.8760453462600708
1761399120343495700,12.45849560546875,0.7714921236038208,-1.5783072710037231,-0.8332781195640564
1761399120353576200,12.468576171875,0.6647239327430725,-1.4440101385116577,-0.8282486200332642
1761399120363645700,12.478645751953126,0.6365622282028198,-1.3438868522644043,-0.8357595801353455
1761399120373723100,12.48872314453125,0.5934951901435852,-1.2312564849853516,-0.8585087656974792
1761399120383818000,12.49881787109375,0.5829366445541382,-1.1988646984100342,-0.8987279534339905
1761399120393899300,12.508899169921875,0.5781569480895996,-1.1836596727371216,-0.9264900088310242
1761399120403979500,12.5189794921875,0.5378211736679077,-1.2182165384292603,-0.9495223760604858
1761399120414053600,12.5290537109375,0.49105703830718994,-1.2686444520950317,-0.9531862139701843
1761399120424127700,12.539127685546875,0.4388803541660309,-1.2985715866088867,-0.9395800232887268
1761399120434209800,12.549209716796875,0.3637046217918396,-1.306482195854187,-0.9426276683807373
1761399120444300800,12.55930078125,0.27322396636009216,-1.2158349752426147,-0.9097362160682678
1761399120454383000,12.569383056640625,0.1868901252746582,-1.0579559803009033,-0.8200715780258179
1761399120464464400,12.57946435546875,0.13376416265964508,-0.9272227883338928,-0.7219134569168091
1761399120474523100,12.589523193359375,0.11131469905376434,-0.7774708867073059,-0.6361125707626343
1761399120484625200,12.599625244140626,0.10438667237758636,-0.6522501707077026,-0.5837026834487915
1761399120494706000,12.609705810546876,0.08092132210731506,-0.5257138013839722,-0.5664992332458496
1761399120504773600,12.619773681640625,0.03355761989951134,-0.3564934730529785,-0.5710790753364563
1761399120514867500,12.629867431640625,0.019185299053788185,-0.20475976169109344,-0.5664992332458496
1761399120524947700,12.63994775390625,0.05958767235279083,-0.17861312627792358,-0.5339741706848145
1761399120535029800,12.65002978515625,0.15028484165668488,-0.2626986801624298,-0.48454535007476807
1761399120545098000,12.660097900390625,0.21933192014694214,-0.36375460028648376,-0.44975534081459045
1761399120555165200,12.670165283203126,0.2853313386440277,-0.44769027829170227,-0.47573545575141907
1761399120565245700,12.68024560546875,0.35444507002830505,-0.5183860659599304,-0.5719117522239685
1761399120575326500,12.690326416015624,0.42061102390289307,-0.5839358568191528,-0.6861075758934021
1761399120585432600,12.7004326171875,0.5186525583267212,-0.596376359462738,-0.7673786282539368
1761399120595511800,12.71051171875,0.47919946908950806,-0.6386772394180298,-0.7964563369750977
1761399120605591600,12.720591552734374,0.4048064649105072,-0.6258537173271179,-0.7921429872512817
1761399120615673300,12.73067333984375,0.4299538731575012,-0.615228533744812,-0.7473106980323792
1761399120625742800,12.740742919921875,0.5802220702171326,-0.6543485522270203,-0.6363290548324585
1761399120635834600,12.750834716796875,0.8092299103736877,-0.7254440784454346,-0.5168706178665161
1761399120645897500,12.7608974609375,1.0498955249786377,-0.7949075102806091,-0.43899694085121155
1761399120655997400,12.77099755859375,1.2563872337341309,-0.8392235636711121,-0.4215936064720154
1761399120666078000,12.781077880859375,1.357859492301941,-0.8427375555038452,-0.445991575717926
1761399120676167400,12.79116748046875,1.2808018922805786,-0.8068317174911499,-0.488592267036438
1761399120686225200,12.80122509765625,1.0384875535964966,-0.7264100313186646,-0.5408521890640259
1761399120696318200,12.811318115234375,0.7242949604988098,-0.5451322793960571,-0.6508678793907166
1761399120706400000,12.82139990234375,0.4131167531013489,-0.40457332134246826,-0.8254840970039368
