time,seconds_elapsed,z,y,x
1761399108014767400,0.129767333984375,0.05072714760899544,-9.347038269042969,-2.7953052520751953
1761399108024848000,0.139847900390625,0.04436755180358887,-9.323395729064941,-2.841468572616577
1761399108034928600,0.1499287109375,0.0496048666536808,-9.314716339111328,-2.9030444622039795
1761399108045009000,0.1600087890625,0.08656535297632217,-9.264886856079102,-2.9501054286956787
1761399108055123200,0.170123291015625,0.09397241473197937,-9.230694770812988,-2.9713540077209473
1761399108065195800,0.18019580078125,0.07983165979385376,-9.248202323913574,-2.936413526535034
1761399108075251200,0.190251220703125,0.06756138056516647,-9.241618156433105,-2.843787908554077
1761399108085356800,0.200356689453125,0.03621229901909828,-9.246257781982422,-2.832864284515381
1761399108095437800,0.210437744140625,0.03321954980492592,-9.247754096984863,-2.836904525756836
1761399108105496600,0.22049658203125,0.031199440360069275,-9.268927574157715,-2.8746132850646973
1761399108115599400,0.230599365234375,0.042197804898023605,-9.307234764099121,-2.8627917766571045
1761399108125679900,0.240679931640625,0.06890811771154404,-9.342848777770996,-2.8358571529388428
1761399108135761200,0.25076123046875,0.12277765572071075,-9.337685585021973,-2.793060779571533
1761399108145841400,0.26084130859375,0.15502455830574036,-9.356465339660645,-2.757596731185913
1761399108155903700,0.27090380859375,0.17313070595264435,-9.344195365905762,-2.784531354904175
1761399108166003000,0.2810029296875,0.16684593260288239,-9.296086311340332,-2.82171630859375
1761399108176058400,0.291058349609375,0.1503857970237732,-9.3119478225708,-2.8470799922943115
1761399108186163200,0.3011630859375,0.09030629694461823,-9.367688179016113,-2.8259809017181396
1761399108196245000,0.311244873046875,0.06501753628253937,-9.420286178588867,-2.817002773284912
1761399108206305500,0.321305419921875,0.029403788968920708,-9.435848236083984,-2.8367550373077393
1761399108216407000,0.331406982421875,-0.05753565952181816,-9.376068115234375,-2.846331834793091
1761399108226464800,0.34146484375,-0.08447042852640152,-9.317185401916504,-2.8296470642089844
1761399108236568300,0.351568359375,-0.08387187868356705,-9.27221965789795,-2.787898302078247
1761399108246661400,0.361661376953125,-0.10811316967010498,-9.270873069763184,-2.8026375770568848
1761399108256703500,0.371703369140625,-0.021772271022200584,-9.315988540649414,-2.8844892978668213
1761399108266810400,0.381810302734375,0.03770867735147476,-9.351901054382324,-3.0288896560668945
1761399108276883200,0.39188330078125,0.08626607805490494,-9.303269386291504,-3.107224941253662
1761399108286972400,0.401972412109375,0.13123218715190887,-9.215058326721191,-3.1583261489868164
1761399108297052700,0.412052734375,0.21697452664375305,-9.096619606018066,-3.146804094314575
1761399108307091700,0.422091796875,0.22348377108573914,-9.062726974487305,-3.230152130126953
1761399108317213700,0.432213623046875,0.19737200438976288,-9.113603591918945,-3.3685669898986816
1761399108327274800,0.442274658203125,0.12494739890098572,-9.19897174835205,-3.5376574993133545
1761399108337375200,0.452375244140625,0.04750993847846985,-9.23099422454834,-3.6634278297424316
1761399108347455500,0.46245556640625,-0.023044191300868988,-9.189470291137695,-3.677194595336914
1761399108357511200,0.47251123046875,-0.0545429065823555,-9.098565101623535,-3.6297593116760254
1761399108367636000,0.482635986328125,-0.03134907782077789,-9.05487060546875,-3.5678093433380127
1761399108377684000,0.49268408203125,0.018405426293611526,-9.065345764160156,-3.5615246295928955
1761399108387779000,0.502779052734375,0.07653963565826416,-9.103353500366211,-3.614346742630005
1761399108397860000,0.512860107421875,0.08776245266199112,-9.056292533874512,-3.664325714111328
1761399108407922200,0.522922119140625,0.1074398010969162,-8.972270965576172,-3.71976637840271
1761399108418017800,0.533017822265625,0.10586860775947571,-8.88757610321045,-3.8284032344818115
1761399108428076000,0.543075927734375,0.12666822969913483,-8.811784744262695,-3.9000048637390137
1761399108438179800,0.553179931640625,0.15352818369865417,-8.800786018371582,-3.9753475189208984
1761399108448262700,0.5632626953125,0.1487397849559784,-8.814178466796875,-3.99300479888916
1761399108458343400,0.573343505859375,0.1437269151210785,-8.822408676147461,-3.998990297317505
1761399108468420000,0.583420166015625,0.15188217163085938,-8.787169456481934,-3.9844753742218018
1761399108478479600,0.593479736328125,0.15973813831806183,-8.79345417022705,-3.9723546504974365
1761399108488585000,0.6035849609375,0.17537526786327362,-8.869245529174805,-3.9729533195495605
1761399108498647000,0.61364697265625,0.17963995039463043,-8.902838706970215,-4.013280391693115
1761399108508726800,0.623726806640625,0.17148469388484955,-8.873510360717773,-4.083535671234131
1761399108518828800,0.633828857421875,0.1355716735124588,-8.872986793518066,-4.136956214904785
1761399108528904200,0.643904296875,0.010399813763797283,-8.890942573547363,-4.1885809898376465
1761399108538988800,0.65398876953125,-0.07534253597259521,-8.886453628540039,-4.140323162078857
1761399108549044500,0.66404443359375,-0.15936404466629028,-8.844630241394043,-4.065279483795166
1761399108559123200,0.674123291015625,-0.22931963205337524,-8.828319549560547,-3.9787142276763916
1761399108569205000,0.684205078125,-0.2808697819709778,-8.87829875946045,-3.915492534637451
1761399108579302700,0.694302734375,-0.3150619864463806,-8.974141120910645,-3.8720974922180176
1761399108589393200,0.70439306640625,-0.3569605052471161,-9.050456047058105,-3.8836944103240967
1761399108599466500,0.714466552734375,-0.3924994468688965,-9.04566764831543,-3.835735559463501
1761399108609553700,0.7245537109375,-0.4406079351902008,-8.992621421813965,-3.801393747329712
1761399108619609600,0.734609619140625,-0.4356698989868164,-8.927903175354004,-3.7612907886505127
1761399108629708300,0.744708251953125,-0.4415057599544525,-8.969876289367676,-3.765929698944092
1761399108639770400,0.754770263671875,-0.4263923466205597,-9.026365280151367,-3.8132898807525635
1761399108649877000,0.764876953125,-0.41053077578544617,-9.01551628112793,-3.868431329727173
1761399108659917800,0.774917724609375,-0.3596539795398712,-8.99396800994873,-3.9764697551727295
1761399108670038500,0.78503857421875,-0.3544166684150696,-8.99583911895752,-4.128576278686523
1761399108680119800,0.795119873046875,-0.3919757008552551,-8.991349220275879,-4.235716819763184
1761399108690214100,0.805214111328125,-0.40297406911849976,-8.900818824768066,-4.318690776824951
1761399108700283000,0.815282958984375,-0.3602525293827057,-8.78193187713623,-4.385354518890381
1761399108710337000,0.8253369140625,-0.32381579279899597,-8.78499984741211,-4.538733005523682
1761399108720427800,0.835427734375,-0.27907413244247437,-8.843807220458984,-4.710068225860596
1761399108730522400,0.8455224609375,-0.2510918974876404,-8.906729698181152,-4.865092754364014
1761399108740617000,0.855616943359375,-0.23687632381916046,-8.938078880310059,-4.914024353027344
1761399108750665500,0.86566552734375,-0.16220717132091522,-8.954837799072266,-4.900482177734375
1761399108760783400,0.875783447265625,-0.0736217051744461,-9.009679794311523,-4.842647075653076
1761399108770846000,0.885845947265625,-0.05439326912164688,-9.09721851348877,-4.771120071411133
1761399108780926500,0.895926513671875,-0.09569324553012848,-9.136198997497559,-4.6396636962890625
1761399108791025000,0.90602490234375,-0.12038345634937286,-9.06983470916748,-4.46750545501709
1761399108801087200,0.916087158203125,-0.11207856982946396,-8.995689392089844,-4.292205333709717
1761399108811167700,0.926167724609375,-0.11260230094194412,-8.989029884338379,-4.193369388580322
1761399108821230600,0.936230712890625,-0.2753331959247589,-9.09834098815918,-4.228160381317139
1761399108831327500,0.946327392578125,-0.5704185366630554,-9.526304244995117,-4.628440856933594
1761399108841410800,0.956410888671875,-0.7257423996925354,-10.216208457946777,-5.257816791534424
1761399108851476000,0.96647607421875,-0.7803601026535034,-10.872817993164062,-5.786037445068359
1761399108861571300,0.9765712890625,-0.7719804048538208,-10.921974182128906,-5.882328987121582
1761399108871652600,0.986652587890625,-0.47816696763038635,-10.307262420654297,-5.761496543884277
1761399108881710300,0.99671044921875,0.032620999962091446,-9.488370895385742,-5.515642166137695
1761399108891792600,1.006792724609375,0.19632454216480255,-8.977283477783203,-5.412616729736328
1761399108901894400,1.016894287109375,-0.1381155103445053,-8.818368911743164,-5.4293012619018555
1761399108911975000,1.026974853515625,-0.47061026096343994,-8.848220825195312,-5.364433288574219
1761399108922051600,1.037051513671875,-0.2612672746181488,-8.907852172851562,-4.741641521453857
1761399108932110000,1.047110107421875,0.2141314148902893,-8.850016593933105,-3.6355953216552734
1761399108942191600,1.057191650390625,0.7249193787574768,-9.184082984924316,-2.6140193939208984
1761399108952276700,1.06727685546875,1.3617770671844482,-10.119467735290527,-2.102707624435425
1761399108962378800,1.077378662109375,1.7307085990905762,-11.170671463012695,-1.978209137916565
1761399108972459800,1.087459716796875,1.5949872732162476,-11.745429992675781,-2.036867141723633
1761399108982538800,1.097538818359375,1.0184335708618164,-11.846734046936035,-2.068889617919922
1761399108992620500,1.10762060546875,0.502483069896698,-11.464485168457031,-1.9069068431854248
1761399109002676500,1.117676513671875,0.3901800513267517,-10.871695518493652,-1.778891921043396
1761399109012756700,1.1277568359375,0.44756609201431274,-10.386870384216309,-1.898003339767456
1761399109022829600,1.13782958984375,0.31214404106140137,-10.031031608581543,-2.1192426681518555
1761399109032943600,1.147943603515625,0.19886837899684906,-9.993473052978516,-2.494309186935425
1761399109043000000,1.158,0.27480944991111755,-10.31130313873291,-2.8162546157836914
1761399109053105200,1.168105224609375,0.6190508008003235,-10.863465309143066,-3.1584010124206543
1761399109063185700,1.178185546875,1.2042086124420166,-11.384279251098633,-3.617713689804077
1761399109073255200,1.188255126953125,1.3667899370193481,-10.64858627319336,-3.7433342933654785
1761399109083321600,1.198321533203125,1.4080150127410889,-9.508273124694824,-4.038269996643066
1761399109093402000,1.208402099609375,1.2633154392242432,-8.564732551574707,-4.060117244720459
1761399109103508500,1.218508544921875,1.1405378580093384,-7.8902411460876465,-3.981931447982788
1761399109113585700,1.228585693359375,1.0515782833099365,-7.584382057189941,-3.7106385231018066
1761399109123651800,1.23865185546875,1.1252000331878662,-7.65186882019043,-3.5237412452697754
1761399109133725200,1.24872509765625,1.216179609298706,-7.813477039337158,-3.20404052734375
1761399109143807000,1.258806884765625,1.2832920551300049,-8.122703552246094,-2.8734161853790283
1761399109153912000,1.268912109375,1.260547161102295,-8.354641914367676,-2.4634838104248047
1761399109163993300,1.278993408203125,1.2230629920959473,-8.500014305114746,-2.2985832691192627
1761399109174069500,1.289069580078125,1.3756933212280273,-8.502782821655273,-2.3032219409942627
1761399109184153900,1.29915380859375,1.4299370050430298,-8.414196968078613,-2.1903953552246094
1761399109194210000,1.3092099609375,1.6009727716445923,-8.280047416687012,-1.884087085723877
1761399109204290000,1.3192900390625,1.5781530141830444,-8.069731712341309,-1.8961329460144043
1761399109214355500,1.32935546875,1.8672528266906738,-7.9468793869018555,-1.7858500480651855
1761399109224477200,1.339477294921875,2.1852328777313232,-7.793426036834717,-1.6275334358215332
1761399109234531800,1.34953173828125,2.25473952293396,-7.633163928985596,-1.4484171867370605
1761399109244633900,1.3596337890625,2.317736864089966,-7.336282730102539,-1.5746365785598755
1761399109254719000,1.369718994140625,2.3774423599243164,-7.150283336639404,-1.5933412313461304
1761399109264756000,1.379755859375,2.483086347579956,-6.978424549102783,-1.7666215896606445
1761399109274880500,1.389880615234375,2.6605565547943115,-6.695684432983398,-2.2711997032165527
1761399109284961300,1.399961181640625,2.9372365474700928,-6.5295867919921875,-2.375422239303589
1761399109295041800,1.410041748046875,3.1868321895599365,-6.383540153503418,-2.2212953567504883
1761399109305122600,1.42012255859375,3.3075149059295654,-6.254103660583496,-2.276810884475708
1761399109315178000,1.430177978515625,3.3698389530181885,-6.138807773590088,-2.6594343185424805
1761399109325283800,1.440283935546875,3.480271339416504,-6.130727767944336,-3.235614061355591
1761399109335339800,1.45033984375,3.64345121383667,-6.255749702453613,-3.9629275798797607
1761399109345445400,1.4604453125,3.8371572494506836,-6.433669090270996,-4.672584056854248
1761399109355526400,1.4705263671875,4.136881351470947,-6.700323104858398,-5.342586040496826
1761399109365606700,1.480606689453125,4.428300380706787,-7.053318023681641,-5.972111701965332
1761399109375687400,1.4906875,4.839280128479004,-7.492504596710205,-6.357952117919922
1761399109385743000,1.5007431640625,5.2124762535095215,-7.9007158279418945,-6.29360818862915
1761399109395839700,1.51083984375,5.5411553382873535,-8.36257266998291,-6.067206382751465
1761399109405911000,1.5209111328125,5.765911102294922,-8.892065048217773,-5.903801918029785
1761399109416010800,1.5310107421875,5.803170680999756,-9.428964614868164,-5.788955211639404
1761399109426070500,1.541070556640625,5.515717029571533,-9.742754936218262,-5.67119026184082
1761399109436169700,1.551169677734375,5.198185920715332,-9.662399291992188,-5.384036064147949
1761399109446252500,1.56125244140625,5.133617401123047,-9.13881778717041,-4.876016139984131
1761399109456308200,1.57130810546875,4.871003150939941,-8.370577812194824,-4.2427496910095215
1761399109466401000,1.581401123046875,4.389544486999512,-7.47073221206665,-3.547159433364868
1761399109476471300,1.59147119140625,4.1693525314331055,-6.553528785705566,-2.8085482120513916
1761399109486576400,1.601576416015625,4.311209201812744,-5.815366268157959,-1.9975124597549438
1761399109496656600,1.61165673828125,4.921431064605713,-6.40231990814209,-1.4046481847763062
1761399109506713300,1.62171337890625,5.191826343536377,-9.964143753051758,-1.5651345252990723
1761399109516810500,1.631810546875,5.089474201202393,-14.571111679077148,-2.551246404647827
1761399109526877200,1.641877197265625,3.9572412967681885,-17.482759475708008,-3.690736770629883
1761399109536979500,1.6519794921875,2.0830302238464355,-17.5839900970459,-4.589460372924805
1761399109547060500,1.662060546875,1.9571102857589722,-15.314435958862305,-4.983081817626953
1761399109557115100,1.672115234375,1.5003414154052734,-11.779098510742188,-4.550030708312988
1761399109567220700,1.682220703125,0.45078328251838684,-8.677260398864746,-3.3942298889160156
1761399109577319000,1.69231884765625,-0.2998737692832947,-6.808586120605469,-2.0486135482788086
1761399109587380000,1.7023798828125,-0.9344120025634766,-5.84267520904541,-1.4496142864227295
1761399109597437700,1.712437744140625,-1.4107834100723267,-5.370867729187012,-1.489567518234253
1761399109607543800,1.722543701171875,-1.5692496299743652,-5.347374439239502,-1.9865140914916992
1761399109617599200,1.73259912109375,-1.3151649236679077,-6.100949764251709,-2.737171173095703
1761399109627706000,1.7427060546875,-1.2004677057266235,-7.649474620819092,-4.002806186676025
1761399109637786400,1.752786376953125,-1.4570962190628052,-9.547403335571289,-5.7521443367004395
1761399109647872300,1.762872314453125,-1.4891186952590942,-10.849100112915039,-7.1000800132751465
1761399109657926400,1.772926513671875,-1.110984444618225,-10.654122352600098,-6.93383264541626
1761399109668024300,1.7830244140625,-0.5730372071266174,-9.632472038269043,-5.856890678405762
1761399109678105300,1.793105224609375,-0.17963995039463043,-8.837372779846191,-4.384306907653809
1761399109688187100,1.803187255859375,0.1777694821357727,-8.449810981750488,-2.8588263988494873
1761399109698264000,1.81326416015625,0.3388543725013733,-8.296208381652832,-1.9318214654922485
1761399109708325600,1.82332568359375,0.33279404044151306,-8.30406379699707,-1.5561562776565552
1761399109718425600,1.833425537109375,0.43200376629829407,-8.457741737365723,-1.65656316280365
1761399109728512800,1.8435126953125,0.4345476031303406,-8.701725959777832,-1.992724061012268
1761399109738593500,1.853593505859375,0.24121582508087158,-8.979304313659668,-2.427645683288574
1761399109748669700,1.863669677734375,0.01227028388530016,-9.237652778625488,-2.846855401992798
1761399109758754300,1.87375439453125,0.021098902449011803,-9.295113563537598,-3.112611770629883
1761399109768810200,1.883810302734375,0.15831658244132996,-9.181763648986816,-3.243021011352539
1761399109778916400,1.893916259765625,0.3134159743785858,-8.847772598266602,-3.1133599281311035
1761399109788997000,1.9039970703125,0.34693479537963867,-8.579023361206055,-3.0812628269195557
1761399109799077000,1.9140771484375,0.2355295866727829,-8.36032772064209,-3.1758337020874023
1761399109809154000,1.924154052734375,0.07564181089401245,-8.188992500305176,-3.3219549655914307
1761399109819238400,1.93423828125,0.024166474118828773,-8.216002464294434,-3.6968719959259033
1761399109829319200,1.944319091796875,-0.03292027488350868,-8.377461433410645,-4.109871864318848
1761399109839367200,1.9543671875,-0.011746551841497421,-8.619799613952637,-4.478878021240234
1761399109849457000,1.964456787109375,0.12382511794567108,-8.757989883422852,-4.649240493774414
1761399109859525000,1.974525146484375,0.32456398010253906,-8.756343841552734,-4.635698318481445
1761399109869642500,1.984642578125,0.4287865459918976,-8.654889106750488,-4.4630913734436035
1761399109879720000,1.994719970703125,0.47988781332969666,-8.502408981323242,-4.256591320037842
1761399109889800400,2.004800537109375,0.5430348515510559,-8.278475761413574,-4.184615612030029
1761399109899888400,2.014888427734375,0.4950011968612671,-8.160411834716797,-4.250606060028076
1761399109909939700,2.024939697265625,0.31610944867134094,-7.974337577819824,-4.238185882568359
1761399109920046000,2.035046142578125,0.09935937076807022,-7.958850383758545,-4.228758811950684
1761399109930126800,2.045126953125,-0.04893149808049202,-8.113051414489746,-4.147505760192871
1761399109940203300,2.055203369140625,-0.12868833541870117,-8.392350196838379,-4.011110782623291
1761399109950287600,2.06528759765625,-0.058732759207487106,-8.547300338745117,-3.6385133266448975
1761399109960351000,2.07535107421875,-0.3043628931045532,-9.381829261779785,-3.7475242614746094
1761399109970446800,2.08544677734375,-0.018031330779194832,-9.55825138092041,-3.285144090652466
1761399109980504600,2.095504638671875,0.25400984287261963,-9.53618049621582,-3.203366994857788
1761399109990611200,2.105611083984375,0.46679452061653137,-9.470264434814453,-3.4363527297973633
1761399110000666000,2.115666015625,0.4397849142551422,-9.660978317260742,-3.7589714527130127
1761399110010772200,2.125772216796875,0.43589434027671814,-9.611896514892578,-3.871947765350342
1761399110020825600,2.13582568359375,0.2612672746181488,-9.647734642028809,-4.141744613647461
1761399110030906000,2.145906005859375,-0.11686696857213974,-9.51882266998291,-4.18648624420166
1761399110040989700,2.15598974609375,-0.29875147342681885,-9.442058563232422,-4.102090358734131
1761399110051069700,2.166069580078125,-0.5502923130989075,-9.61219596862793,-4.121094703674316
1761399110061176000,2.176176025390625,-0.5858312249183655,-9.818621635437012,-4.240879535675049
1761399110071253000,2.1862529296875,-0.4843021035194397,-9.917606353759766,-4.406527996063232
1761399110081311200,2.196311279296875,-0.2743605375289917,-9.968183517456055,-4.611232280731201
1761399110091419000,2.2064189453125,-0.0851437970995903,-9.980080604553223,-4.801347255706787
1761399110101499400,2.21649951171875,0.11088146269321442,-9.977012634277344,-5.124564170837402
1761399110111579100,2.2265791015625,0.32785600423812866,-9.913191795349121,-5.487435340881348
1761399110121659600,2.23665966796875,0.4421791136264801,-9.557428359985352,-5.981613636016846
1761399110131736300,2.246736328125,0.17739538848400116,-9.150264739990234,-6.692766189575195
1761399110141822200,2.256822265625,-0.655188262462616,-8.964789390563965,-7.7370123863220215
1761399110151901700,2.266901611328125,-1.135824203491211,-8.959701538085938,-8.770484924316406
1761399110161983500,2.2769833984375,-0.4299836754798889,-8.836100578308105,-9.277457237243652
1761399110172064300,2.287064208984375,0.1760486364364624,-9.050605773925781,-9.632472038269043
1761399110182144000,2.29714404296875,-0.2718167006969452,-8.899995803833008,-8.91877555847168
1761399110192225500,2.3072255859375,-0.39698857069015503,-8.716989517211914,-7.660173416137695
1761399110202301700,2.3173017578125,0.3341407775878906,-9.56401252746582,-6.318747043609619
1761399110212386000,2.327385986328125,1.2003928422927856,-10.852018356323242,-4.3966522216796875
1761399110222466800,2.337466796875,1.7305588722229004,-12.242825508117676,-2.6016743183135986
1761399110232547300,2.34754736328125,1.6065841913223267,-13.175067901611328,-1.2283003330230713
1761399110242629000,2.357629150390625,1.3550432920455933,-13.779678344726562,-0.5479729175567627
1761399110252708900,2.367708984375,0.5702689290046692,-13.62480354309082,-0.15517419576644897
1761399110262764300,2.377764404296875,-0.15584756433963776,-13.010540962219238,-0.27391162514686584
1761399110272870100,2.3878701171875,-0.6720224618911743,-11.816059112548828,-1.1044751405715942
1761399110282972700,2.39797265625,-0.8641571998596191,-10.195708274841309,-2.5702502727508545
1761399110293031700,2.40803173828125,-0.2721159756183624,-9.222166061401367,-4.183867454528809
1761399110303112400,2.418112548828125,0.9677063822746277,-9.131560325622559,-5.371765613555908
1761399110313194000,2.428194091796875,1.7526304721832275,-9.601646423339844,-6.110900402069092
1761399110323270000,2.438269775390625,1.6548422574996948,-9.90241813659668,-6.206219673156738
1761399110333356000,2.44835595703125,1.1811645030975342,-9.705270767211914,-6.22963809967041
1761399110343435300,2.458435302734375,0.593986451625824,-9.236979484558105,-5.688997268676758
1761399110353516000,2.46851611328125,0.3785083293914795,-8.714744567871094,-5.145139217376709
1761399110363597300,2.478597412109375,0.3324199318885803,-8.531513214111328,-4.256441593170166
1761399110373677300,2.48867724609375,0.27383682131767273,-8.41696548461914,-3.1030349731445312
1761399110383758000,2.498758056640625,0.25176528096199036,-8.08738899230957,-2.5465328693389893
1761399110393834500,2.50883447265625,0.14282909035682678,-7.706411361694336,-2.065223455429077
1761399110403919400,2.51891943359375,0.20545242726802826,-7.402721881866455,-1.6143653392791748
1761399110413999900,2.528999755859375,0.38973113894462585,-7.051298141479492,-1.1560252904891968
1761399110424080600,2.53908056640625,0.7377133965492249,-6.760103225708008,-0.9358335733413696
1761399110434138000,2.54913818359375,1.2000936269760132,-6.687229633331299,-0.8732850551605225
1761399110444242200,2.5592421875,1.4933085441589355,-6.6641106605529785,-0.7835025191307068
1761399110454323500,2.569323486328125,1.342099666595459,-6.7410993576049805,-1.0442460775375366
1761399110464403700,2.57940380859375,1.5384989976882935,-6.920440196990967,-1.2095955610275269
1761399110474474000,2.589473876953125,1.65888249874115,-7.056610107421875,-1.2730419635772705
1761399110484565200,2.599565185546875,1.7206828594207764,-6.9253034591674805,-1.5692496299743652
1761399110494646300,2.609646240234375,1.7073650360107422,-7.223456382751465,-0.9192986488342285
1761399110504727600,2.6197275390625,1.9174562692642212,-6.978649139404297,-0.5680992007255554
1761399110514807000,2.62980712890625,2.036717414855957,-6.26360559463501,-0.5223100781440735
1761399110524884700,2.639884765625,2.2562358379364014,-5.46035099029541,-0.2801215946674347
1761399110534968800,2.64996875,2.6320507526397705,-4.674379348754883,-0.21951836347579956
1761399110545049000,2.660049072265625,3.146205425262451,-3.9591116905212402,-0.3580079674720764
1761399110555129900,2.6701298828125,3.5439422130584717,-3.4928410053253174,-0.9738415479660034
1761399110565211000,2.6802109375,3.9332244396209717,-3.6238486766815186,-1.9731215238571167
1761399110575291600,2.690291748046875,4.4339118003845215,-4.379593372344971,-3.2012720108032227
1761399110585346800,2.700346923828125,4.469974517822266,-5.819331645965576,-4.715455055236816
1761399110595453000,2.710452880859375,4.463241100311279,-7.992069721221924,-6.578817367553711
1761399110605533400,2.720533447265625,4.742090702056885,-10.939332008361816,-8.571242332458496
1761399110615614200,2.7306142578125,4.730792999267578,-13.937171936035156,-10.237381935119629
1761399110625695000,2.740695068359375,5.782595634460449,-16.698583602905273,-11.023054122924805
1761399110635764500,2.750764404296875,7.096638202667236,-16.960599899291992,-10.179547309875488
1761399110645856800,2.760856689453125,7.472004413604736,-13.539435386657715,-8.335787773132324
1761399110655912000,2.770911865234375,7.374141216278076,-10.073603630065918,-5.859808444976807
1761399110666001000,2.7810009765625,7.194651126861572,-7.9698486328125,-4.318242073059082
1761399110676098800,2.791098876953125,6.2125043869018555,-6.393715858459473,-3.4352304935455322
1761399110686179300,2.801179443359375,4.599710464477539,-4.7789764404296875,-2.79665207862854
1761399110696260900,2.8112607421875,3.288435935974121,-3.2280571460723877,-2.9993362426757812
1761399110706340900,2.8213408203125,3.484311580657959,-2.0020763874053955,-3.715202569961548
1761399110716422100,2.831422119140625,4.419172763824463,-2.2729952335357666,-4.379817962646484
1761399110726502400,2.84150244140625,3.9996635913848877,-6.5429792404174805,-5.49544095993042
1761399110736583200,2.851583251953125,1.7732056379318237,-13.271658897399902,-8.144400596618652
1761399110746663400,2.861663330078125,-1.3923031091690063,-18.530298233032227,-8.567351341247559
1761399110756744200,2.871744140625,0.07923310995101929,-21.598243713378906,-8.295310020446777
1761399110766825000,2.881824951171875,3.0232033729553223,-18.933197021484375,-8.116193771362305
1761399110776906200,2.89190625,2.470442056655884,-12.909385681152344,-5.197213172912598
1761399110786960600,2.901960693359375,0.9336638450622559,-7.663540363311768,-1.2224644422531128
1761399110797067000,2.91206689453125,-0.4543745815753937,-4.7818193435668945,1.2966846227645874
1761399110807147500,2.9221474609375,-2.0869956016540527,-4.012607097625732,1.7455974817276
1761399110817228300,2.932228271484375,-3.993079423904419,-4.385653972625732,0.6052840948104858
1761399110827306200,2.94230615234375,-4.240879535675049,-5.520580291748047,-0.7883657217025757
1761399110837390000,2.95239013671875,-3.1525650024414062,-8.078934669494629,-2.3937528133392334
1761399110847471000,2.96247119140625,-1.755847692489624,-11.291204452514648,-4.459051132202148
1761399110857551400,2.97255126953125,-0.7157166600227356,-13.410672187805176,-5.578340530395508
1761399110867631900,2.9826318359375,-0.14567221701145172,-13.396381378173828,-5.522525310516357
1761399110877676500,2.992676513671875,0.7579892873764038,-11.327865600585938,-4.68754768371582
1761399110887794000,3.0027939453125,1.4673463106155396,-9.194183349609375,-3.1671547889709473
1761399110897874000,3.0128740234375,1.3050644397735596,-7.7597575187683105,-1.7262194156646729
1761399110907929300,3.022929443359375,1.0966192483901978,-7.322142124176025,-0.7220762968063354
1761399110918033400,3.033033447265625,1.0222493410110474,-7.671321392059326,-0.5033808946609497
1761399110928112000,3.043112060546875,1.1061960458755493,-8.546701431274414,-0.6766612529754639
1761399110938185500,3.053185546875,0.9575310349464417,-9.42567253112793,-1.1454010009765625
1761399110948276700,3.06327685546875,0.5237316489219666,-9.773205757141113,-1.7620576620101929
1761399110958363000,3.07336279296875,0.2141314148902893,-9.613617897033691,-2.3989901542663574
1761399110968439600,3.083439453125,0.16714520752429962,-9.111957550048828,-2.8500726222991943
1761399110988575200,3.1035751953125,0.27473464608192444,-7.947103500366211,-3.6017770767211914
1761399110998681000,3.11368115234375,0.19460371136665344,-7.556699275970459,-3.801318883895874
1761399111008761900,3.123761962890625,-0.09000702202320099,-7.349001884460449,-3.8973114490509033
1761399111039004000,3.15400390625,-0.508917510509491,-7.539865016937256,-4.884171485900879
1761399111049084700,3.164084716796875,-0.1685667634010315,-7.669899940490723,-4.922703266143799
1761399111059165200,3.174165283203125,0.2514660060405731,-7.897947788238525,-4.955099582672119
1761399111069246000,3.184245849609375,0.590470016002655,-8.125696182250977,-4.83905553817749
1761399111079326700,3.19432666015625,0.7157166600227356,-8.376039505004883,-4.795286655426025
1761399111089404000,3.20440380859375,0.6355857253074646,-8.579322814941406,-4.680813789367676
1761399111099488000,3.214488037109375,0.3977367579936981,-8.742951393127441,-4.574795722961426
1761399111109568800,3.22456884765625,0.11836334317922592,-8.813430786132812,-4.670563697814941
1761399111119649500,3.2346494140625,-0.0950198769569397,-8.718709945678711,-4.599935054779053
1761399111129747500,3.24474755859375,-0.19789573550224304,-8.547150611877441,-4.600159168243408
1761399111139785700,3.25478564453125,-0.19647417962551117,-8.341997146606445,-4.456955909729004
1761399111149891600,3.2648916015625,-0.04032733663916588,-8.307655334472656,-4.221725940704346
1761399111159968800,3.27496875,0.1726817935705185,-8.401477813720703,-3.905766010284424
1761399111170053600,3.2850537109375,0.2965817451477051,-8.568997383117676,-3.6951510906219482
1761399111180133600,3.295133544921875,0.0744447112083435,-8.724994659423828,-3.7672016620635986
1761399111190214700,3.305214599609375,-0.29149407148361206,-8.85562801361084,-4.384980201721191
1761399111200295200,3.315295166015625,-0.8392425179481506,-8.983793258666992,-5.068899154663086
1761399111210351000,3.32535107421875,-1.4533551931381226,-9.013570785522461,-5.6187424659729
1761399111220452600,3.33545263671875,-1.721730351448059,-8.871564865112305,-5.827187538146973
1761399111230537500,3.345537353515625,-1.492410659790039,-8.80160903930664,-5.770175933837891
1761399111240618200,3.3556181640625,-1.2315175533294678,-9.172186851501465,-5.612382888793945
1761399111250673400,3.36567333984375,-1.128566861152649,-9.7605619430542,-5.359046459197998
1761399111260754200,3.375754150390625,-0.989852786064148,-10.238654136657715,-5.0184712409973145
1761399111270835000,3.3858349609375,-0.6673837304115295,-10.625990867614746,-4.486285209655762
1761399111280915700,3.395915771484375,-0.2414402812719345,-10.999785423278809,-3.886911630630493
1761399111290996200,3.405996337890625,0.16467618942260742,-11.281927108764648,-3.4810197353363037
1761399111301077200,3.4160771484375,0.18951602280139923,-11.240777015686035,-3.416226625442505
1761399111311157500,3.426157470703125,-0.5685480833053589,-10.968735694885254,-4.1710734367370605
1761399111321227000,3.43622705078125,-1.3839234113693237,-11.031508445739746,-5.881132125854492
1761399111331328300,3.446328369140625,-1.7396119832992554,-10.773907661437988,-6.907196998596191
1761399111341408800,3.45640869140625,-0.9756371974945068,-10.202366828918457,-7.256525993347168
1761399111351501800,3.466501708984375,-0.7013514637947083,-9.65147590637207,-7.831583499908447
1761399111361542700,3.476542724609375,-0.9798270463943481,-9.233986854553223,-8.261866569519043
1761399111371668200,3.486668212890625,-0.6468833684921265,-9.168221473693848,-7.847519874572754
1761399111381749000,3.4967490234375,-0.28476035594940186,-10.023923873901367,-6.488062381744385
1761399111391810000,3.50681005859375,0.12143091857433319,-11.172018051147461,-5.297844409942627
1761399111401910300,3.51691015625,0.35673606395721436,-11.450493812561035,-4.222623825073242
1761399111411986000,3.52698583984375,0.5467010140419006,-10.964845657348633,-2.6254665851593018
1761399111422071600,3.537071533203125,1.2462568283081055,-10.954819679260254,-1.4076409339904785
1761399111432151300,3.5471513671875,1.8451064825057983,-11.644200325012207,-0.6621463894844055
1761399111442232000,3.557232177734375,2.206930160522461,-12.270882606506348,-0.18667291104793549
1761399111452313600,3.567313720703125,1.9067572355270386,-12.592378616333008,-0.3587561547756195
1761399111462393600,3.5773935546875,1.165228009223938,-12.029067993164062,-0.8341548442840576
1761399111472475100,3.58747509765625,0.3247136175632477,-10.647089958190918,-1.3590835332870483
1761399111482551300,3.59755126953125,0.12606967985630035,-9.384596824645996,-1.8683751821517944
1761399111492636400,3.607636474609375,0.010923544876277447,-9.370007514953613,-2.8372037410736084
1761399111502717000,3.617717041015625,-0.24413375556468964,-10.357840538024902,-4.045527458190918
1761399111512797200,3.627797119140625,0.0496048666536808,-11.79488468170166,-4.975749492645264
1761399111522852900,3.637852783203125,0.5921159982681274,-12.942680358886719,-5.261782169342041
1761399111532958700,3.647958740234375,1.087715744972229,-12.648792266845703,-5.1018195152282715
1761399111543013600,3.658013671875,1.1629834175109863,-11.648015975952148,-4.390591621398926
1761399111553119700,3.66811962890625,1.0550199747085571,-10.930952072143555,-3.550601005554199
1761399111563176700,3.6781767578125,1.1096376180648804,-10.157401084899902,-2.956465005874634
1761399111573300000,3.688300048828125,1.25725519657135,-9.052776336669922,-2.387542724609375
1761399111583362600,3.698362548828125,1.7106571197509766,-8.144774436950684,-1.5626654624938965
1761399111593424600,3.708424560546875,2.025195360183716,-7.7783122062683105,-1.049558162689209
1761399111603519700,3.718519775390625,1.7432032823562622,-7.774421691894531,-1.077465534210205
1761399111613604000,3.72860400390625,0.9881319403648376,-7.9835405349731445,-1.2098948955535889
1761399111623684600,3.7386845703125,0.844853937625885,-8.295684814453125,-1.492485523223877
1761399111633765600,3.748765625,1.3349170684814453,-8.645163536071777,-1.9145383834838867
1761399111643846100,3.75884619140625,2.072929859161377,-9.013794898986816,-2.7381436824798584
1761399111653927000,3.768927001953125,2.2177040576934814,-9.093402862548828,-3.797203779220581
1761399111664007700,3.779007568359375,2.0575170516967773,-9.163283348083496,-4.361861228942871
1761399111674084600,3.789084716796875,1.942595362663269,-8.923040390014648,-4.209230899810791
1761399111684169000,3.7991689453125,2.1595699787139893,-8.104970932006836,-3.2644193172454834
1761399111694228000,3.80922802734375,2.3236474990844727,-7.3174285888671875,-2.1039047241210938
1761399111704330500,3.81933056640625,2.301800489425659,-6.162301063537598,-2.145728349685669
1761399111714411300,3.829411376953125,2.8045828342437744,-5.251008033752441,-2.4005613327026367
1761399111724465400,3.83946533203125,3.091587781906128,-4.856114387512207,-2.388216257095337
1761399111734572800,3.84957275390625,3.0202853679656982,-4.703334331512451,-2.5341129302978516
1761399111744653300,3.8596533203125,3.3505356311798096,-4.861800670623779,-3.139920711517334
1761399111754735000,3.869735107421875,3.6245222091674805,-4.919635772705078,-3.3606362342834473
1761399111764814600,3.879814697265625,3.4614171981811523,-5.1437177658081055,-3.662529945373535
1761399111774895000,3.88989501953125,2.8708722591400146,-5.0353803634643555,-3.925443410873413
1761399111784976100,3.89997607421875,2.3993642330169678,-4.976123809814453,-4.427327632904053
1761399111795056600,3.910056640625,2.239102363586426,-4.909684658050537,-4.366799354553223
1761399111805138000,3.920137939453125,2.1559038162231445,-4.55728816986084,-3.6925323009490967
1761399111815218200,3.93021826171875,2.0778677463531494,-4.150573253631592,-2.6896612644195557
1761399111825298700,3.940298583984375,2.2373814582824707,-3.644648313522339,-1.7508348226547241
1761399111835357400,3.950357421875,2.4117093086242676,-3.1703720092773438,-0.8902689218521118
1761399111845460700,3.960460693359375,2.469244956970215,-2.8011412620544434,-0.34685996174812317
1761399111855541800,3.970541748046875,2.3545477390289307,-2.745850086212158,-0.1173158809542656
1761399111865621800,3.980621826171875,2.629431962966919,-3.1576528549194336,-0.25243863463401794
1761399111875703300,3.990703369140625,3.9232735633850098,-4.020537853240967,-0.5601683855056763
1761399111885783000,4.000782958984375,5.680542945861816,-5.0802717208862305,-1.0710312128067017
1761399111895817500,4.0108173828125,7.771728515625,-6.095338344573975,-2.083254814147949
1761399111905922000,4.020922119140625,8.178817749023438,-7.001842975616455,-3.7403416633605957
1761399111916025600,4.031025634765625,7.408632755279541,-7.5470476150512695,-6.014758586883545
1761399111926084600,4.041084716796875,6.266523838043213,-8.314165115356445,-9.151387214660645
1761399111936204300,4.051204345703125,3.5703532695770264,-11.348441123962402,-11.87770938873291
1761399111946268000,4.061267822265625,2.7350013256073,-15.72189998626709,-12.78271770477295
1761399111956348000,4.071347900390625,3.2787845134735107,-17.283443450927734,-11.30295181274414
1761399111966428700,4.0814287109375,4.928015232086182,-15.85567569732666,-9.198822021484375
1761399111976509400,4.091509521484375,6.252981662750244,-16.389507293701172,-8.76569652557373
1761399111986590200,4.101590087890625,3.918560028076172,-19.260828018188477,-8.843432426452637
1761399111996671200,4.111671142578125,1.030554175376892,-19.768400192260742,-7.716736316680908
1761399112006751700,4.121751708984375,-1.0924293994903564,-15.109283447265625,-5.325752258300781
1761399112016832300,4.131832275390625,0.6710498332977295,-9.17585277557373,-2.358962059020996
1761399112026889200,4.14188916015625,4.430395603179932,-5.198185920715332,-1.5693992376327515
1761399112036994600,4.15199462890625,3.926640510559082,-2.925564765930176,-2.144456624984741
1761399112047074600,4.162074462890625,2.0714333057403564,-1.7102081775665283,-2.3896377086639404
1761399112057129700,4.172129638671875,-1.0454431772232056,-2.183137893676758,-2.917933225631714
1761399112067235800,4.18223583984375,-2.657938003540039,-4.058845043182373,-3.446902275085449
1761399112077316000,4.192316162109375,-3.3833062648773193,-6.444143295288086,-4.181473255157471
1761399112087398000,4.20239794921875,-4.631358623504639,-9.449390411376953,-5.7258830070495605
1761399112097452500,4.21245263671875,-5.324255466461182,-12.862025260925293,-7.913210868835449
1761399112107558700,4.22255859375,-4.259210109710693,-15.43212604522705,-9.166949272155762
1761399112117639200,4.23263916015625,-1.5755343437194824,-15.82215690612793,-7.623512268066406
1761399112127720000,4.242719970703125,0.4405331015586853,-13.170204162597656,-4.004077911376953
1761399112137801000,4.252801025390625,0.9770587682723999,-9.995043754577637,-1.3474866151809692
1761399112147881500,4.262881591796875,1.243264079093933,-8.497920036315918,0.4239981472492218
1761399112157962000,4.2729619140625,1.628281593322754,-7.968352317810059,1.8059762716293335
1761399112168040000,4.2830400390625,1.5197943449020386,-7.789460182189941,2.17842435836792
1761399112178098200,4.29309814453125,1.0488847494125366,-8.121805191040039,1.5637129545211792
1761399112188201500,4.303201416015625,1.0089315176010132,-8.71182632446289,0.4391115605831146
1761399112198284800,4.313284912109375,1.0847229957580566,-9.212738037109375,-0.9519944787025452
1761399112208340500,4.323340576171875,0.7329249978065491,-9.561918258666992,-2.1051766872406006
1761399112218446600,4.333446533203125,0.2859574556350708,-9.706767082214355,-3.009287118911743
1761399112228486100,4.343486083984375,-0.03972878307104111,-9.341202735900879,-3.6664955615997314
1761399112238604500,4.3536044921875,0.014514847658574581,-8.459911346435547,-3.8296003341674805
1761399112248688400,4.3636884765625,0.1429039090871811,-7.623661994934082,-3.7636849880218506
1761399112258754600,4.373754638671875,0.17462708055973053,-7.053842067718506,-3.688192844390869
1761399112268850000,4.383849853515625,0.1793406754732132,-6.817713737487793,-3.817779064178467
1761399112278930400,4.393930419921875,0.16048632562160492,-6.953360080718994,-4.206088542938232
1761399112289011700,4.40401171875,0.15016134083271027,-7.223306655883789,-4.643105506896973
1761399112299092000,4.414092041015625,0.12584522366523743,-7.614683628082275,-4.986972332000732
1761399112309147600,4.424147705078125,0.24443303048610687,-7.967005252838135,-5.087977886199951
1761399112319254000,4.43425390625,0.4919336438179016,-8.103474617004395,-5.133692264556885
1761399112329333800,4.444333740234375,0.7191583514213562,-8.049605369567871,-5.108029365539551
1761399112339415000,4.4544150390625,0.8034043312072754,-7.956381320953369,-5.048024654388428
1761399112349496300,4.464496337890625,0.6584802865982056,-7.859191417694092,-5.086331844329834
1761399112359555300,4.474555419921875,0.5065233111381531,-7.6939167976379395,-5.158232688903809
1761399112369653000,4.484653076171875,0.34334349632263184,-7.618275165557861,-5.256694316864014
1761399112379738400,4.49473828125,0.26904842257499695,-7.6548614501953125,-5.331512928009033
1761399112389778200,4.504778076171875,0.3031657934188843,-7.851260662078857,-5.324181079864502
1761399112399900000,4.51489990234375,0.4759972393512726,-8.069881439208984,-5.031713962554932
1761399112409996500,4.52499658203125,0.7070376873016357,-8.252439498901367,-4.339565277099609
1761399112420060700,4.535060791015625,0.49971479177474976,-8.682348251342773,-3.810596466064453
1761399112430143000,4.54514306640625,-0.5657049417495728,-9.241767883300781,-3.7140800952911377
1761399112440217900,4.5552177734375,-1.9268834590911865,-9.834707260131836,-3.959411144256592
1761399112450303700,4.5653037109375,-2.2979846000671387,-9.984719276428223,-4.183717727661133
1761399112460383200,4.57538330078125,-2.1808931827545166,-10.093879699707031,-4.8791584968566895
1761399112470464800,4.58546484375,-2.1296424865722656,-10.168922424316406,-5.841552734375
1761399112480544500,4.59554443359375,-1.8174235820770264,-10.290278434753418,-6.315006256103516
1761399112490626000,4.6056259765625,-1.322871208190918,-10.387991905212402,-6.266523838043213
1761399112500702000,4.615701904296875,-0.7920318245887756,-10.251747131347656,-5.717428684234619
1761399112510787300,4.625787353515625,-0.28401216864585876,-10.231246948242188,-5.178957462310791
1761399112520842800,4.6358427734375,-0.10841244459152222,-10.24306869506836,-5.240009784698486
1761399112530949000,4.64594921875,-0.4242226183414459,-10.250624656677246,-6.246547222137451
1761399112541029400,4.656029296875,-0.9881319403648376,-10.158597946166992,-7.80681848526001
1761399112551110100,4.666110107421875,-0.9400982856750488,-9.846753120422363,-8.953341484069824
1761399112561186300,4.676186279296875,-0.6792799234390259,-9.359084129333496,-9.681702613830566
1761399112571271000,4.68627099609375,-1.0416274070739746,-8.748562812805176,-9.487921714782715
1761399112581352000,4.69635205078125,-1.2314426898956299,-8.697237014770508,-8.467991828918457
1761399112591432400,4.706432373046875,-0.7980173826217651,-9.321375846862793,-6.791901111602783
1761399112601513500,4.716513427734375,0.03950432687997818,-9.939902305603027,-5.348721504211426
1761399112611594000,4.726593994140625,0.0826747789978981,-9.772757530212402,-3.6355204582214355
1761399112621674500,4.736674560546875,0.2852841019630432,-9.63292121887207,-2.0982933044433594
1761399112631751400,4.74675146484375,0.6459107398986816,-10.317214012145996,-1.2005425691604614
1761399112641836500,4.75683642578125,1.2948142290115356,-11.42064094543457,-0.43768998980522156
1761399112651911200,4.7669111328125,1.5361796617507935,-12.424485206604004,0.12502221763134003
1761399112661997800,4.776997802734375,1.2227636575698853,-13.33465576171875,0.3744681179523468
1761399112672078800,4.787078857421875,0.5277718305587769,-13.666926383972168,0.5037549734115601
1761399112682133000,4.797133056640625,-0.31857845187187195,-13.118578910827637,0.24607904255390167
1761399112692235800,4.80723583984375,-0.653991162776947,-11.999588966369629,-0.6114192605018616
1761399112702320000,4.817320068359375,-0.29792848229408264,-11.096975326538086,-1.8896985054016113
1761399112712401700,4.827401611328125,0.5199158787727356,-10.887407302856445,-3.02058482170105
1761399112722481700,4.837481689453125,1.362525224685669,-11.268684387207031,-3.956942081451416
1761399112732562200,4.847562255859375,1.6767642498016357,-11.743858337402344,-4.854618072509766
1761399112742618600,4.85761865234375,1.7078139781951904,-11.461417198181152,-5.1280059814453125
1761399112752739600,4.867739501953125,1.5945383310317993,-10.540846824645996,-4.974029064178467
1761399112762779100,4.877779052734375,1.4257471561431885,-9.629928588867188,-4.652756690979004
1761399112772885000,4.887885009765625,1.078662633895874,-8.966809272766113,-4.098349571228027
1761399112782965800,4.8979658203125,0.8158990740776062,-8.666261672973633,-3.5109472274780273
1761399112793043500,4.90804345703125,0.5885995030403137,-8.484302520751953,-3.062483310699463
1761399112803127300,4.918127197265625,0.36070144176483154,-8.257676124572754,-2.7480945587158203
1761399112813208300,4.928208251953125,0.10182838886976242,-8.000225067138672,-2.522291421890259
1761399112823263200,4.93826318359375,0.2994248569011688,-7.8814873695373535,-2.1437830924987793
1761399112833370000,4.9483701171875,0.6658873558044434,-7.808688640594482,-1.7921347618103027
1761399112843450000,4.9584501953125,1.243039608001709,-7.749881267547607,-1.7720834016799927
1761399112853531100,4.96853125,1.641374945640564,-7.72975492477417,-1.801561951637268
1761399112863611400,4.978611328125,1.9087024927139282,-7.5062713623046875,-1.7099837064743042
1761399112873716700,4.988716796875,1.9639935493469238,-7.114819049835205,-1.4570962190628052
1761399112883769300,4.998769287109375,1.8050036430358887,-6.676455974578857,-1.268403172492981
1761399112893853400,5.008853515625,1.6495301723480225,-6.352041721343994,-1.0323498249053955
1761399112903935000,5.01893505859375,1.4550012350082397,-6.1244425773620605,-0.779761552810669
1761399112914015000,5.029014892578125,1.3379846811294556,-5.899911403656006,-0.5730372071266174
1761399112924096500,5.039096435546875,1.261070966720581,-5.5557451248168945,-0.37895724177360535
1761399112934199300,5.04919921875,1.2419921159744263,-5.09112024307251,-0.24069209396839142
1761399112944257300,5.05925732421875,1.2675801515579224,-4.580706596374512,-0.223932683467865
1761399112954334200,5.069334228515625,1.3909564018249512,-4.179976940155029,-0.13856442272663116
1761399112964418800,5.079418701171875,1.5375263690948486,-3.843367099761963,-0.041449617594480515
1761399112974499300,5.089499267578125,1.9421465396881104,-3.6098575592041016,-0.2313397377729416
1761399112984579800,5.099579833984375,2.182539224624634,-3.5394530296325684,-0.8185176849365234
1761399112994660900,5.109660888671875,2.7154736518859863,-3.87778377532959,-1.5340099334716797
1761399113004741400,5.119741455078125,3.755305290222168,-4.7194952964782715,-2.488248825073242
1761399113014822400,5.129822509765625,5.537489414215088,-6.118457317352295,-3.885938882827759
1761399113024879400,5.13987939453125,7.333290100097656,-8.31214427947998,-5.744063854217529
1761399113034984000,5.14998388671875,7.066561222076416,-11.059191703796387,-7.872958183288574
1761399113045064200,5.160064208984375,5.978022575378418,-14.408754348754883,-11.111490249633789
1761399113055145000,5.17014501953125,5.423764705657959,-17.594465255737305,-14.14210033416748
1761399113065194200,5.1801943359375,6.361319065093994,-17.598953247070312,-13.398177146911621
1761399113075307000,5.19030712890625,6.605976581573486,-13.973234176635742,-11.141641616821289
1761399113085383000,5.2003828125,6.858714580535889,-10.28706169128418,-8.317232131958008
1761399113095442200,5.210442138671875,6.78584098815918,-7.272686958312988,-6.341791152954102
1761399113105548300,5.22054833984375,5.9193644523620605,-4.725256443023682,-5.1601033210754395
1761399113115637500,5.230637451171875,5.204470634460449,-2.7561750411987305,-4.426355361938477
1761399113125709800,5.240709716796875,5.316324710845947,-1.821987509727478,-3.9013516902923584
1761399113135763200,5.25076318359375,4.275371074676514,-4.223222255706787,-4.026822566986084
1761399113145868800,5.260868896484375,2.9328970909118652,-10.090961456298828,-6.020668983459473
1761399113155951900,5.270951904296875,3.0445268154144287,-15.362095832824707,-7.057582855224609
1761399113166032400,5.281032470703125,3.1493477821350098,-18.06298065185547,-6.543652534484863
1761399113176113200,5.291113037109375,0.3464110493659973,-16.770185470581055,-5.709497451782227
1761399113186194000,5.30119384765625,0.28057050704956055,-12.806809425354004,-4.364854335784912
1761399113196275000,5.31127490234375,1.1795932054519653,-8.851438522338867,-3.1991772651672363
1761399113206355500,5.32135546875,0.8794950246810913,-6.004358768463135,-2.074126958847046
1761399113216436200,5.331436279296875,0.5205144286155701,-4.89300012588501,-0.4610334634780884
1761399113226494000,5.341493896484375,-0.07504326105117798,-5.003731727600098,0.4553472399711609
1761399113236598300,5.351598388671875,-1.255309820175171,-5.601160049438477,0.6351368427276611
1761399113246678300,5.36167822265625,-2.1345057487487793,-6.453944683074951,0.3304746448993683
1761399113256750000,5.37175,-2.603245496749878,-8.100481986999512,-0.6199486255645752
1761399113266839800,5.38183984375,-2.6192567348480225,-10.964171409606934,-2.66137957572937
1761399113276920300,5.39192041015625,-2.4239046573638916,-13.462969779968262,-4.948814868927002
1761399113287001900,5.402001953125,-1.8561797142028809,-13.693487167358398,-5.8075103759765625
1761399113297081600,5.41208154296875,-1.0066121816635132,-10.959458351135254,-5.056180000305176
1761399113307162400,5.422162353515625,-0.5882254242897034,-8.43858814239502,-4.535067081451416
1761399113317243400,5.432243408203125,-0.04825812950730324,-7.557147979736328,-4.020089149475098
1761399113327300400,5.44230029296875,0.4867711365222931,-7.778237819671631,-3.349787473678589
1761399113337405400,5.452405517578125,0.7858219146728516,-8.366538047790527,-2.6951229572296143
1761399113347485400,5.4624853515625,0.7155670523643494,-8.929100036621094,-2.3696610927581787
1761399113357566700,5.472566650390625,0.7560440301895142,-9.290474891662598,-2.3959972858428955
1761399113367646700,5.482646728515625,0.7653963565826416,-9.348085403442383,-2.4467244148254395
1761399113377728000,5.49272802734375,0.4462193548679352,-9.131185531616211,-2.4203882217407227
1761399113387808000,5.50280810546875,0.039878420531749725,-8.916755676269531,-2.332102060317993
1761399113397888800,5.512888671875,-0.27570727467536926,-8.757166862487793,-2.4124574661254883
1761399113407971300,5.522971435546875,-0.35920506715774536,-8.592639923095703,-2.573392629623413
1761399113418046000,5.5330458984375,-0.4819079041481018,-8.270171165466309,-2.6197056770324707
1761399113428128000,5.5431279296875,-0.5451297760009766,-8.026336669921875,-2.7175686359405518
1761399113438210800,5.5532109375,-0.47233110666275024,-7.964685916900635,-3.118298053741455
1761399113448292000,5.5632919921875,-0.34431612491607666,-8.054617881774902,-3.840374231338501
1761399113458369500,5.57336962890625,-0.22610242664813995,-8.180837631225586,-4.660837173461914
1761399113468415700,5.583415771484375,-0.19542671740055084,-8.087239265441895,-5.292532444000244
1761399113478535400,5.593535400390625,0.030376434326171875,-7.833678245544434,-5.635277271270752
1761399113488615200,5.603615234375,0.433874249458313,-7.591564655303955,-5.796512126922607
1761399113498696000,5.613696044921875,0.9250596761703491,-7.524826526641846,-5.7998785972595215
1761399113508777000,5.62377685546875,1.309104561805725,-7.570765018463135,-5.5976433753967285
1761399113518827300,5.6338271484375,1.303044319152832,-7.636979579925537,-5.323432445526123
1761399113528939300,5.643939208984375,0.9831190705299377,-7.7183074951171875,-5.1244893074035645
1761399113539018800,5.654018798828125,0.5681740045547485,-7.835997581481934,-5.15164852142334
1761399113549099300,5.664099365234375,0.19138649106025696,-7.867047309875488,-5.137507915496826
1761399113559180000,5.674179931640625,-0.18974047899246216,-7.845275402069092,-5.108179092407227
1761399113569261300,5.68426123046875,-0.4183119237422943,-7.998952865600586,-5.060070514678955
1761399113579341600,5.694341552734375,-0.4099322259426117,-8.372373580932617,-4.775759220123291
1761399113589402000,5.704402099609375,-0.17874212563037872,-8.863184928894043,-4.327220439910889
1761399113599478000,5.71447802734375,0.1156698688864708,-9.252243041992188,-3.9089083671569824
1761399113609583600,5.72458349609375,0.419209748506546,-9.523835182189941,-3.5468602180480957
1761399113619664400,5.734664306640625,0.6389525532722473,-9.546131134033203,-3.6006548404693604
1761399113629745000,5.744744873046875,0.2082207351922989,-9.258827209472656,-4.23549222946167
1761399113639825700,5.75482568359375,-0.5118354558944702,-8.776619911193848,-5.054159641265869
1761399113659987200,5.7749873046875,-1.315539002418518,-8.213607788085938,-5.976451396942139
1761399113670068000,5.78506787109375,-1.5195698738098145,-8.523358345031738,-6.094964027404785
1761399113680148500,5.7951484375,-1.6558897495269775,-9.137395858764648,-6.2038254737854
1761399113690229200,5.805229248046875,-1.4460229873657227,-9.56289005279541,-6.1419501304626465
1761399113700284700,5.81528466796875,-0.9289502501487732,-9.77253246307373,-5.841627597808838
1761399113710390800,5.825390869140625,-0.5006126165390015,-9.984719276428223,-5.598466396331787
1761399113720467700,5.8354677734375,-0.4679916203022003,-10.167351722717285,-5.58178186416626
1761399113730551600,5.845551513671875,-0.6536170840263367,-10.302549362182617,-5.921534061431885
1761399113740632800,5.8556328125,-0.7540987133979797,-10.328137397766113,-6.530933380126953
1761399113750713300,5.86571337890625,-0.5336825251579285,-10.267982482910156,-7.167491912841797
1761399113760794000,5.875794189453125,-0.8147019743919373,-10.204835891723633,-7.809586524963379
1761399113770875100,5.885875244140625,-1.26226806640625,-10.177002906799316,-7.796867370605469
1761399113780951600,5.89595166015625,-0.10227730125188828,-10.371232986450195,-6.93577766418457
1761399113791037000,5.906036865234375,1.045517921447754,-10.800094604492188,-5.460052013397217
1761399113801117000,5.916116943359375,1.530643105506897,-10.611700057983398,-3.7432594299316406
1761399113811197700,5.92619775390625,1.342399001121521,-10.349984169006348,-2.6460418701171875
1761399113821279000,5.936279052734375,1.3861680030822754,-10.667366027832031,-1.9431191682815552
1761399113831359200,5.946359130859375,1.4148235321044922,-11.457751274108887,-1.104400396347046
1761399113841436000,5.956435791015625,1.3685107231140137,-12.547487258911133,-0.2198924571275711
1761399113851495200,5.9664951171875,0.8298153281211853,-13.540931701660156,0.3529202938079834
1761399113861602600,5.9766025390625,0.056413378566503525,-13.956849098205566,0.6031891703605652
1761399113871681800,5.986681884765625,-0.3520224690437317,-13.814693450927734,0.45646950602531433
1761399113881737200,5.9967373046875,-0.1613093465566635,-12.90946102142334,-0.03628711774945259
1761399113891843800,6.00684375,0.533083975315094,-11.86386775970459,-0.8444049954414368
1761399113901923800,6.016923828125,1.209820032119751,-11.261277198791504,-1.876530408859253
1761399113912000800,6.027000732421875,1.5307927131652832,-11.054702758789062,-2.8482770919799805
1761399113922085400,6.03708544921875,1.4202104806900024,-10.78580379486084,-3.6700868606567383
1761399113932166400,6.04716650390625,1.1746551990509033,-10.226532936096191,-4.329464912414551
1761399113942222300,6.057222412109375,1.000252604484558,-9.459790229797363,-4.714183330535889
1761399113952302600,6.067302490234375,1.0473884344100952,-8.68982982635498,-4.756904602050781
1761399113962408700,6.07740869140625,1.0564415454864502,-7.858144283294678,-4.684255599975586
1761399113972473300,6.087473388671875,1.3317747116088867,-7.284957408905029,-4.4700493812561035
1761399113982570500,6.097570556640625,1.1463737487792969,-7.053318023681641,-3.9154176712036133
1761399113992650200,6.107650146484375,1.0109516382217407,-7.046360015869141,-3.2568624019622803
1761399114002731500,6.1177314453125,0.7516297101974487,-7.144298076629639,-2.8850131034851074
1761399114012815400,6.1278154296875,0.5694459080696106,-7.438410758972168,-2.4625113010406494
1761399114022869000,6.137868896484375,0.5751321315765381,-7.485920429229736,-2.421959400177002
1761399114032974000,6.14797412109375,0.6946926116943359,-7.442376136779785,-2.413729429244995
1761399114043050000,6.158050048828125,1.0826281309127808,-7.3692779541015625,-2.1412394046783447
1761399114053135600,6.168135498046875,1.4648773670196533,-7.1630024909973145,-1.9093010425567627
1761399114063215400,6.17821533203125,1.815627932548523,-6.895375728607178,-1.7351229190826416
1761399114073296100,6.188296142578125,1.984868049621582,-6.629918575286865,-1.5333365201950073
1761399114083377000,6.198376953125,2.0662708282470703,-6.442198276519775,-1.1176432371139526
1761399114093457400,6.20845751953125,2.1594951152801514,-6.076259613037109,-0.699780285358429
1761399114103513900,6.218513916015625,2.1588964462280273,-5.700220108032227,-0.12120646238327026
1761399114113619000,6.228618896484375,2.045994997024536,-5.400496006011963,0.24922142922878265
1761399114123699500,6.238699462890625,1.838597297668457,-5.214870452880859,0.39781156182289124
1761399114133779000,6.248779052734375,1.5693992376327515,-5.135562419891357,0.3032405972480774
1761399114143861500,6.258861572265625,1.3634978532791138,-5.1595048904418945,-0.03613748028874397
1761399114153941800,6.268941650390625,1.3742717504501343,-5.193995952606201,-0.3777601420879364
1761399114164018400,6.279018310546875,1.5351321697235107,-5.295076370239258,-0.7833528518676758
1761399114174103000,6.28910302734375,1.810315728187561,-5.65727424621582,-1.4349498748779297
1761399114184149000,6.29914892578125,2.3208792209625244,-6.237119674682617,-2.4583213329315186
1761399114194265000,6.30926513671875,2.989609718322754,-6.989647388458252,-3.6483144760131836
1761399114204345600,6.319345703125,3.827505588531494,-7.8716864585876465,-4.8593316078186035
1761399114214396700,6.329396728515625,4.776133060455322,-8.943690299987793,-6.198962211608887
1761399114224506600,6.339506591796875,5.598690986633301,-10.300603866577148,-7.704840183258057
1761399114234588000,6.349587890625,5.656675815582275,-12.167781829833984,-9.388188362121582
1761399114244668000,6.35966796875,5.163544654846191,-13.878214836120605,-10.767772674560547
1761399114254748700,6.369748779296875,5.1886091232299805,-14.12010383605957,-10.86518669128418
1761399114264829400,6.379829345703125,5.388599872589111,-12.50050163269043,-9.592443466186523
1761399114274910200,6.38991015625,5.146934986114502,-10.824934005737305,-7.973439693450928
1761399114284991000,6.399990966796875,5.086855411529541,-9.396268844604492,-6.760926246643066
1761399114295072000,6.410072021484375,5.303979873657227,-7.777190208435059,-6.023886203765869
1761399114305152300,6.42015234375,5.417928695678711,-6.025681972503662,-5.512350082397461
1761399114315232800,6.430232666015625,5.171625137329102,-4.454262733459473,-4.901753902435303
1761399114325318700,6.440318603515625,4.854543209075928,-3.3279404640197754,-4.230180263519287
1761399114335394800,6.450394775390625,4.5691094398498535,-2.864737033843994,-3.9181859493255615
1761399114345475000,6.46047509765625,4.656198501586914,-3.487753391265869,-3.8733694553375244
1761399114355530800,6.47053076171875,4.302679538726807,-5.616123676300049,-3.6088101863861084
1761399114365637400,6.480637451171875,2.435277223587036,-9.670105934143066,-4.085256099700928
1761399114375717000,6.490717041015625,2.214935779571533,-14.119430541992188,-4.564021587371826
1761399114385798100,6.500798095703125,3.7916672229766846,-17.700408935546875,-4.145185947418213
1761399114395878400,6.51087841796875,2.1071219444274902,-18.813114166259766,-3.3488147258758545
1761399114405959200,6.520959228515625,-0.6605004072189331,-17.00900650024414,-3.4683003425598145
1761399114416040200,6.531040283203125,-2.0418050289154053,-12.852897644042969,-3.459920644760132
1761399114426120700,6.54112060546875,-2.7959787845611572,-9.105073928833008,-2.1721394062042236
1761399114436201700,6.55120166015625,-3.7627124786376953,-7.149983882904053,-0.6291513442993164
1761399114446282000,6.561281982421875,-3.2695069313049316,-6.608370780944824,-0.16400282084941864
1761399114456362800,6.57136279296875,-2.068889617919922,-7.095216751098633,0.03411737456917763
1761399114466443300,6.581443359375,-1.1988965272903442,-7.326780796051025,0.9748889803886414
1761399114476524000,6.59152392578125,-1.2713959217071533,-7.510012149810791,1.3283330202102661
1761399114486605300,6.601605224609375,-1.4083890914916992,-8.824278831481934,0.6085013151168823
1761399114496660000,6.611659912109375,-2.153285264968872,-11.476381301879883,-1.4488661289215088
1761399114506741500,6.621741455078125,-2.7207109928131104,-13.728951454162598,-4.03737211227417
1761399114516847000,6.63184716796875,-2.1546318531036377,-13.315202713012695,-5.398775100708008
1761399114526902500,6.641902587890625,-1.095571756362915,-11.434408187866211,-5.207912445068359
1761399114536983300,6.6519833984375,-0.10960954427719116,-9.956512451171875,-4.403685092926025
1761399114547064000,6.66206396484375,0.3322702944278717,-9.353248596191406,-3.837980031967163
1761399114557144800,6.672144775390625,0.04758475720882416,-9.112107276916504,-2.9846715927124023
1761399114567225000,6.68222509765625,-0.8470236659049988,-9.111733436584473,-2.2467339038848877
1761399114577305000,6.69230517578125,-1.0636988878250122,-9.391031265258789,-1.367687702178955
1761399114587375000,6.702375,-1.4941314458847046,-9.221193313598633,-1.4318073987960815
1761399114597466400,6.71246630859375,-2.4817397594451904,-8.430583000183105,-1.9066075086593628
1761399114607555800,6.722555908203125,-3.398569345474243,-7.726837158203125,-2.4582467079162598
1761399114617638000,6.732637939453125,-3.5242648124694824,-7.6851630210876465,-3.6583402156829834
1761399114627723300,6.74272314453125,-3.0317327976226807,-7.958176612854004,-5.305625915527344
1761399114637815800,6.75281591796875,-2.421959400177002,-7.783774375915527,-6.4266357421875
1761399114647883500,6.762883544921875,-1.7353472709655762,-7.330372333526611,-6.875174522399902
1761399114657976800,6.772976806640625,-1.19059157371521,-7.184774875640869,-7.061099529266357
1761399114668050700,6.78305078125,-0.8055740594863892,-7.356110095977783,-7.303961277008057
1761399114678126600,6.793126708984375,-0.4222024977207184,-7.7661919593811035,-7.219266414642334
1761399114688219400,6.803219482421875,-0.251241534948349,-8.088062286376953,-6.6104655265808105
1761399114698286800,6.813286865234375,-0.08177695423364639,-8.089035034179688,-5.9281182289123535
1761399114708380200,6.823380126953125,-0.08043020963668823,-8.03075122833252,-5.658545970916748
1761399114718461400,6.83346142578125,0.0006733692134730518,-7.9800238609313965,-5.834519863128662
1761399114728542200,6.843542236328125,0.36324527859687805,-8.083199501037598,-6.203526020050049
1761399114738607900,6.85360791015625,0.7528268098831177,-8.073996543884277,-6.161478042602539
1761399114748703500,6.863703369140625,0.884058952331543,-8.12868881225586,-5.850231647491455
1761399114758783700,6.87378369140625,0.5387701988220215,-8.077812194824219,-5.485415458679199
1761399114768864500,6.883864501953125,0.23777416348457336,-7.932663440704346,-5.155389785766602
1761399114778945800,6.89394580078125,-0.21353286504745483,-8.030900955200195,-5.290587425231934
1761399114789021400,6.904021484375,-0.20358195900917053,-7.849914073944092,-4.853046894073486
1761399114799104800,6.914104736328125,0.005162497516721487,-7.551237106323242,-4.70991849899292
1761399114809187800,6.924187744140625,0.06584054976701736,-7.379453182220459,-4.625148773193359
1761399114819268900,6.934268798828125,0.2694973349571228,-7.347131729125977,-4.577938079833984
1761399114829337600,6.944337646484375,0.34184712171554565,-7.930718421936035,-5.2096333503723145
1761399114839429600,6.9544296875,0.36743512749671936,-7.99528694152832,-5.2026753425598145
1761399114849510400,6.964510498046875,-0.17477671802043915,-7.974412441253662,-5.390320777893066
1761399114859589600,6.974589599609375,-0.05835866555571556,-7.509189128875732,-4.7864580154418945
1761399114869670400,6.98467041015625,0.17238251864910126,-7.624783992767334,-4.607716083526611
1761399114879752700,6.994752685546875,0.1296609789133072,-8.171335220336914,-4.792667865753174
1761399114889822000,7.004822021484375,0.18121114373207092,-8.697311401367188,-4.8555908203125
1761399114899913700,7.014913818359375,0.339078813791275,-9.138742446899414,-4.82865571975708
1761399114909982000,7.02498193359375,0.4976198673248291,-9.397690773010254,-4.6920366287231445
1761399114920075500,7.035075439453125,0.8365490436553955,-9.337387084960938,-4.440047264099121
1761399114930153700,7.04515380859375,0.8981249332427979,-9.225308418273926,-4.505214214324951
1761399114940237300,7.0552373046875,0.6335656046867371,-9.123929023742676,-5.095609188079834
1761399114950305800,7.065305908203125,0.26336219906806946,-8.986710548400879,-5.603479385375977
1761399114960398300,7.0753984375,0.13175591826438904,-8.931195259094238,-5.948543548583984
1761399114970476500,7.0854765625,0.3280056416988373,-8.912415504455566,-6.09668493270874
1761399114980558600,7.09555859375,0.32216978073120117,-8.853158950805664,-6.13289737701416
1761399114990638300,7.105638427734375,-0.4597615599632263,-9.06527042388916,-6.451924800872803
1761399115000716800,7.115716796875,-1.0680384635925293,-9.1068696975708,-6.670395374298096
1761399115010789000,7.1257890625,-0.30114567279815674,-8.78200626373291,-6.961515426635742
1761399115020882700,7.135882568359375,0.2858078181743622,-8.483405113220215,-7.070825576782227
1761399115030963000,7.145962890625,0.05259761959314346,-8.669778823852539,-6.633584499359131
1761399115041044200,7.156044189453125,0.13789105415344238,-9.339706420898438,-5.552976608276367
1761399115051124500,7.16612451171875,0.7059902548789978,-10.500743865966797,-4.371139049530029
1761399115061201400,7.176201416015625,1.4202853441238403,-12.33133602142334,-3.208828926086426
1761399115081350100,7.19635009765625,2.3903110027313232,-16.432004928588867,-1.5218144655227661
1761399115091436800,7.206436767578125,2.093280553817749,-16.869918823242188,-0.8135796785354614
1761399115101516000,7.21651611328125,1.1817630529403687,-15.568446159362793,-0.7604582905769348
1761399115111609000,7.226609130859375,0.1760486364364624,-13.251233100891113,-2.1455788612365723
1761399115121693700,7.236693603515625,-0.3935469090938568,-11.302427291870117,-3.9157168865203857
1761399115131757800,7.2467578125,-0.10399813950061798,-10.451139450073242,-5.646949291229248
1761399115141851000,7.256850830078125,0.5520131587982178,-10.260201454162598,-7.095815181732178
1761399115151917000,7.2669169921875,1.045742392539978,-9.864859580993652,-8.282217025756836
1761399115162012400,7.277012451171875,1.6454899311065674,-8.780136108398438,-8.404471397399902
1761399115172087000,7.287087158203125,2.3297078609466553,-7.788487911224365,-7.887248516082764
1761399115182174000,7.297174072265625,2.80361008644104,-7.377508163452148,-7.035660743713379
1761399115192252700,7.307252685546875,2.4661026000976562,-7.158064365386963,-6.3266777992248535
1761399115202335000,7.3173349609375,1.8860323429107666,-6.949843883514404,-5.426084041595459
1761399115212416000,7.327416015625,1.2787281274795532,-6.761824131011963,-4.66787052154541
1761399115222478600,7.337478515625,0.5324854254722595,-6.571709632873535,-4.017171382904053
1761399115232577500,7.34757763671875,-0.0036661212798208,-6.259565353393555,-3.325321674346924
1761399115242657800,7.35765771484375,-0.09449614584445953,-5.941884994506836,-2.750638484954834
1761399115252737500,7.367737548828125,0.38486793637275696,-5.741146087646484,-2.0823569297790527
1761399115272886800,7.38788671875,1.5435867309570312,-5.812897205352783,-1.076343297958374
1761399115282980900,7.39798095703125,1.9561376571655273,-6.101996898651123,-0.7097311615943909
1761399115293061600,7.4080615234375,2.325218677520752,-6.417208671569824,-0.4123264253139496
1761399115303129300,7.41812939453125,2.516305923461914,-6.77042818069458,-0.1057937890291214
1761399115313223200,7.42822314453125,2.5254337787628174,-6.920290470123291,0.05282207578420639
1761399115323301600,7.438301513671875,2.269179582595825,-6.631864070892334,0.07175122946500778
1761399115333373400,7.44837353515625,1.8757822513580322,-5.955502033233643,-0.2720411717891693
1761399115343433200,7.45843310546875,1.4697405099868774,-5.394435882568359,-0.9523685574531555
1761399115353545700,7.468545654296875,1.3290811777114868,-5.073987007141113,-1.5767314434051514
1761399115363626500,7.47862646484375,1.3664158582687378,-4.935347557067871,-2.1851580142974854
1761399115373694500,7.488694580078125,1.5244331359863281,-5.028197765350342,-2.8810477256774902
1761399115383786200,7.4987861328125,1.7942297458648682,-5.233275890350342,-3.5586066246032715
1761399115393868500,7.50886865234375,1.9818004369735718,-5.437007427215576,-4.197484493255615
1761399115403949000,7.518948974609375,2.050035238265991,-5.681365966796875,-4.7975311279296875
1761399115414030000,7.529030029296875,2.160916566848755,-5.982511520385742,-5.286172866821289
1761399115424110600,7.539110595703125,2.5083751678466797,-6.339995861053467,-5.6611647605896
1761399115434191600,7.549191650390625,3.2199769020080566,-6.858190536499023,-5.883152008056641
1761399115444271600,7.559271728515625,4.2352681159973145,-7.584980487823486,-6.077157497406006
1761399115454352400,7.569352294921875,5.228562355041504,-8.538396835327148,-6.519261360168457
1761399115464433700,7.57943359375,5.979892730712891,-9.530868530273438,-7.364264965057373
1761399115474514200,7.58951416015625,6.544400691986084,-10.340781211853027,-8.12292766571045
1761399115484576500,7.599576416015625,6.686855792999268,-10.932747840881348,-8.667160034179688
1761399115494676000,7.609676025390625,6.2242512702941895,-11.28334903717041,-8.749385833740234
1761399115504756500,7.619756591796875,5.461248874664307,-10.937012672424316,-8.530316352844238
1761399115514831600,7.62983154296875,4.7287726402282715,-10.091710090637207,-7.974262714385986
1761399115524917800,7.639917724609375,4.148627758026123,-9.048959732055664,-7.298125267028809
1761399115534995200,7.6499951171875,4.091092109680176,-7.948749542236328,-6.811877727508545
1761399115545079300,7.660079345703125,4.7800984382629395,-6.934131622314453,-6.7282304763793945
1761399115555159800,7.670159912109375,5.901707172393799,-6.2352495193481445,-6.733542442321777
1761399115565240600,7.680240478515625,6.879514217376709,-6.380846977233887,-6.505120754241943
1761399115575318800,7.69031884765625,5.891082763671875,-8.797045707702637,-6.915127754211426
1761399115585402000,7.700402099609375,5.0166754722595215,-12.11279010772705,-7.272836685180664
1761399115595481900,7.71048193359375,4.978592872619629,-13.819332122802734,-5.890035629272461
1761399115605548500,7.720548583984375,4.700566291809082,-13.719972610473633,-3.8207719326019287
1761399115625712400,7.74071240234375,0.6102969646453857,-10.010307312011719,-2.0329766273498535
1761399115645884000,7.7608837890625,-0.4861725866794586,-5.935675144195557,-0.9947159886360168
1761399115655954200,7.7709541015625,-0.6480804681777954,-5.633407115936279,-0.6891559958457947
1761399115666047700,7.7810478515625,-1.9081039428710938,-5.874922275543213,-0.6218190789222717
1761399115676116000,7.791115966796875,-1.8399440050125122,-7.205424785614014,-0.2810942530632019
1761399115686208800,7.801208740234375,-1.309403896331787,-9.039382934570312,-0.5318120718002319
1761399115696287700,7.811287841796875,-0.9738415479660034,-10.385822296142578,-1.291671872138977
1761399115706353400,7.821353515625,-1.2788029909133911,-11.101913452148438,-2.124255418777466
1761399115716451300,7.831451416015625,-1.7539024353027344,-11.492542266845703,-3.035698175430298
1761399115726545400,7.84154541015625,-1.9252374172210693,-11.43867301940918,-3.5101242065429688
1761399115736582000,7.851581787109375,-1.702277421951294,-11.079318046569824,-3.423783302307129
1761399115746693400,7.861693359375,-1.5260791778564453,-10.398017883300781,-3.960308790206909
1761399115756772400,7.8717724609375,-1.2758851051330566,-10.087221145629883,-4.375777721405029
1761399115766855200,7.881855224609375,-0.5961562395095825,-9.854010581970215,-4.442740440368652
1761399115776917800,7.891917724609375,0.21757307648658752,-9.461585998535156,-4.5079827308654785
1761399115787016400,7.902016357421875,0.5627121925354004,-9.025542259216309,-4.336946964263916
1761399115797097000,7.912096923828125,0.4275146424770355,-8.697161674499512,-4.018293380737305
1761399115807174700,7.922174560546875,0.431255578994751,-8.583587646484375,-3.7444565296173096
1761399115817257700,7.9322578125,0.11993454396724701,-8.6019926071167,-3.5593550205230713
1761399115827324200,7.94232421875,-0.4059668183326721,-8.806023597717285,-3.330559015274048
1761399115837419800,7.952419677734375,-0.9924713969230652,-9.029058456420898,-3.14972186088562
1761399115847500500,7.96250048828125,-1.5067758560180664,-9.052850723266602,-2.9800329208374023
1761399115857574700,7.97257470703125,-1.6574609279632568,-8.759112358093262,-2.845583438873291
1761399115867645400,7.9826455078125,-1.681777000427246,-8.256853103637695,-2.9856443405151367
1761399115877729500,7.9927294921875,-1.7319804430007935,-7.959747791290283,-3.357942819595337
1761399115887821000,8.002821044921875,-1.8699463605880737,-7.855974197387695,-3.971606492996216
1761399115897899800,8.012899658203125,-1.9025673866271973,-7.8693671226501465,-4.838681697845459
1761399115907985000,8.02298486328125,-1.6687586307525635,-7.794622898101807,-5.677999019622803
1761399115918044400,8.03304443359375,-1.1327567100524902,-7.517643928527832,-6.235922813415527
1761399115928145700,8.043145751953125,-0.564807116985321,-7.236025810241699,-6.335207462310791
1761399115938236000,8.05323583984375,-0.13908815383911133,-7.19248104095459,-6.295403957366943
1761399115948307500,8.063307373046875,0.20597615838050842,-7.424269676208496,-5.960963726043701
1761399115958391600,8.0733916015625,0.5276222229003906,-7.722871780395508,-5.388375282287598
1761399115968468700,8.08346875,0.5538836121559143,-7.943138122558594,-4.8680853843688965
1761399115978543400,8.09354345703125,0.3315221071243286,-8.020501136779785,-4.521524906158447
1761399115988630000,8.103630126953124,-0.09599252790212631,-8.058882713317871,-4.5423994064331055
1761399115998701300,8.113701416015624,0.04953004792332649,-8.091728210449219,-4.496310710906982
1761399116008791800,8.123791748046875,0.1761234551668167,-8.057760238647461,-4.527659893035889
1761399116018870500,8.13387060546875,0.3056347966194153,-8.084246635437012,-4.674454212188721
1761399116028953300,8.143953369140625,0.23620295524597168,-8.075716972351074,-4.731989860534668
1761399116039034400,8.154034423828126,0.24271219968795776,-7.919645309448242,-4.665925025939941
1761399116049114600,8.164114501953126,0.36893153190612793,-7.824251174926758,-4.524667263031006
1761399116059195100,8.174195068359374,0.5188683867454529,-7.886200904846191,-4.540753364562988
1761399116069276000,8.18427587890625,0.3762637674808502,-8.148591041564941,-4.995950698852539
1761399116079355000,8.19435498046875,-0.09322422742843628,-8.305261611938477,-5.623830318450928
1761399116089437200,8.204437255859375,-0.3361608684062958,-8.212410926818848,-6.0411696434021
1761399116099518500,8.2145185546875,-0.1454477459192276,-8.274885177612305,-5.990067958831787
1761399116109576400,8.224576416015625,-0.12000936269760132,-8.704045295715332,-5.563825607299805
1761399116119680000,8.234679931640626,-0.21547815203666687,-9.299901962280273,-5.157334804534912
1761399116129759700,8.244759765625,-0.47652095556259155,-9.74245548248291,-5.018695831298828
1761399116139841300,8.25484130859375,-0.9184008240699768,-9.930924415588379,-5.2352213859558105
1761399116149919500,8.26491943359375,-1.0455927848815918,-9.856853485107422,-5.517213344573975
1761399116160002300,8.275002197265625,-0.6840683221817017,-9.705345153808594,-5.658695697784424
1761399116170082600,8.28508251953125,-0.1464204043149948,-9.641824722290039,-5.335927486419678
1761399116180163600,8.29516357421875,0.21443068981170654,-9.627309799194336,-4.936619281768799
1761399116190244400,8.305244384765626,0.22281040251255035,-9.623867988586426,-4.7836151123046875
1761399116200311300,8.315311279296875,-0.22707507014274597,-9.712752342224121,-5.269862174987793
1761399116210403800,8.32540380859375,-0.7599346041679382,-9.693000793457031,-5.793294906616211
1761399116220473900,8.335473876953126,-0.2605190873146057,-9.388188362121582,-6.4077067375183105
1761399116230547000,8.345546875,-0.030451253056526184,-9.124153137207031,-7.1588873863220215
1761399116240646100,8.355646240234375,-0.4677671492099762,-9.090035438537598,-7.822006702423096
1761399116250715600,8.365715576171874,-0.5553051829338074,-9.570446968078613,-7.906177520751953
1761399116260809500,8.3758095703125,0.18532617390155792,-10.10861873626709,-6.628870964050293
1761399116270890000,8.385889892578126,0.8390928506851196,-10.656217575073242,-4.584073066711426
1761399116280955600,8.39595556640625,1.1797429323196411,-11.098995208740234,-3.0039749145507812
1761399116291051300,8.40605126953125,0.8090905547142029,-11.800870895385742,-1.9487305879592896
1761399116301132300,8.41613232421875,0.45908817648887634,-13.04091739654541,-0.9326163530349731
1761399116311215600,8.426215576171876,0.5331587791442871,-14.542455673217773,0.330848753452301
1761399116321293800,8.4362939453125,0.6174047589302063,-15.613786697387695,1.3478606939315796
1761399116341451300,8.456451171875,0.2968061864376068,-14.547618865966797,0.6417208909988403
1761399116351529200,8.466529296875,-0.04668693244457245,-12.449250221252441,-0.46642041206359863
1761399116361616100,8.4766162109375,0.4199579358100891,-10.925715446472168,-1.9297266006469727
1761399116371697200,8.486697265625,1.4368202686309814,-10.538901329040527,-3.764059066772461
1761399116381765400,8.496765380859374,1.7137247323989868,-10.572869300842285,-4.824466228485107
1761399116391865300,8.506865234375,1.1059715747833252,-10.624943733215332,-5.631536483764648
1761399116401937400,8.5169375,0.6937947869300842,-9.849895477294922,-6.226046562194824
1761399116412020000,8.52702001953125,0.9078513383865356,-8.776470184326172,-6.083217620849609
1761399116422090200,8.53709033203125,1.4431798458099365,-8.123526573181152,-5.421595096588135
1761399116432181200,8.54718115234375,1.7318308353424072,-7.662792205810547,-5.1454386711120605
1761399116442262000,8.557261962890625,1.638756275177002,-7.411625385284424,-4.801421642303467
1761399116452349700,8.567349609375,1.2667571306228638,-7.289596080780029,-4.048445224761963
1761399116462415600,8.57741552734375,0.4787655174732208,-6.993238925933838,-3.4180970191955566
1761399116472502500,8.58750244140625,-0.14088380336761475,-6.633584499359131,-2.973224401473999
1761399116482584800,8.597584716796876,-0.2522141933441162,-6.378676891326904,-2.56770658493042
1761399116492652800,8.60765283203125,0.041524436324834824,-6.261510848999023,-2.365321636199951
1761399116502746400,8.617746337890624,0.48220717906951904,-6.369399547576904,-2.3999626636505127
1761399116512827000,8.627826904296874,1.139864444732666,-6.564377307891846,-2.1682488918304443
1761399116522895400,8.637895263671876,1.8023101091384888,-6.493673324584961,-1.5998504161834717
1761399116532987000,8.64798681640625,2.227355718612671,-6.186542510986328,-0.9887304902076721
1761399116543069000,8.65806884765625,2.5230395793914795,-5.928566932678223,-0.34917935729026794
1761399116553150000,8.66814990234375,2.651578426361084,-5.656301498413086,0.12958616018295288
1761399116563230500,8.67823046875,2.5147347450256348,-5.182474136352539,0.24809914827346802
1761399116573311500,8.6883115234375,2.135179042816162,-4.538134574890137,-0.14095862209796906
1761399116583368700,8.69836865234375,1.6759412288665771,-4.24933385848999,-0.6239140033721924
1761399116593476400,8.708476318359375,1.3048399686813354,-4.278438568115234,-1.0066121816635132
1761399116603538700,8.71853857421875,1.110984444618225,-4.40809965133667,-1.49854576587677
1761399116613622800,8.728622802734375,1.0760440826416016,-4.586841583251953,-2.1093664169311523
1761399116623701800,8.73870166015625,1.4015806913375854,-4.79745626449585,-2.8773815631866455
1761399116633795300,8.74879541015625,1.884311556816101,-4.971035957336426,-3.640009641647339
1761399116643876400,8.75887646484375,2.20348858833313,-5.187112808227539,-4.372635364532471
1761399116653944300,8.7689443359375,2.5643396377563477,-5.702165603637695,-5.325003623962402
1761399116664035800,8.779035888671874,3.352480888366699,-6.4911298751831055,-6.3581767082214355
1761399116674118400,8.789118408203125,4.353481769561768,-7.546748161315918,-7.461005687713623
1761399116684199000,8.799198974609375,5.4054341316223145,-9.003246307373047,-8.558223724365234
1761399116694280200,8.8092802734375,6.444742202758789,-11.022156715393066,-9.89089584350586
1761399116704360400,8.8193603515625,6.961814880371094,-13.28258228302002,-11.267786979675293
1761399116714428000,8.829427978515625,6.992864608764648,-13.984232902526855,-11.758822441101074
1761399116724502300,8.839502197265626,6.720449447631836,-12.322656631469727,-10.656367301940918
1761399116734597600,8.84959765625,6.279691696166992,-10.556334495544434,-8.939499855041504
1761399116744649700,8.859649658203125,5.826065540313721,-9.315539360046387,-7.752350330352783
1761399116754763800,8.869763671875,5.443292617797852,-8.049006462097168,-6.971690654754639
1761399116764844500,8.879844482421875,5.1746931076049805,-6.6448073387146,-6.237269401550293
1761399116774912300,8.889912353515625,4.831049919128418,-5.094038009643555,-5.173346042633057
1761399116785006300,8.90000634765625,4.777479648590088,-3.547758102416992,-4.325050354003906
1761399116795074800,8.91007470703125,5.557391166687012,-3.5038392543792725,-3.370587110519409
1761399116805161700,8.92016162109375,5.19713830947876,-7.002291679382324,-3.140519142150879
1761399116815248100,8.930248046875,4.175113677978516,-11.785158157348633,-3.6534769535064697
1761399116825328600,8.94032861328125,3.9846251010894775,-16.19318389892578,-3.180622100830078
1761399116835409700,8.95040966796875,3.2562639713287354,-18.202590942382812,-2.2049100399017334
1761399116845489000,8.960489013671875,0.725218653678894,-16.6397762298584,-1.763479232788086
1761399116855576000,8.970576171875,-0.8476222157478333,-12.796858787536621,-2.3138463497161865
1761399116865636600,8.98063671875,-0.9454852342605591,-9.008034706115723,-2.5068788528442383
1761399116875732700,8.990732666015624,-1.481038212776184,-7.435941696166992,-1.8664298057556152
1761399116885811700,9.000811767578124,-2.405648946762085,-6.5965495109558105,-1.680430293083191
1761399116895894000,9.01089404296875,-1.7467197179794312,-6.065784931182861,-1.6684592962265015
1761399116905974500,9.020974609375,-0.8046762347221375,-6.471377372741699,-1.3335703611373901
1761399116916053200,9.03105322265625,-0.6313958764076233,-6.917297840118408,-1.3297545909881592
1761399116926124500,9.04112451171875,-0.5035305619239807,-7.623661994934082,-1.446696400642395
1761399116936205000,9.051205078125,-1.011400580406189,-9.035866737365723,-2.682478666305542
1761399116946297300,9.06129736328125,-1.8865561485290527,-10.651205062866211,-4.283301830291748
1761399116956373200,9.071373291015625,-2.047266960144043,-11.60484504699707,-5.786187171936035
1761399116966453000,9.081452880859375,-1.7176152467727661,-11.213842391967773,-6.368052959442139
1761399116976537600,9.09153759765625,-1.3675380945205688,-9.99145221710205,-5.97218656539917
1761399116986618400,9.101618408203125,-0.7293336987495422,-8.975563049316406,-5.261782169342041
1761399116996700700,9.11170068359375,-0.016759412363171577,-8.584185600280762,-4.704082489013672
1761399117006782000,9.121781982421876,0.15652093291282654,-8.455272674560547,-3.861473321914673
1761399117016843000,9.131843017578126,0.1480664163827896,-8.511910438537598,-3.0067431926727295
1761399117026943000,9.14194287109375,0.18869301676750183,-8.635661125183105,-2.395623207092285
1761399117037021700,9.152021728515624,0.17814357578754425,-8.80856704711914,-2.171840190887451
1761399117047087900,9.162087890625,-0.24173955619335175,-8.963217735290527,-2.117222547531128
1761399117057172500,9.17217236328125,-0.7387608885765076,-8.968605041503906,-2.198775053024292
1761399117067260200,9.18226025390625,-1.121833086013794,-8.844554901123047,-2.437222480773926
1761399117077334500,9.19233447265625,-1.3920037746429443,-8.737789154052734,-3.012354612350464
1761399117087424800,9.2024248046875,-1.6113725900650024,-8.445695877075195,-3.6431519985198975
1761399117097507300,9.21250732421875,-1.6776620149612427,-8.098088264465332,-4.180500507354736
1761399117107570000,9.22256982421875,-1.735422134399414,-7.880215644836426,-4.599860191345215
1761399117117669000,9.232669189453125,-1.6473604440689087,-7.830685615539551,-5.048024654388428
1761399117127750000,9.24275,-1.409960389137268,-7.7854204177856445,-5.535693645477295
1761399117137831000,9.252830810546875,-1.1185411214828491,-7.679551601409912,-6.037204265594482
1761399117147899100,9.262899169921875,-0.8278700709342957,-7.848492622375488,-6.367304801940918
1761399117157970700,9.272970703125,-0.4348468780517578,-8.227001190185547,-6.3284735679626465
1761399117168071000,9.28307080078125,0.020949264988303185,-8.479439735412598,-5.842076778411865
1761399117178154000,9.293154052734375,0.5190180540084839,-8.552013397216797,-5.1483564376831055
1761399117188222700,9.30322265625,0.8328829407691956,-8.35793399810791,-4.560056209564209
1761399117198315300,9.313315185546875,0.7637503147125244,-8.739359855651855,-4.5272111892700195
1761399117208398300,9.3233984375,0.6834697723388672,-8.996886253356934,-4.473566055297852
1761399117218476300,9.333476318359375,0.5299415588378906,-8.98349380493164,-4.336572647094727
1761399117228557000,9.34355712890625,0.3279308080673218,-8.752452850341797,-4.259359836578369
1761399117238612200,9.3536123046875,0.22842180728912354,-8.36489200592041,-4.212897300720215
1761399117248701200,9.363701171875,0.19849428534507751,-7.976357936859131,-4.222698211669922
1761399117258796800,9.373796875,0.24682722985744476,-7.649698734283447,-4.343231678009033
1761399117268880400,9.38388037109375,0.42339959740638733,-7.436465263366699,-4.457330226898193
1761399117278960600,9.393960693359375,0.31221887469291687,-7.443423271179199,-5.002534866333008
1761399117289041200,9.404041259765625,-0.13497312366962433,-7.443348407745361,-5.458555221557617
1761399117299119600,9.41411962890625,-0.8771756291389465,-7.620519638061523,-6.165593147277832
1761399117309202400,9.424202392578126,-1.40217924118042,-7.4439473152160645,-6.3307929039001465
1761399117319283500,9.434283447265624,-0.921318769454956,-7.617377281188965,-6.222829341888428
1761399117329363700,9.44436376953125,-0.3876362144947052,-8.319626808166504,-5.669693946838379
1761399117339432000,9.454431884765626,0.05431845039129257,-9.309927940368652,-4.9129767417907715
1761399117349525800,9.46452587890625,0.4017769694328308,-9.682151794433594,-4.1151838302612305
1761399117359604000,9.47460400390625,-0.49470192193984985,-10.03028392791748,-3.999439239501953
1761399117369687000,9.48468701171875,-0.999878466129303,-9.65499210357666,-4.192546367645264
1761399117379754500,9.49475439453125,-0.9307458996772766,-9.347187995910645,-4.703708648681641
1761399117389848000,9.50484814453125,-0.41718965768814087,-9.295188903808594,-5.0073981285095215
1761399117399928800,9.5149287109375,0.25326165556907654,-9.539920806884766,-4.805013179779053
1761399117409993200,9.5249931640625,0.6371569037437439,-9.679083824157715,-4.564695358276367
1761399117420090400,9.53509033203125,0.7600094079971313,-9.561842918395996,-4.674379348754883
1761399117430169600,9.545169677734375,0.6795791983604431,-9.220070838928223,-5.161749362945557
1761399117440251600,9.555251708984375,0.017881693318486214,-8.831761360168457,-5.9735331535339355
1761399117450332200,9.565332275390626,-1.1712135076522827,-8.777891159057617,-6.941239833831787
1761399117460413400,9.575413330078124,-1.4386159181594849,-8.697610855102539,-7.574954986572266
1761399117470495000,9.585494873046875,-0.1826326996088028,-8.67022705078125,-8.002095222473145
1761399117480561700,9.595561767578126,-0.20807109773159027,-8.989179611206055,-8.340276718139648
1761399117490651600,9.605651611328126,-0.8936358094215393,-9.694646835327148,-8.611793518066406
1761399117500723000,9.615722900390624,-1.0785130262374878,-10.600626945495605,-8.328081130981445
1761399117510816800,9.625816650390625,-0.814253032207489,-11.174038887023926,-7.0924482345581055
1761399117520897500,9.6358974609375,-0.3215712010860443,-10.984672546386719,-5.535618782043457
1761399117530978000,9.64597802734375,0.1720084249973297,-10.768146514892578,-4.357222557067871
1761399117541047600,9.656047607421876,0.5159504413604736,-10.9307279586792,-2.9099276065826416
1761399117551139800,9.666139892578125,0.9929951429367065,-11.552098274230957,-1.366266131401062
1761399117561216500,9.676216552734376,1.2993032932281494,-12.439074516296387,-0.16632220149040222
1761399117571301000,9.686301025390625,1.263465166091919,-12.841750144958496,0.6872855424880981
1761399117581369600,9.69636962890625,1.260547161102295,-13.349170684814453,-0.08791209012269974
1761399117591462100,9.706462158203125,0.9721207022666931,-12.363582611083984,-0.7642740607261658
1761399117601534700,9.71653466796875,0.15906476974487305,-10.439692497253418,-2.205059766769409
1761399117611611100,9.726611083984375,-0.43035775423049927,-8.872238159179688,-3.9944262504577637
1761399117621683700,9.73668359375,-0.0009726444259285927,-8.5479736328125,-5.568987846374512
1761399117631769600,9.74676953125,1.1035025119781494,-9.282245635986328,-6.651017665863037
1761399117641845000,9.756844970703124,1.2725930213928223,-9.844209671020508,-7.099855422973633
1761399117651947300,9.766947265625,1.0508301258087158,-9.539472579956055,-7.310769557952881
1761399117662014700,9.7770146484375,1.1231050491333008,-8.767117500305176,-7.243956565856934
1761399117672108300,9.7871083984375,1.5921441316604614,-8.002320289611816,-6.655057907104492
1761399117682179000,9.797178955078126,1.8963574171066284,-7.5632829666137695,-5.914052486419678
1761399117692269000,9.80726904296875,2.00230073928833,-7.377058982849121,-5.002235412597656
1761399117702350000,9.81735009765625,1.8343325853347778,-7.286079406738281,-4.287267208099365
1761399117712430600,9.8274306640625,1.4122048616409302,-7.291840553283691,-3.8290767669677734
1761399117722499300,9.837499267578124,0.9650877118110657,-7.314884662628174,-3.536909341812134
1761399117732588000,9.847588134765624,0.8138041496276855,-7.335235595703125,-3.3919105529785156
1761399117742673400,9.85767333984375,0.9840916991233826,-7.442451000213623,-3.318887233734131
1761399117752733200,9.867733154296875,1.283516526222229,-7.568819522857666,-3.4322378635406494
1761399117762834400,9.87783447265625,1.6222212314605713,-7.409156322479248,-3.766303777694702
1761399117772915200,9.887915283203125,1.8570774793624878,-7.533505439758301,-3.486032485961914
1761399117782996200,9.897996337890625,1.9223195314407349,-7.3681559562683105,-3.4956841468811035
1761399117793044700,9.908044677734376,1.9714754819869995,-7.106215000152588,-3.6418051719665527
1761399117803131600,9.918131591796875,2.019883155822754,-6.76115083694458,-3.5336172580718994
1761399117813209900,9.9282099609375,2.0439748764038086,-6.304756164550781,-3.4094181060791016
1761399117823293700,9.938293701171874,2.024447202682495,-5.855094909667969,-3.197157144546509
1761399117833374200,9.948374267578124,2.0400094985961914,-5.550582408905029,-3.0936827659606934
1761399117843455000,9.958455078125,2.040308713912964,-5.443965911865234,-2.930652618408203
1761399117853535700,9.96853564453125,1.8965070247650146,-5.618592739105225,-2.9923031330108643
1761399117863604200,9.978604248046874,1.8617911338806152,-5.858237266540527,-3.1174750328063965
1761399117873685500,9.988685546875,2.1175217628479004,-6.10132360458374,-3.2567877769470215
1761399117883786800,9.998786865234376,2.6645967960357666,-6.285752296447754,-3.338714361190796
1761399117893856800,10.008856689453125,3.3382654190063477,-6.38578462600708,-3.5795559883117676
1761399117903964000,10.0189638671875,4.051363468170166,-6.370072841644287,-4.346972465515137
1761399117914019600,10.02901953125,4.6920366287231445,-6.3179240226745605,-5.494992256164551
1761399117924126500,10.03912646484375,5.071816921234131,-6.105513572692871,-6.451625347137451
1761399117934180900,10.049180908203125,4.844666957855225,-5.8413286209106445,-7.0156097412109375
1761399117944287200,10.059287353515625,4.267889022827148,-5.976525783538818,-7.42793607711792
1761399117954368500,10.069368408203125,3.5044379234313965,-6.366780757904053,-7.578695774078369
1761399117964448300,10.0794482421875,2.6942999362945557,-6.851905822753906,-7.62725305557251
1761399117974529500,10.089529541015626,2.505831241607666,-7.313612937927246,-7.5622358322143555
1761399117984609500,10.099609619140624,2.591423988342285,-7.828889846801758,-6.35451078414917
1761399117994691300,10.10969140625,2.4262242317199707,-8.245929718017578,-4.714183330535889
1761399118004771600,10.119771484375,2.0812346935272217,-8.739958763122559,-2.7760767936706543
1761399118014851800,10.129851806640625,2.004021644592285,-9.51425838470459,-1.0945991277694702
1761399118024903000,10.13990283203125,1.898377537727356,-9.96249771118164,-0.2832639813423157
1761399118034989600,10.149989501953126,2.0457706451416016,-10.224213600158691,1.0117746591567993
1761399118045094700,10.1600947265625,1.4578443765640259,-8.897900581359863,2.017638683319092
1761399118055174700,10.170174560546876,1.6724246740341187,-6.692392349243164,3.508777379989624
1761399118065255700,10.180255615234374,2.531494140625,-5.5208048820495605,4.779275417327881
1761399118075336700,10.190336669921875,3.2748937606811523,-7.605481147766113,5.334954738616943
1761399118085417200,10.200417236328125,7.637578010559082,-16.860118865966797,-0.709805965423584
1761399118095497500,10.21049755859375,3.625793933868408,-28.558635711669922,-10.921151161193848
1761399118105578000,10.220577880859375,-3.385924816131592,-32.98783493041992,-15.823054313659668
1761399118115659000,10.230658935546876,-0.7294833064079285,-22.82220458984375,-15.088334083557129
1761399118125739500,10.240739501953126,1.230470061302185,-9.833210945129395,-12.599785804748535
1761399118135831000,10.2508310546875,1.0430489778518677,-1.9574843645095825,-9.842264175415039
1761399118145901800,10.26090185546875,-0.5728127360343933,2.6872670650482178,-6.975132465362549
1761399118155960300,10.270960205078126,-2.4606409072875977,4.652307987213135,-3.8394765853881836
1761399118166062300,10.281062255859375,-2.5185506343841553,3.684227466583252,-0.5248538851737976
1761399118176143400,10.291143310546875,-1.306485891342163,0.37910687923431396,0.6602011322975159
1761399118186223900,10.301223876953125,-0.4436754882335663,-4.475660800933838,-1.3451672792434692
1761399118196304400,10.311304443359376,1.0783634185791016,-9.94401741027832,-4.182296276092529
1761399118206386200,10.32138623046875,1.8867806196212769,-14.755166053771973,-6.993837356567383
1761399118216466000,10.3314658203125,2.0656723976135254,-17.00436782836914,-8.438737869262695
1761399118226546700,10.341546630859375,2.5168297290802,-14.33670425415039,-8.504878044128418
1761399118236628000,10.3516279296875,2.7007343769073486,-9.509170532226562,-7.539790153503418
1761399118246682000,10.36168212890625,2.2102222442626953,-5.980640888214111,-6.660818576812744
1761399118256762600,10.3717626953125,1.4218565225601196,-4.22509241104126,-5.927295207977295
1761399118266869500,10.381869384765626,0.933738648891449,-4.509778022766113,-5.2340240478515625
1761399118276927700,10.391927734375,0.648903489112854,-6.3733649253845215,-4.957718372344971
1761399118287031000,10.402031005859374,0.7860463261604309,-8.343119621276855,-4.619013786315918
1761399118297104600,10.412104736328125,0.87897127866745,-9.608979225158691,-4.3867011070251465
1761399118307192300,10.4221923828125,0.6563105583190918,-9.970129013061523,-4.4770073890686035
1761399118317272800,10.43227294921875,0.43432316184043884,-9.314866065979004,-4.855665683746338
1761399118327353600,10.442353515625,0.3998316824436188,-8.274809837341309,-5.058574199676514
1761399118337435400,10.452435302734376,0.1371428668498993,-7.502679824829102,-5.16085147857666
1761399118347515100,10.46251513671875,-0.43836337327957153,-7.250540733337402,-5.193846702575684
1761399118367676700,10.4826767578125,-1.1801917552947998,-7.873257637023926,-4.509254455566406
1761399118377757700,10.4927578125,-1.1668740510940552,-8.110881805419922,-4.269460201263428
1761399118387838000,10.502837890625,-1.1380687952041626,-8.233809471130371,-4.20653772354126
1761399118397920000,10.512919921875,-1.1324573755264282,-8.324115753173828,-4.380191802978516
1761399118407998500,10.52299853515625,-0.9906009435653687,-8.63431453704834,-4.726154327392578
1761399118418055200,10.53305517578125,-1.213860273361206,-8.982147216796875,-5.3017354011535645
1761399118428158200,10.543158203125,-1.3621511459350586,-9.042001724243164,-5.285125255584717
1761399118438242600,10.55324267578125,-1.2725181579589844,-9.259500503540039,-4.581454753875732
1761399118448318500,10.563318359375,-0.7012017965316772,-9.44759464263916,-3.466878890991211
1761399118458382800,10.5733828125,-0.019378069788217545,-9.620725631713867,-3.2760159969329834
1761399118468483600,10.583483642578125,0.16901567578315735,-9.451560020446777,-3.5270330905914307
1761399118478564900,10.59356494140625,-0.03366846218705177,-9.032125473022461,-3.8389527797698975
1761399118488644900,10.603644775390626,-0.41277533769607544,-8.672845840454102,-4.0061726570129395
1761399118498726100,10.61372607421875,-0.7816320657730103,-8.508843421936035,-4.008641719818115
1761399118508806400,10.623806396484374,-0.8752303719520569,-8.59421157836914,-4.2681884765625
1761399118518863400,10.63386328125,-0.9802011251449585,-8.972195625305176,-4.89531946182251
1761399118539048400,10.65404833984375,-0.9917980432510376,-9.2887544631958,-5.963881492614746
1761399118549129200,10.664129150390625,-0.7433996200561523,-9.157073020935059,-6.021043300628662
1761399118559209700,10.674209716796875,-0.569819986820221,-9.08607006072998,-6.09780740737915
1761399118569292000,10.6842919921875,-0.2659808397293091,-9.167098999023438,-6.268543720245361
1761399118579367700,10.69436767578125,-0.5422866940498352,-9.111733436584473,-6.914379596710205
1761399118589452800,10.704452880859375,-0.8601917624473572,-8.876802444458008,-6.674959659576416
1761399118599532800,10.71453271484375,-1.065868616104126,-8.74721622467041,-6.539612293243408
1761399118609614000,10.724614013671875,-1.102903962135315,-8.460061073303223,-6.53183126449585
1761399118619687400,10.7346875,-1.240121603012085,-8.139163970947266,-6.614954948425293
1761399118629774800,10.74477490234375,-1.5451579093933105,-7.7970170974731445,-6.63433313369751
1761399118639851500,10.7548515625,-1.8035072088241577,-7.615132808685303,-6.782923221588135
1761399118649936400,10.764936279296874,-1.8937387466430664,-7.811756610870361,-6.435614109039307
1761399118660017000,10.775016845703124,-1.3578864336013794,-8.89139175415039,-5.895422458648682
1761399118670097700,10.78509765625,-0.5178209543228149,-10.404228210449219,-5.398550510406494
1761399118680154600,10.795154541015625,-0.09958382695913315,-10.699687004089355,-5.116408824920654
1761399118690259200,10.80525927734375,-0.5037549734115601,-9.547403335571289,-6.062417984008789
1761399118700340500,10.815340576171875,-0.7983166575431824,-8.120458602905273,-6.54799222946167
1761399118710388700,10.825388671875,-1.0435726642608643,-7.29842472076416,-6.871284008026123
1761399118720501500,10.83550146484375,-1.3152397871017456,-7.635857582092285,-7.137489318847656
1761399118730582000,10.84558203125,-1.1332803964614868,-8.533982276916504,-5.816189289093018
1761399118740662500,10.85566259765625,-0.5710170865058899,-9.743278503417969,-5.0516157150268555
1761399118750744000,10.865744140625,0.10631752014160156,-10.410812377929688,-3.9060652256011963
1761399118760824000,10.875823974609375,0.5297171473503113,-10.754304885864258,-3.0377931594848633
1761399118770900700,10.885900634765624,0.814253032207489,-10.794258117675781,-2.3961470127105713
1761399118780985300,10.8959853515625,1.0691606998443604,-10.979958534240723,-2.388141393661499
1761399118791066400,10.90606640625,1.4813374280929565,-11.188852310180664,-2.38926362991333
1761399118801147400,10.9161474609375,1.993546962738037,-11.301529884338379,-2.2741923332214355
1761399118811227400,10.926227294921874,2.313472270965576,-11.409717559814453,-2.462137222290039
1761399118821309000,10.936308837890625,2.112957715988159,-11.28334903717041,-2.876483678817749
1761399118831389200,10.94638916015625,1.288828730583191,-11.01976203918457,-3.6587142944335938
1761399118841466000,10.956466064453124,0.16826748847961426,-10.393229484558105,-4.562001705169678
1761399118851539200,10.966539306640625,-0.9061305522918701,-9.51193904876709,-5.3256025314331055
1761399118861631200,10.97663134765625,-1.6390554904937744,-8.722301483154297,-5.803843975067139
1761399118871730000,10.98672998046875,-2.0197336673736572,-8.223259925842285,-6.164994716644287
1761399118881792800,10.996792724609374,-2.054898500442505,-8.05858325958252,-6.287996768951416
1761399118891873000,11.006873046875,-1.8982278108596802,-8.101005554199219,-6.07236909866333
1761399118901929500,11.016929443359375,-1.6124948263168335,-8.243086814880371,-5.7258830070495605
1761399118912034600,11.02703466796875,-1.2303204536437988,-8.783428192138672,-5.42563533782959
1761399118922091000,11.037091064453126,-0.5868787169456482,-9.41991138458252,-5.403862953186035
1761399118932197000,11.047197021484376,0.0037409402430057526,-9.80919361114502,-5.275922775268555
1761399118942277400,11.05727734375,0.29725509881973267,-9.766846656799316,-5.0178728103637695
1761399118952358100,11.067358154296874,0.3391536474227905,-9.502436637878418,-4.391190528869629
1761399118962434600,11.0774345703125,0.21996727585792542,-9.204283714294434,-3.9024739265441895
1761399118972519400,11.08751953125,-0.4159177243709564,-9.103353500366211,-3.928510904312134
1761399118982574600,11.09757470703125,-1.1849054098129272,-9.444751739501953,-3.510049343109131
1761399118992696600,11.107696533203125,-1.1162216663360596,-9.831191062927246,-2.9776387214660645
1761399119002762000,11.117761962890626,-0.6135889887809753,-9.893739700317383,-2.7460744380950928
1761399119012841700,11.127841796875,0.044592007994651794,-9.554361343383789,-2.920177936553955
1761399119022923300,11.13792333984375,0.4471171796321869,-9.121234893798828,-3.3966240882873535
1761399119032999200,11.147999267578125,-0.5284451842308044,-8.813730239868164,-4.219480991363525
1761399119043084800,11.158084716796875,-0.4115782380104065,-8.73225212097168,-5.123517036437988
1761399119053164500,11.16816455078125,0.3380313515663147,-8.935160636901855,-5.958569526672363
1761399119063245000,11.1782451171875,0.8112602829933167,-9.25979995727539,-6.473322868347168
1761399119073326800,11.188326904296876,0.7038204669952393,-9.363199234008789,-6.469357490539551
1761399119083406600,11.198406494140626,0.5596446394920349,-9.334918022155762,-6.0230631828308105
1761399119093483800,11.20848388671875,0.4412064850330353,-9.266383171081543,-5.242478847503662
1761399119103569200,11.218569091796875,0.39975687861442566,-8.909722328186035,-4.497133731842041
1761399119113648600,11.228648681640625,0.41696518659591675,-8.558897018432617,-3.6052188873291016
1761399119123730400,11.23873046875,0.5123591423034668,-8.179790496826172,-2.794931173324585
1761399119133779000,11.248779052734376,0.64366614818573,-7.626804351806641,-2.075772762298584
1761399119143865000,11.258864990234375,0.9918728470802307,-7.171307563781738,-1.502361536026001
1761399119153946400,11.2689462890625,1.269300937652588,-6.92111349105835,-1.0834510326385498
1761399119164048600,11.279048583984375,1.5123872756958008,-6.92919397354126,-0.9219173192977905
1761399119174133000,11.289133056640624,1.5433622598648071,-7.041571617126465,-0.9881319403648376
1761399119184192300,11.299192138671875,1.748291015625,-7.174599647521973,-1.24917471408844
1761399119194294500,11.30929443359375,1.8582745790481567,-7.317802906036377,-1.3604302406311035
1761399119204375000,11.319375,1.8913445472717285,-7.140931129455566,-1.3848960399627686
1761399119214456000,11.3294560546875,2.4059481620788574,-5.998822212219238,-1.6461633443832397
1761399119224514800,11.339514892578125,2.09440279006958,-5.8145432472229,-1.990105390548706
1761399119234593000,11.349593017578124,2.3943512439727783,-5.646275997161865,-1.5161281824111938
1761399119244698000,11.359697998046874,2.9413516521453857,-5.395109176635742,-1.465924859046936
1761399119254778600,11.369778564453124,3.3883938789367676,-4.917166709899902,-1.9975124597549438
1761399119264860000,11.37985986328125,3.639785051345825,-5.109675407409668,-3.0037505626678467
1761399119274940200,11.389940185546875,3.693579912185669,-5.593902587890625,-4.206612586975098
1761399119285022200,11.400022216796875,3.749544382095337,-6.7375078201293945,-5.573626518249512
1761399119305160700,11.42016064453125,3.4127848148345947,-9.226056098937988,-9.02599048614502
1761399119315263000,11.430262939453126,3.3243491649627686,-10.602272987365723,-10.638934135437012
1761399119325343500,11.440343505859374,3.4326868057250977,-11.667019844055176,-11.691261291503906
1761399119335424800,11.4504248046875,3.6349966526031494,-11.074604034423828,-11.818976402282715
1761399119345522700,11.460522705078125,3.927313804626465,-9.167847633361816,-10.631153106689453
1761399119355586600,11.470586669921875,3.956942081451416,-7.209465026855469,-9.321450233459473
1761399119365666600,11.48066650390625,3.6787657737731934,-5.443965911865234,-8.277877807617188
1761399119375747300,11.490747314453126,3.9003043174743652,-4.081365585327148,-7.380276203155518
1761399119385827800,11.500827880859376,3.351358652114868,-4.887014389038086,-7.208043575286865
1761399119395883500,11.510883544921874,1.7346739768981934,-9.330653190612793,-8.3283052444458
1761399119405994200,11.520994140625,1.864858627319336,-15.081300735473633,-8.604087829589844
1761399119426151000,11.54115087890625,1.4613608121871948,-18.647314071655273,-6.537367820739746
1761399119436232200,11.551232177734375,1.5982792377471924,-16.425046920776367,-5.3027825355529785
1761399119446308000,11.56130810546875,2.08168363571167,-11.436877250671387,-3.879504680633545
1761399119456367600,11.57136767578125,1.9296517372131348,-6.690073013305664,-1.797521710395813
1761399119466474500,11.581474609375,1.6113725900650024,-2.6787376403808594,-0.5954828262329102
1761399119476556000,11.59155615234375,0.17507599294185638,-0.35239654779434204,-0.20305822789669037
1761399119486620400,11.601620361328125,-1.111882209777832,-0.6275801062583923,1.0613046884536743
1761399119496690400,11.6116904296875,-1.6125696897506714,-2.4660277366638184,2.241870641708374
1761399119506771500,11.621771484375,-2.095150947570801,-5.324704647064209,2.2432174682617188
1761399119516851500,11.6318515625,-2.7793688774108887,-9.789666175842285,0.9448118209838867
1761399119526932700,11.6419326171875,-3.2392053604125977,-15.605032920837402,-2.1909189224243164
1761399119537004300,11.65200439453125,-2.0444986820220947,-17.53191566467285,-6.067281246185303
1761399119547088400,11.66208837890625,1.3770400285720825,-16.66282081604004,-9.784354209899902
1761399119557184300,11.672184326171875,3.482067108154297,-13.810877799987793,-10.715399742126465
1761399119567264500,11.682264404296875,3.4612674713134766,-9.79183578491211,-7.7382097244262695
1761399119577353200,11.692353271484375,2.3860464096069336,-7.044265270233154,-4.281730651855469
1761399119587436000,11.70243603515625,1.4955530166625977,-6.298471450805664,-1.1164461374282837
1761399119597521000,11.71252099609375,0.9394248723983765,-6.844723224639893,0.2891746759414673
1761399119607604000,11.72260400390625,0.7516297101974487,-7.562160968780518,-0.019378069788217545
1761399119617671400,11.73267138671875,0.20964229106903076,-8.916905403137207,-1.423427700996399
1761399119627765500,11.742765625,0.09457096457481384,-9.329156875610352,-2.7049241065979004
1761399119637845800,11.752845703125,0.2745850086212158,-9.503409385681152,-3.620631456375122
1761399119647926500,11.762926513671875,0.4537012279033661,-9.635464668273926,-4.1641154289245605
1761399119658013000,11.773012939453125,0.41367316246032715,-8.656161308288574,-3.6441993713378906
1761399119668086000,11.7830859375,0.3146878778934479,-7.835099697113037,-3.2975640296936035
1761399119678168800,11.7931689453125,0.2655319273471832,-8.211737632751465,-3.7461774349212646
1761399119688248800,11.803248779296876,0.5036801695823669,-8.296582221984863,-3.540949583053589
1761399119698317800,11.81331787109375,0.7080103158950806,-8.358981132507324,-3.5323452949523926
1761399119718486000,11.833486083984376,0.7921814918518066,-8.67359447479248,-3.9031472206115723
1761399119728570000,11.843570068359375,0.858695387840271,-8.837596893310547,-4.166659355163574
1761399119738635000,11.853635009765625,0.7933785915374756,-8.926406860351562,-4.275146484375
1761399119748720600,11.863720703125,0.6738929748535156,-8.844554901123047,-4.1885809898376465
1761399119758814000,11.87381396484375,0.6227169036865234,-8.485051155090332,-4.030788421630859
1761399119768883700,11.8838837890625,0.7071124911308289,-8.03075122833252,-3.8652141094207764
1761399119778966000,11.893966064453124,0.9549872279167175,-7.954585552215576,-3.6034231185913086
1761399119789047300,11.90404736328125,1.0073603391647339,-7.873930931091309,-3.3527801036834717
1761399119799134700,11.914134765625,0.9278279542922974,-8.214730262756348,-3.5708022117614746
1761399119809218300,11.92421826171875,1.013944387435913,-8.31872844696045,-4.10246467590332
1761399119819284500,11.934284423828124,1.295188307762146,-8.34760856628418,-4.530203819274902
1761399119829379000,11.944379150390626,1.2923451662063599,-8.208745002746582,-4.3482441902160645
1761399119839447300,11.954447265625,1.3230209350585938,-8.22887134552002,-4.417601585388184
1761399119849540600,11.96454052734375,1.514257788658142,-8.955137252807617,-4.557886600494385
1761399119859619600,11.97461962890625,1.3952209949493408,-8.76457405090332,-3.743109941482544
1761399119869702000,11.984701904296875,0.8533084392547607,-8.539369583129883,-3.3247978687286377
1761399119879773700,11.994773681640625,0.5041291117668152,-8.02888011932373,-3.1536126136779785
1761399119889851400,12.004851318359375,0.5731120109558105,-8.323067665100098,-4.2316765785217285
1761399119899944000,12.01494384765625,0.09659107774496078,-7.82649564743042,-4.030488967895508
1761399119910013200,12.02501318359375,-0.13654431700706482,-7.041646480560303,-3.4403181076049805
1761399119920091000,12.0350908203125,-0.003217208432033658,-8.029329299926758,-4.144587516784668
1761399119930186500,12.0451865234375,0.3041384220123291,-9.309030532836914,-4.2136454582214355
1761399119940254200,12.055254150390626,0.6802525520324707,-10.953323364257812,-4.733187198638916
1761399119950347800,12.06534765625,1.1791443824768066,-10.17685317993164,-3.365424633026123
1761399119960415700,12.075415771484375,1.152658462524414,-9.793706893920898,-2.8395979404449463
1761399119970510300,12.08551025390625,0.7069628834724426,-9.507225036621094,-3.7251534461975098
1761399119980588000,12.095588134765626,0.6102221608161926,-9.12505054473877,-4.3820624351501465
1761399119990666200,12.105666259765625,0.6772598028182983,-9.03279972076416,-4.647594451904297
1761399120000750300,12.115750244140624,0.9101707339286804,-8.875380516052246,-5.426233768463135
1761399120020900400,12.135900390625,1.4687678813934326,-8.376264572143555,-6.514847278594971
1761399120030980000,12.14597998046875,1.0701333284378052,-8.339827537536621,-6.757335186004639
1761399120041074000,12.156073974609376,0.27473464608192444,-8.649053573608398,-6.9689226150512695
1761399120051126000,12.1661259765625,-0.29530981183052063,-9.36589241027832,-7.522656440734863
1761399120061223000,12.176222900390625,-0.19819501042366028,-9.663895606994629,-7.973888874053955
1761399120071316000,12.18631591796875,0.37020343542099,-9.547253608703613,-7.917325973510742
1761399120081396700,12.196396728515625,0.6497265100479126,-9.729512214660645,-7.693393230438232
1761399120091461000,12.206461181640625,0.6474819183349609,-10.34362506866455,-7.367407321929932
1761399120101558000,12.21655810546875,1.0464158058166504,-11.307888984680176,-6.768408298492432
1761399120111639600,12.2266396484375,1.6601544618606567,-11.857956886291504,-5.579387664794922
1761399120121693400,12.236693359375,2.015094757080078,-12.100295066833496,-4.5429229736328125
1761399120131800600,12.246800537109374,1.8984522819519043,-12.223522186279297,-3.9206550121307373
1761399120141881000,12.256881103515624,1.592667818069458,-12.460548400878906,-3.495310068130493
1761399120151946500,12.266946533203125,1.1237035989761353,-12.12281608581543,-3.151442766189575
1761399120162022700,12.277022705078124,0.2646341025829315,-11.215263366699219,-3.338040828704834
1761399120172123100,12.287123046875,-0.2982277572154999,-10.338761329650879,-3.7887494564056396
1761399120182202400,12.297202392578125,-0.42519524693489075,-9.3026704788208,-4.737900733947754
1761399120192275700,12.307275634765626,0.3948936462402344,-8.895806312561035,-5.581632137298584
1761399120202365200,12.317365234375,1.1443536281585693,-8.815300941467285,-6.0167036056518555
1761399120212446000,12.327446044921874,1.4633809328079224,-8.880842208862305,-5.578639507293701
1761399120222527200,12.33752734375,1.4365957975387573,-8.963591575622559,-5.799654483795166
1761399120232591400,12.34759130859375,1.3796586990356445,-8.606706619262695,-6.133420944213867
1761399120242686500,12.3576865234375,1.278578519821167,-8.456320762634277,-6.653187274932861
1761399120252768800,12.367768798828125,1.1319336891174316,-8.52485466003418,-6.348599910736084
1761399120262856200,12.377856201171875,1.2300211191177368,-8.320524215698242,-5.469778060913086
1761399120272930300,12.387930419921876,1.1314098834991455,-7.911115646362305,-4.753986835479736
1761399120283010800,12.3980107421875,0.8319851160049438,-7.606304168701172,-4.44318962097168
1761399120293091800,12.408091796875,0.5475988388061523,-7.454347133636475,-4.139125823974609
1761399120303164200,12.4181640625,0.4207809567451477,-7.409306049346924,-3.6367924213409424
1761399120313251600,12.42825146484375,0.5004629492759705,-7.218742370605469,-2.895113468170166
1761399120323317000,12.43831689453125,0.7258920073509216,-6.9253034591674805,-2.3635261058807373
1761399120333392000,12.448391845703124,1.0093804597854614,-6.669946670532227,-2.059537172317505
1761399120343495700,12.45849560546875,1.2035353183746338,-6.6763811111450195,-1.975889801979065
1761399120353576200,12.468576171875,1.3685855865478516,-6.628272533416748,-2.323423147201538
1761399120363645700,12.478645751953126,1.603217363357544,-6.660743713378906,-2.7079918384552
1761399120373723100,12.48872314453125,1.8854337930679321,-6.769455432891846,-3.281403064727783
1761399120383818000,12.49881787109375,2.009333848953247,-6.67249059677124,-3.794360876083374
1761399120393899300,12.508899169921875,2.0276644229888916,-6.709301471710205,-3.872471570968628
1761399120403979500,12.5189794921875,1.837100863456726,-6.979097843170166,-3.5325698852539062
1761399120414053600,12.5290537109375,1.5884779691696167,-7.144746780395508,-3.1225626468658447
1761399120424127700,12.539127685546875,1.3804817199707031,-7.269320011138916,-2.5919477939605713
1761399120434209800,12.549209716796875,1.500266671180725,-7.515698432922363,-1.9078794717788696
1761399120444300800,12.55930078125,1.8961329460144043,-7.559018611907959,-1.7827075719833374
1761399120454383000,12.569383056640625,2.2064812183380127,-7.659126281738281,-2.1582231521606445
1761399120464464400,12.57946435546875,2.3618052005767822,-7.746888637542725,-2.5202713012695312
1761399120474523100,12.589523193359375,2.612074136734009,-7.708581447601318,-2.818873167037964
1761399120484625200,12.599625244140626,2.907383918762207,-7.531186103820801,-3.0732572078704834
1761399120494706000,12.609705810546876,3.2340428829193115,-7.273435115814209,-3.6408326625823975
1761399120504773600,12.619773681640625,3.5287539958953857,-7.1070380210876465,-4.465560436248779
1761399120514867500,12.629867431640625,3.558980941772461,-7.272238254547119,-5.072789669036865
1761399120524947700,12.63994775390625,3.351508378982544,-7.408034324645996,-5.375431537628174
1761399120535029800,12.65002978515625,3.098471164703369,-7.396212577819824,-5.551555156707764
1761399120545098000,12.660097900390625,2.9274353981018066,-7.5365729331970215,-5.899537563323975
1761399120555165200,12.670165283203126,2.71689510345459,-7.8494648933410645,-6.278793811798096
1761399120565245700,12.68024560546875,2.6047418117523193,-8.12906265258789,-6.456264019012451
1761399120575326500,12.690326416015624,2.766275644302368,-8.495076179504395,-6.7136406898498535
1761399120585432600,12.7004326171875,3.036147117614746,-8.507347106933594,-6.6705451011657715
1761399120595511800,12.71051171875,3.1611692905426025,-7.579743385314941,-6.411148548126221
1761399120605591600,12.720591552734374,3.4543840885162354,-8.159289360046387,-7.172878742218018
1761399120615673300,12.73067333984375,3.9992146492004395,-9.106196403503418,-7.72975492477417
1761399120625742800,12.740742919921875,4.581454753875732,-9.795053482055664,-7.874604225158691
1761399120635834600,12.750834716796875,4.908487796783447,-9.87929916381836,-7.880664348602295
1761399120645897500,12.7608974609375,4.909460067749023,-9.232565879821777,-7.828740119934082
1761399120655997400,12.77099755859375,4.58968448638916,-8.098835945129395,-7.487641334533691
1761399120666078000,12.781077880859375,4.336872100830078,-6.846818447113037,-6.586224555969238
1761399120676167400,12.79116748046875,4.081440448760986,-5.8704328536987305,-5.3319621086120605
1761399120686225200,12.80122509765625,3.3821091651916504,-5.0715179443359375,-4.296544551849365
1761399120696318200,12.811318115234375,2.3622541427612305,-4.478503704071045,-3.6251955032348633
1761399120706400000,12.82139990234375,1.6975637674331665,-4.1547627449035645,-3.356745719909668
1761399120716481500,12.8314814453125,1.6799066066741943,-5.600337028503418,-3.2819268703460693
1761399120726564600,12.841564697265625,1.753229022026062,-9.551966667175293,-4.080018997192383
1761399120736630500,12.851630615234376,1.7623568773269653,-14.535273551940918,-5.962385177612305
1761399120746724000,12.86172412109375,1.601646065711975,-18.309133529663086,-7.077110767364502
1761399120756802300,12.87180224609375,0.11185411363840103,-18.698640823364258,-7.256675720214844
1761399120766870300,12.881870361328126,1.3492822647094727,-14.917522430419922,-5.302932262420654
1761399120776952800,12.891952880859375,2.8318917751312256,-11.194165229797363,-3.0230536460876465
1761399120787047000,12.902046875,3.5924997329711914,-8.830638885498047,-1.8860323429107666
1761399120797127400,12.91212744140625,3.1327381134033203,-6.952163219451904,-0.4074631929397583
1761399120807204900,12.922204833984376,1.7549498081207275,-5.851428985595703,1.1306617259979248
1761399120817287000,12.932286865234374,0.004414309281855822,-5.56554651260376,2.1767783164978027
1761399120827369500,12.942369384765625,-0.8432078957557678,-5.6920647621154785,2.610652446746826
1761399120837427500,12.952427490234374,-1.3180828094482422,-6.219088554382324,2.014571189880371
1761399120847530800,12.96253076171875,-1.3489081859588623,-7.750854015350342,-0.03613748028874397
1761399120857611500,12.972611572265626,-1.5150808095932007,-10.3595609664917,-3.5621232986450195
1761399120867692800,12.98269287109375,-0.7487117648124695,-12.262802124023438,-6.99899959564209
1761399120877771000,12.99277099609375,0.08379705995321274,-12.650737762451172,-9.231218338012695
1761399120887841300,13.00284130859375,1.2766332626342773,-11.348441123962402,-9.169867515563965
