time,seconds_elapsed,z,y,x
1761400770933638700,0.111638671875,0.4993506968021393,0.12828503549098969,-1.674450159072876
1761400770943719700,0.1217197265625,0.46159628033638,0.0914299339056015,-1.680279016494751
1761400770953800200,0.13180029296875,0.38082483410835266,0.13313131034374237,-1.6775977611541748
1761400770963881000,0.141880859375,0.2458949089050293,0.28106793761253357,-1.6588621139526367
1761400770973962200,0.151962158203125,0.05858843773603439,0.5051462650299072,-1.5691975355148315
1761400770984067800,0.16206787109375,-0.10495290905237198,0.6344138383865356,-1.4399632215499878
1761400770994148900,0.17214892578125,-0.14645443856716156,0.4321022033691406,-1.3960301876068115
1761400771004208000,0.1822080078125,-0.09471075981855392,0.34693413972854614,-1.431969404220581
1761400771014310700,0.192310546875,-0.02934418059885502,0.3414883315563202,-1.522316813468933
1761400771024391400,0.202391357421875,-0.008343606255948544,0.36763495206832886,-1.5879831314086914
1761400771034472200,0.21247216796875,-0.045731622725725174,0.5366887450218201,-1.5763087272644043
1761400771044547000,0.222547119140625,-0.06153617799282074,0.7296575307846069,-1.4783505201339722
1761400771054634000,0.232634033203125,-0.04618127644062042,0.7733573913574219,-1.3314963579177856
1761400771064715000,0.242715087890625,-0.002881125546991825,0.7060422897338867,-1.2052597999572754
1761400771074795800,0.252795654296875,0.06133633106946945,0.7064419984817505,-1.1157783269882202
1761400771084861400,0.262861328125,0.15961101651191711,0.8267498016357422,-1.0566070079803467
1761400771094932500,0.272932373046875,0.24677756428718567,0.9379146099090576,-0.9916234612464905
1761400771105038300,0.283038330078125,0.30056968331336975,0.8901512026786804,-0.9333847761154175
1761400771115120000,0.2931201171875,0.3541286289691925,0.5982581973075867,-0.8890354037284851
1761400771125168000,0.303168212890625,0.45113763213157654,0.49050745368003845,-0.9055727124214172
1761400771135256000,0.313256103515625,0.5594712495803833,0.7663294076919556,-1.0738438367843628
1761400771145362700,0.32336279296875,0.7058757543563843,1.0136898756027222,-1.234254240989685
1761400771155441400,0.33344140625,0.7453621625900269,1.1716521978378296,-1.3587254285812378
1761400771165499100,0.3434990234375,0.8293977975845337,1.2279090881347656,-1.49871826171875
1761400771175579100,0.3535791015625,0.8434203267097473,1.2586188316345215,-1.667388916015625
1761400771185686000,0.36368603515625,0.719298779964447,1.1378446817398071,-1.8805922269821167
1761400771195732700,0.373732666015625,0.5071613788604736,0.9062888622283936,-2.0885329246520996
1761400771205813500,0.3838134765625,0.274139940738678,0.539153516292572,-2.1194591522216797
1761400771215902500,0.39390234375,0.11401262879371643,0.048662710934877396,-2.100623607635498
1761400771225967400,0.40396728515625,0.035589393228292465,-0.31194430589675903,-2.069680690765381
1761400771236090000,0.414090087890625,0.10373717546463013,-0.3046998381614685,-2.008227825164795
1761400771246170400,0.42417041015625,0.24364662170410156,-0.07724080979824066,-2.007012128829956
1761400771256251100,0.434251220703125,0.36965006589889526,0.20920635759830475,-2.1277694702148438
1761400771266332200,0.444332275390625,0.45383554697036743,0.5377046465873718,-2.3987951278686523
1761400771276399000,0.454399169921875,0.6387105584144592,1.126853108406067,-2.5895822048187256
1761400771286469000,0.46446923828125,0.9015591144561768,1.795540690422058,-2.7520077228546143
1761400771296599000,0.47459912109375,1.1291847229003906,2.3308472633361816,-3.0061631202697754
1761400771306656300,0.48465625,1.2285919189453125,2.676732063293457,-3.3760628700256348
1761400771316708900,0.494708984375,1.0597379207611084,2.705476760864258,-3.5708136558532715
1761400771326817500,0.504817626953125,0.7419814467430115,2.148670196533203,-3.3869378566741943
1761400771336899300,0.5148994140625,0.5064785480499268,1.1458219289779663,-3.0718460083007812
1761400771346979000,0.52497900390625,0.2555375099182129,0.393331915140152,-2.831979751586914
1761400771357059800,0.535059814453125,0.0045132082886993885,0.03732139989733696,-2.7384514808654785
1761400771367140900,0.545140869140625,-0.1366952508687973,-0.271941602230072,-2.6999475955963135
1761400771377221600,0.5552216796875,-0.18517476320266724,-0.4302203357219696,-2.720898389816284
1761400771387285200,0.56528515625,-0.20537595450878143,-0.3902342915534973,-2.8085644245147705
1761400771397339100,0.575339111328125,-0.15701301395893097,-0.31805628538131714,-2.9154491424560547
1761400771407438800,0.58543896484375,-0.03452354297041893,-0.23232197761535645,-3.0139238834381104
1761400771417540400,0.595540283203125,0.0766412690281868,-0.17211811244487762,-2.963212728500366
1761400771427627000,0.605626953125,0.1804284006357193,-0.43143606185913086,-2.643707513809204
1761400771437682200,0.61568212890625,0.2472771853208542,-0.686174213886261,-2.2114386558532715
1761400771447787500,0.62578759765625,0.29056066274642944,-0.7300239205360413,-1.7420316934585571
1761400771457869600,0.63586962890625,0.38462191820144653,-0.5421345829963684,-1.272325038909912
1761400771467949800,0.64594970703125,0.4738702178001404,-0.20157887041568756,-0.8529297113418579
1761400771478027000,0.656027099609375,0.5003998875617981,0.13501320779323578,-0.48391249775886536
1761400771488085200,0.666085205078125,0.42733919620513916,0.3618893623352051,-0.1344636231660843
1761400771498192000,0.67619189453125,0.24489566683769226,0.45023831725120544,0.18927162885665894
1761400771508269300,0.686269287109375,0.0038970138411968946,0.42898792028427124,0.4962364137172699
1761400771518354400,0.6963544921875,-0.2663625478744507,0.4158979654312134,0.8285317420959473
1761400771528435700,0.706435791015625,-0.5197184085845947,0.41649749875068665,1.2086238861083984
1761400771538516200,0.71651611328125,-0.7793527841567993,0.3769111633300781,1.6292015314102173
1761400771548596500,0.726596435546875,-1.1126307249069214,0.3139094412326813,2.0828373432159424
1761400771558678000,0.736677978515625,-1.4311699867248535,0.24984188377857208,2.517104387283325
1761400771568754000,0.74675390625,-1.7509748935699463,0.2584685981273651,2.9511218070983887
1761400771578839000,0.756839111328125,-2.0526437759399414,0.31034553050994873,3.392916679382324
1761400771588919600,0.76691943359375,-2.305816411972046,0.3687840700149536,3.8694348335266113
1761400771599000600,0.77700048828125,-2.507694959640503,0.3919829726219177,4.405274391174316
1761400771609082000,0.78708203125,-2.852847099304199,0.5469309091567993,5.064186096191406
1761400771619162400,0.797162353515625,-3.2600185871124268,0.7427641749382019,5.692737579345703
1761400771629244400,0.807244384765625,-3.5545594692230225,0.741331934928894,6.152601718902588
1761400771639319800,0.81731982421875,-3.6337153911590576,0.6136797666549683,6.473489284515381
1761400771649400800,0.82740087890625,-3.516172170639038,0.43829748034477234,6.703746318817139
1761400771659486200,0.837486328125,-3.2816519737243652,0.3486328423023224,6.91646671295166
1761400771669567200,0.847567138671875,-2.956601142883301,0.08663361519575119,7.067850589752197
1761400771679648000,0.85764794921875,-2.61776065826416,-0.04504881426692009,7.1314520835876465
1761400771689728300,0.867728271484375,-2.236602783203125,-0.25458824634552,7.025266647338867
1761400771699805400,0.877805419921875,-1.8255010843276978,-0.5967094302177429,6.800755500793457
1761400771709890800,0.887890869140625,-1.5241986513137817,-0.64109206199646,6.595462799072266
1761400771719970800,0.897970703125,-1.3162413835525513,-0.4266730546951294,6.368170261383057
1761400771730051600,0.908051513671875,-1.1172271966934204,-0.16795462369918823,6.073545932769775
1761400771740107800,0.918107666015625,-0.808480441570282,0.08235356211662292,5.696484565734863
1761400771750213400,0.92821337890625,-0.3473171889781952,0.5473805665969849,5.347585678100586
1761400771760290600,0.93829052734375,0.25015830993652344,1.3041340112686157,5.1350483894348145
1761400771770351000,0.94835107421875,0.8921996355056763,1.7777377367019653,4.820838928222656
1761400771780456200,0.958456298828125,1.2113550901412964,1.4187960624694824,4.17083740234375
1761400771790537000,0.968536865234375,0.9356163740158081,0.3507978618144989,3.3017032146453857
1761400771800617700,0.97861767578125,0.44967207312583923,-0.25863513350486755,2.569547653198242
1761400771810673700,0.988673583984375,0.2589349150657654,-0.2014622837305069,1.9765187501907349
1761400771820779500,0.998779541015625,0.2987877130508423,0.16352468729019165,1.447957158088684
1761400771830856700,1.008856689453125,0.3923160433769226,0.6300838589668274,0.9548516273498535
1761400771840941300,1.01894140625,0.49267247319221497,1.081387996673584,0.43503329157829285
1761400771851022300,1.029022216796875,0.5841856598854065,1.4298542737960815,-0.14007599651813507
1761400771861102800,1.039102783203125,0.6317659020423889,1.4139498472213745,-0.7645640969276428
1761400771871183600,1.04918359375,0.637661337852478,1.1069684028625488,-1.3984284400939941
1761400771881264600,1.0592646484375,0.5973422527313232,0.9207444190979004,-1.9546022415161133
1761400771891320800,1.06932080078125,0.4912402331829071,0.9422779083251953,-2.407588481903076
1761400771901427200,1.07942724609375,0.3762117028236389,0.9875932335853577,-2.815042734146118
1761400771911508200,1.08950830078125,0.2962230145931244,0.8804419636726379,-3.2448134422302246
1761400771921588200,1.099588134765625,0.270059734582901,0.6483698487281799,-3.6873409748077393
1761400771931645400,1.1096455078125,0.29717227816581726,0.44975534081459045,-4.0835041999816895
1761400771941750800,1.119750732421875,0.3865371346473694,0.3960631787776947,-4.4150166511535645
1761400771951830800,1.129830810546875,0.5258637070655823,0.5950273871421814,-4.6914381980896
1761400771961907500,1.139907470703125,0.6231558322906494,1.0446827411651611,-4.992074489593506
1761400771971967700,1.1499677734375,0.6540488004684448,1.5258307456970215,-5.358243942260742
1761400771982060300,1.160060302734375,0.6257538199424744,1.8388575315475464,-5.732290744781494
1761400771992129000,1.17012890625,0.5797224044799805,1.899894118309021,-6.056309223175049
1761400772002210300,1.180210205078125,0.5645506978034973,1.6724517345428467,-6.24269962310791
1761400772012291800,1.190291748046875,0.5106420516967773,1.294458031654358,-6.2607855796813965
1761400772022371600,1.20037158203125,0.418612539768219,0.8736138939857483,-6.129403114318848
1761400772032440800,1.21044091796875,0.3356761038303375,0.20231163501739502,-5.982215881347656
1761400772042542600,1.22054248046875,0.296705961227417,-0.3585086166858673,-5.883508205413818
1761400772052616000,1.230615966796875,0.2877628207206726,-0.5130901336669922,-5.852498531341553
1761400772062720300,1.24072021484375,0.35054802894592285,-0.4809814393520355,-5.846536636352539
1761400772072800800,1.25080078125,0.47725096344947815,-0.41796305775642395,-5.843372344970703
1761400772082863400,1.26086328125,0.6162111163139343,-0.2271592617034912,-5.7886810302734375
1761400772092962800,1.270962890625,0.7373016476631165,0.02095061168074608,-5.61616325378418
1761400772103018800,1.281018798828125,0.8011860251426697,0.267828106880188,-5.348567962646484
1761400772113100000,1.29110009765625,0.8532295227050781,0.31209418177604675,-5.0979766845703125
1761400772123206400,1.301206298828125,0.9018922448158264,0.14244084060192108,-4.937982559204102
1761400772133286700,1.31128662109375,0.9530196785926819,-0.1261366754770279,-4.770694255828857
1761400772143367400,1.321367431640625,1.0618363618850708,-0.28210049867630005,-4.468259334564209
1761400772153418800,1.331418701171875,1.2628322839736938,-0.2212471216917038,-4.0151567459106445
1761400772163529000,1.341529052734375,1.4690076112747192,-0.03357427194714546,-3.426457643508911
1761400772173584400,1.35158447265625,1.618209958076477,-0.17434972524642944,-2.8099966049194336
1761400772183690500,1.3616904296875,1.6513512134552002,-0.41253387928009033,-2.3984620571136475
1761400772193771500,1.371771484375,1.5685147047042847,-0.4078041613101959,-2.138378143310547
1761400772203821000,1.381821044921875,1.465626835823059,-0.10485298186540604,-1.9281891584396362
1761400772213929700,1.3919296875,1.2808518409729004,0.24379651248455048,-1.6815115213394165
1761400772223996200,1.40199609375,1.012873888015747,0.4670587480068207,-1.3490163087844849
1761400772234094600,1.412094482421875,0.6805618405342102,0.652966320514679,-0.9843623638153076
1761400772244150500,1.422150634765625,0.3743298053741455,0.8022518754005432,-0.6706860661506653
1761400772254246000,1.432245849609375,0.1281518042087555,0.6964496374130249,-0.3817574679851532
1761400772264337400,1.44233740234375,-0.05202679708600044,0.30030322074890137,-0.13159915804862976
1761400772274404900,1.45240478515625,-0.2073744237422943,-0.03892017528414726,0.1194084957242012
1761400772284495000,1.4624951171875,-0.34138840436935425,-0.15976090729236603,0.5030811429023743
1761400772294580000,1.472580078125,-0.5014657378196716,-0.2835993468761444,1.0937285423278809
1761400772304638500,1.482638427734375,-0.7034109830856323,-0.5264299511909485,1.8641215562820435
1761400772314742300,1.4927421875,-0.9282886385917664,-0.7312063574790955,2.686241626739502
1761400772324797400,1.50279736328125,-1.0855348110198975,-0.8097628355026245,3.432819366455078
1761400772334903800,1.51290380859375,-1.1891887187957764,-0.7256772518157959,4.032410144805908
1761400772344984800,1.52298486328125,-1.267378807067871,-0.6066184639930725,4.500301361083984
1761400772355040300,1.533040283203125,-1.3278324604034424,-0.4823637008666992,4.832913398742676
1761400772365141500,1.5431416015625,-1.3884360790252686,-0.33277833461761475,5.036040782928467
1761400772375204900,1.553204833984375,-1.4437103271484375,-0.22945749759674072,5.147205829620361
1761400772385307600,1.5633076171875,-1.4553847312927246,-0.2990041971206665,5.228726387023926
1761400772395388400,1.573388427734375,-1.4913405179977417,-0.5133399367332458,5.38633918762207
1761400772405444600,1.583444580078125,-1.5282455682754517,-0.7928757667541504,5.6030731201171875
1761400772415551000,1.593551025390625,-1.5456821918487549,-0.8555110692977905,5.77833890914917
1761400772425631200,1.60363134765625,-1.5005501508712769,-0.7275092005729675,5.913118839263916
1761400772435712000,1.6137119140625,-1.391883373260498,-0.5581722855567932,6.0483317375183105
1761400772445793000,1.62379296875,-1.261000394821167,-0.393331915140152,6.2184014320373535
1761400772455873800,1.633873779296875,-1.0950275659561157,-0.366069495677948,6.4550700187683105
1761400772465954600,1.64395458984375,-0.9311698079109192,-0.7918265461921692,6.762917518615723
1761400772476013300,1.654013427734375,-0.9281720519065857,-1.3550282716751099,7.014674663543701
1761400772486116000,1.6641162109375,-1.097708821296692,-1.5018657445907593,7.289913654327393
1761400772496197000,1.674197021484375,-1.231223225593567,-1.1642744541168213,7.665225982666016
1761400772506278100,1.684278076171875,-1.2268931865692139,-0.7487262487411499,8.02253532409668
1761400772516359200,1.694359130859375,-1.0347903966903687,-0.4507545828819275,8.183445930480957
1761400772526440000,1.70443994140625,-0.6437233686447144,-0.23460355401039124,8.002100944519043
1761400772536520700,1.714520751953125,-0.12918433547019958,-0.003613897366449237,7.547183513641357
1761400772546601500,1.7246015625,0.37179842591285706,0.1970823109149933,7.005331993103027
1761400772556682200,1.73468212890625,0.7474605441093445,0.20426014065742493,6.507080078125
1761400772566763000,1.744762939453125,0.9855947494506836,0.10127239674329758,6.0966949462890625
1761400772576844000,1.754843994140625,0.999883770942688,0.20650841295719147,5.696101665496826
1761400772586924800,1.7649248046875,0.8180065155029297,0.4298039674758911,5.270394802093506
1761400772597005800,1.775005859375,0.6211906671524048,0.5580223798751831,4.7712602615356445
1761400772607086600,1.785086669921875,0.45356908440589905,0.4389136731624603,4.098109722137451
1761400772617167600,1.795167724609375,0.32278597354888916,0.07311064004898071,3.2439475059509277
1761400772627248400,1.805248291015625,0.25695309042930603,-0.22176340222358704,2.351897716522217
1761400772637329200,1.8153291015625,0.20051302015781403,-0.37151530385017395,1.4290882349014282
1761400772647410000,1.825409912109375,0.12951742112636566,-0.3478001356124878,0.4815976321697235
1761400772657491500,1.835491455078125,0.04508212208747864,-0.20642514526844025,-0.4304201602935791
1761400772667572000,1.845572021484375,-0.030426684767007828,-0.08768280595541,-1.2257606983184814
1761400772677636400,1.85563623046875,-0.04864605516195297,0.004413284827023745,-1.913400411605835
1761400772687734300,1.865734375,-0.031625766307115555,0.12217304855585098,-2.5065624713897705
1761400772697814500,1.875814453125,-0.03858709707856178,0.20990581810474396,-3.025664806365967
1761400772707895300,1.885895263671875,-0.05978751927614212,0.22747568786144257,-3.508694648742676
1761400772717979000,1.895978759765625,-0.10506948828697205,0.20679153501987457,-3.9603652954101562
1761400772728052700,1.906052734375,-0.22211313247680664,0.15201684832572937,-4.365854263305664
1761400772738134000,1.916134033203125,-0.4071713089942932,0.06198583543300629,-4.6790313720703125
1761400772748229000,1.92622900390625,-0.5652668476104736,-0.09217936545610428,-4.91510009765625
1761400772758299400,1.93629931640625,-0.6262201070785522,-0.13809417188167572,-5.121192455291748
1761400772768380400,1.94638037109375,-0.6218568086624146,-0.034423619508743286,-5.294709205627441
1761400772778461200,1.956461181640625,-0.5853347778320312,0.15656335651874542,-5.405208110809326
1761400772788530700,1.96653076171875,-0.5577892065048218,0.32460126280784607,-5.430954933166504
1761400772798623000,1.976623046875,-0.539286732673645,0.4138995110988617,-5.385939598083496
1761400772808704800,1.986704833984375,-0.5232157111167908,0.3855212330818176,-5.3056511878967285
1761400772818784300,1.9967841796875,-0.5952272415161133,0.3187890350818634,-5.179264545440674
1761400772828865800,2.00686572265625,-0.7270761728286743,0.14986848831176758,-5.0161895751953125
1761400772838946600,2.016946533203125,-0.7802021503448486,-0.1199580729007721,-4.832930088043213
1761400772849023500,2.0270234375,-0.7536724805831909,-0.3082970976829529,-4.644490718841553
1761400772859109000,2.037109130859375,-0.6702197194099426,-0.3607235848903656,-4.515589714050293
1761400772869190100,2.047190185546875,-0.5028979778289795,-0.3838558495044708,-4.521901607513428
1761400772879270000,2.057269775390625,-0.2569364309310913,-0.3392733633518219,-4.65126895904541
1761400772889351000,2.067350830078125,0.06406757235527039,-0.24308039247989655,-4.8113298416137695
1761400772899431400,2.077431396484375,0.4092364013195038,-0.031076187267899513,-4.934102535247803
1761400772909512400,2.087512451171875,0.7076244354248047,0.3409554064273834,-4.9800004959106445
1761400772919589600,2.097589599609375,1.003930687904358,0.636428952217102,-4.965311527252197
1761400772929673500,2.107673583984375,1.3220869302749634,0.7800189256668091,-4.898929119110107
1761400772939730200,2.117730224609375,1.6040540933609009,0.9171638488769531,-4.756505012512207
1761400772949836800,2.1278369140625,1.7992545366287231,1.1537492275238037,-4.544217586517334
1761400772959916500,2.13791650390625,1.9184964895248413,1.2491260766983032,-4.299455165863037
1761400772969997300,2.147997314453125,1.953336477279663,1.13649582862854,-4.037405967712402
1761400772980074800,2.15807470703125,1.9096533060073853,1.004746675491333,-3.7267775535583496
1761400772990159400,2.168159423828125,1.8579262495040894,0.9503217935562134,-3.3685519695281982
1761400773000240600,2.17824072265625,1.7534229755401611,0.8683179616928101,-2.988643169403076
1761400773010295800,2.1882958984375,1.4853284358978271,0.6612765789031982,-2.5847859382629395
1761400773020377000,2.198377197265625,1.2005133628845215,0.5285616517066956,-2.2346043586730957
1761400773030459000,2.208458984375,0.9858778715133667,0.5060622096061707,-1.9269566535949707
1761400773040532500,2.218532470703125,0.8908007144927979,0.5035141706466675,-1.6462218761444092
1761400773050620200,2.2286201171875,0.815758228302002,0.41671401262283325,-1.4517375230789185
1761400773060726300,2.238726318359375,0.7338210344314575,0.3451022207736969,-1.3351935148239136
1761400773070806500,2.248806640625,0.631349503993988,0.4016588628292084,-1.2343708276748657
1761400773080886800,2.25888671875,0.4692237675189972,0.5732773542404175,-1.0623692274093628
1761400773090948600,2.268948486328125,0.25418853759765625,0.6033210158348083,-0.8006864190101624
1761400773101048800,2.279048828125,-0.0018485834589228034,0.4944377839565277,-0.49515390396118164
1761400773111126000,2.2891259765625,-0.21713361144065857,0.33575937151908875,-0.07369352877140045
1761400773121210400,2.29921044921875,-0.4006596505641937,-0.019884763285517693,0.5013657808303833
1761400773131291400,2.30929150390625,-0.5752425193786621,-0.35624366998672485,1.0720285177230835
1761400773141372400,2.319372314453125,-0.7216969728469849,-0.565416693687439,1.5340577363967896
1761400773151453200,2.329453125,-0.8166741728782654,-0.7060256600379944,1.7795696258544922
1761400773161534000,2.339533935546875,-0.8499653339385986,-0.7513742446899414,1.7576031684875488
1761400773171611000,2.34961083984375,-0.8802088499069214,-0.6660395860671997,1.5834366083145142
1761400773181695500,2.359695556640625,-0.9454255104064941,-0.520084798336029,1.3193556070327759
1761400773191776500,2.369776611328125,-1.040852427482605,-0.3018020689487457,1.1472375392913818
1761400773201857500,2.379857421875,-1.153432846069336,-0.185141459107399,1.2238621711730957
1761400773211938600,2.3899384765625,-1.262582540512085,-0.158628448843956,1.4801491498947144
1761400773222019000,2.40001904296875,-1.369783639907837,-0.14320692420005798,1.822453498840332
1761400773232099800,2.410099853515625,-1.4271563291549683,-0.13061657547950745,2.1794798374176025
1761400773242155800,2.42015576171875,-1.4189625978469849,-0.025280628353357315,2.474470376968384
1761400773252261600,2.43026171875,-1.3999605178833008,0.17734743654727936,2.7157022953033447
1761400773262343700,2.44034375,-1.4115350246429443,0.37880972027778625,2.849283218383789
1761400773272423400,2.45042333984375,-1.4780340194702148,0.565899670124054,2.9369328022003174
1761400773282478600,2.460478515625,-1.5270131826400757,0.6530662178993225,3.0946786403656006
1761400773302662000,2.480661865234375,-1.489441990852356,0.4457084536552429,3.5280964374542236
1761400773312734000,2.49073388671875,-1.5576729774475098,0.36583632230758667,3.7947254180908203
1761400773322818000,2.500818115234375,-1.725211262702942,0.5094762444496155,4.208141803741455
1761400773353070300,2.5310703125,-1.7075915336608887,1.436216115951538,6.437783241271973
1761400773373211100,2.551211181640625,-1.4668426513671875,0.5786066055297852,7.592098712921143
1761400773383287800,2.561287841796875,-1.3065654039382935,0.1086500734090805,7.794976711273193
1761400773393393700,2.5713935546875,-1.0603374242782593,-0.27022626996040344,7.6600799560546875
1761400773403475500,2.581475341796875,-0.7975555062294006,-0.5471473932266235,7.205761432647705
1761400773413530600,2.591530517578125,-0.6374615430831909,-0.6436234712600708,6.56378698348999
1761400773423612000,2.60161181640625,-0.6622425317764282,-0.5172203183174133,5.875514507293701
1761400773433693000,2.61169287109375,-0.7949907779693604,-0.23933327198028564,5.195235729217529
1761400773443773000,2.62177294921875,-0.9210275411605835,0.031792305409908295,4.548864364624023
1761400773453879600,2.631879638671875,-1.0128405094146729,0.2375679463148117,3.941995859146118
1761400773463959800,2.641959716796875,-1.0767415761947632,0.4079207479953766,3.4023261070251465
1761400773474027800,2.65202783203125,-1.0922297239303589,0.44775688648223877,2.9632959365844727
1761400773484123000,2.662122802734375,-1.0488296747207642,0.3090631663799286,2.628818988800049
1761400773494189600,2.672189453125,-1.019918441772461,0.06874731928110123,2.3847227096557617
1761400773504283400,2.682283447265625,-1.0221834182739258,-0.2506246268749237,2.16330885887146
1761400773514365000,2.692364990234375,-0.9693238735198975,-0.5730941891670227,1.9151990413665771
1761400773524452000,2.7024521484375,-0.798804521560669,-0.7756389379501343,1.5860679149627686
1761400773534526000,2.71252587890625,-0.5410520434379578,-0.804500162601471,1.1437069177627563
1761400773544595000,2.722594970703125,-0.2729075253009796,-0.700096845626831,0.630949854850769
1761400773554688000,2.73268798828125,-0.034590158611536026,-0.47733423113822937,0.10773411393165588
1761400773564766700,2.7427666015625,0.18109455704689026,-0.06548315286636353,-0.39423123002052307
1761400773574837200,2.752837158203125,0.34362003207206726,0.4854946434497833,-0.8393900990486145
1761400773584930000,2.762929931640625,0.4102855920791626,1.1702698469161987,-1.1362459659576416
1761400773595008000,2.773008056640625,0.35617706179618835,1.7266602516174316,-1.3475840091705322
1761400773605081300,2.783081298828125,0.2516738176345825,2.0669994354248047,-1.5288617610931396
1761400773615159800,2.793159912109375,0.15984417498111725,2.256953716278076,-1.6847922801971436
1761400773625251800,2.803251953125,0.11507847905158997,2.301236629486084,-1.8416887521743774
1761400773635322000,2.813322021484375,0.08713322877883911,2.2347874641418457,-2.043367624282837
1761400773645415400,2.82341552734375,0.06536657363176346,2.0452661514282227,-2.294541597366333
1761400773655494400,2.833494384765625,0.03330780938267708,1.655731201171875,-2.599741220474243
1761400773665565200,2.843565185546875,-0.08341941237449646,1.1611435413360596,-2.9240427017211914
1761400773675643600,2.8536435546875,-0.32931432127952576,0.6613765358924866,-3.283034324645996
1761400773685726000,2.863725830078125,-0.5794392824172974,0.36893394589424133,-3.7419991493225098
1761400773695819800,2.87381982421875,-0.693102240562439,0.3759952187538147,-4.299821853637695
1761400773705900500,2.883900634765625,-0.6660895943641663,0.06481699645519257,-5.0532941818237305
1761400773715968500,2.893968505859375,-0.5060955286026001,-0.6245547533035278,-5.988877296447754
1761400773726049800,2.9040498046875,-0.22532732784748077,-1.2240453958511353,-6.956219673156738
1761400773736130600,2.914130615234375,0.06566634774208069,-1.4033080339431763,-7.847136974334717
1761400773746209800,2.924209716796875,0.28091806173324585,-1.5887491703033447,-8.658698081970215
1761400773756303000,2.93430322265625,0.39088380336761475,-2.0994577407836914,-9.31176471710205
1761400773766385200,2.94438525390625,0.6379777789115906,-2.7315900325775146,-9.69012451171875
1761400773776466400,2.954466552734375,1.1330983638763428,-3.2160022258758545,-9.851850509643555
1761400773786534700,2.96453466796875,1.6796295642852783,-3.4217445850372314,-9.872517585754395
1761400773796621300,2.974621337890625,2.0957441329956055,-3.5254650115966797,-9.811182022094727
1761400773806694400,2.9846943359375,2.2738075256347656,-3.4381654262542725,-9.716320991516113
1761400773816790300,2.994790283203125,2.2628326416015625,-3.1091840267181396,-9.577427864074707
1761400773826871000,3.00487109375,2.1663899421691895,-2.586268186569214,-9.28398609161377
1761400773836951300,3.014951416015625,2.0726616382598877,-2.025197982788086,-8.762251853942871
1761400773847022300,3.025022216796875,1.9791333675384521,-1.6559476852416992,-7.958651542663574
1761400773857113000,3.035113037109375,1.8918169736862183,-1.3711493015289307,-6.851499557495117
1761400773867194000,3.045194091796875,1.6720020771026611,-1.1518007516860962,-5.586785316467285
1761400773877248800,3.055248779296875,1.409803032875061,-1.5150057077407837,-4.289129734039307
1761400773887353600,3.065353515625,1.2823007106781006,-2.0605876445770264,-3.163142681121826
1761400773897437000,3.07543701171875,1.1880396604537964,-2.0651841163635254,-2.261683464050293
1761400773907517700,3.085517578125,1.1218403577804565,-1.7031948566436768,-1.347617268562317
1761400773917607700,3.095607666015625,0.9865606427192688,-1.1221234798431396,-0.40067631006240845
1761400773927670500,3.10567041015625,0.6828933954238892,-0.4390302300453186,0.4603305757045746
1761400773937758700,3.1157587890625,0.43365103006362915,0.05134398862719536,1.1449226140975952
1761400773947841300,3.12584130859375,0.3379576802253723,0.2542884647846222,1.6406594514846802
1761400773957922000,3.135922119140625,0.2560371458530426,0.37527909874916077,1.9986517429351807
1761400773968002300,3.146002197265625,0.14102526009082794,0.4884423613548279,2.222480297088623
1761400773978072600,3.156072509765625,0.029877105727791786,0.49855130910873413,2.355661630630493
1761400773988164600,3.16616455078125,-0.10858345776796341,0.34160488843917847,2.435317039489746
1761400773998243300,3.176243408203125,-0.2913767099380493,-0.033674195408821106,2.5840365886688232
1761400774008313900,3.18631396484375,-0.5146722793579102,-0.49855130910873413,2.8452696800231934
1761400774018386400,3.196386474609375,-0.771575391292572,-0.7551379799842834,3.1151962280273438
1761400774028488200,3.20648828125,-1.0203348398208618,-0.6976154446601868,3.3617238998413086
1761400774038568700,3.216568603515625,-1.2001303434371948,-0.48757636547088623,3.554276466369629
1761400774048650000,3.22664990234375,-1.3372418880462646,-0.22717592120170593,3.723346710205078
1761400774058718200,3.23671826171875,-1.455201506614685,-0.08921496570110321,3.8781282901763916
1761400774068809200,3.246809326171875,-1.5703799724578857,-0.06598277390003204,3.9752871990203857
1761400774078880000,3.2568798828125,-1.6560475826263428,-0.17491596937179565,4.06580114364624
1761400774088973000,3.26697314453125,-1.7343876361846924,-0.42677295207977295,4.273974895477295
1761400774099041000,3.277041015625,-1.8416388034820557,-0.6941847205162048,4.566500663757324
1761400774109125600,3.287125732421875,-1.9805322885513306,-0.8731808662414551,4.792044639587402
1761400774119202800,3.297202880859375,-2.1429245471954346,-0.9922562837600708,4.89245080947876
1761400774129294600,3.307294677734375,-2.3310470581054688,-0.807114839553833,5.03499174118042
1761400774139377400,3.31737744140625,-2.3731980323791504,-0.4043901264667511,5.34768533706665
1761400774149446000,3.32744580078125,-2.2835500240325928,0.08754957467317581,5.6709208488464355
1761400774159539200,3.337539306640625,-2.118942975997925,0.6536991000175476,5.960765838623047
1761400774169607400,3.347607421875,-1.848866581916809,1.070263147354126,6.201081275939941
1761400774179701000,3.357700927734375,-1.5372053384780884,1.2698768377304077,6.424243927001953
1761400774189783300,3.367783203125,-1.228342056274414,1.2758222818374634,6.691139221191406
1761400774199856000,3.377856201171875,-0.9152486324310303,1.0927293300628662,6.9735894203186035
1761400774209930500,3.387930419921875,-0.5858011245727539,0.5733773112297058,7.376030921936035
1761400774220024300,3.3980244140625,-0.3002032935619354,-0.060686830431222916,7.899779796600342
1761400774230088200,3.408088134765625,-0.12320558726787567,-0.4000767469406128,8.402844429016113
1761400774240185900,3.418185791015625,-0.014938552863895893,-0.252839595079422,8.839959144592285
1761400774250254800,3.4282548828125,0.10160547494888306,0.2883790135383606,9.227429389953613
1761400774260335400,3.43833544921875,0.22084742784500122,0.8797758221626282,9.519021987915039
1761400774270404900,3.44840478515625,0.1840423047542572,1.1940016746520996,9.597862243652344
1761400774280504600,3.458504638671875,0.004679747391492128,0.9882426857948303,9.34034252166748
1761400774290588200,3.468588134765625,-0.06574961543083191,0.573727011680603,8.837311744689941
1761400774300669200,3.478669189453125,0.033174578100442886,0.29585662484169006,8.259453773498535
1761400774310739500,3.488739501953125,0.1625088006258011,-0.13761121034622192,7.527681350708008
1761400774320829400,3.498829345703125,0.22954076528549194,-0.7580524682998657,6.686642646789551
1761400774330914000,3.5089140625,0.2502582371234894,-1.2523070573806763,5.885773181915283
1761400774340994600,3.51899462890625,0.2582687437534332,-1.483280062675476,5.162127494812012
1761400774351051300,3.52905126953125,0.2901943027973175,-1.4852784872055054,4.490142345428467
1761400774361165000,3.5391650390625,0.3163742423057556,-1.3699835538864136,3.8243861198425293
1761400774371236900,3.54923681640625,0.2905939817428589,-1.2995375394821167,3.1162288188934326
1761400774381306000,3.55930615234375,0.24529536068439484,-1.152999758720398,2.429971218109131
1761400774391394800,3.569394775390625,0.22169677913188934,-0.9344006180763245,1.7619332075119019
1761400774411561000,3.58956103515625,0.3309297561645508,-0.3268328905105591,0.35749271512031555
1761400774421641500,3.599641357421875,0.3887021243572235,-0.09564337879419327,-0.375362366437912
1761400774431706000,3.6097060546875,0.40199196338653564,0.02125038206577301,-1.1070849895477295
1761400774441794000,3.6197939453125,0.40727123618125916,0.09849119186401367,-1.7721420526504517
1761400774451871700,3.629871826171875,0.42837172746658325,0.16360795497894287,-2.3458189964294434
1761400774461965300,3.63996533203125,0.42968741059303284,0.26198258996009827,-2.8334453105926514
1761400774472045800,3.6500458984375,0.31883901357650757,0.36040714383125305,-3.2492268085479736
1761400774482107100,3.660107177734375,0.11835930496454239,0.4384640157222748,-3.605137348175049
1761400774492196400,3.6701962890625,-0.05627354606986046,0.5235654711723328,-3.936466932296753
1761400774502275600,3.680275634765625,-0.15742936730384827,0.6469542384147644,-4.233738899230957
1761400774512369200,3.690369140625,-0.22859150171279907,0.7529063820838928,-4.499019145965576
1761400774522447000,3.700447021484375,-0.25696974992752075,0.8474672436714172,-4.782485008239746
1761400774532526600,3.710526611328125,-0.15816213190555573,1.0311264991760254,-5.1617112159729
1761400774542600400,3.720600341796875,0.02914433367550373,1.153016448020935,-5.598443031311035
1761400774552676600,3.730676513671875,0.2742232084274292,1.1511179208755493,-6.060439109802246
1761400774562764000,3.740763916015625,0.5242482423782349,1.080238938331604,-6.438882350921631
1761400774572854800,3.750854736328125,0.624005138874054,1.0662662982940674,-6.647639274597168
1761400774582933500,3.76093359375,0.48952487111091614,1.0957269668579102,-6.717618942260742
1761400774593016000,3.77101611328125,0.1609266847372055,1.2740403413772583,-6.632167816162109
1761400774603092500,3.781092529296875,-0.205209419131279,1.3688510656356812,-6.461365222930908
1761400774613165000,3.7911650390625,-0.41767993569374084,1.1695704460144043,-6.355329990386963
1761400774623246300,3.801246337890625,-0.5246812701225281,0.7120210528373718,-6.415766716003418
1761400774633339400,3.81133935546875,-0.5093430280685425,0.31374290585517883,-6.706744194030762
1761400774643415800,3.821415771484375,-0.2150019109249115,0.23751799762248993,-7.187475681304932
1761400774653501200,3.831501220703125,0.03820405900478363,0.27945253252983093,-7.440781593322754
1761400774663582000,3.84158203125,0.3221864402294159,0.12110719829797745,-7.491625785827637
1761400774673650400,3.851650390625,0.7934253215789795,-0.44094544649124146,-7.4521894454956055
1761400774683717400,3.86171728515625,1.2303904294967651,-1.1048866510391235,-7.351133346557617
1761400774693811700,3.871811767578125,1.532459020614624,-1.245828628540039,-7.1586809158325195
1761400774703905800,3.88190576171875,1.701646089553833,-0.7048765420913696,-6.9085893630981445
1761400774713973800,3.891973876953125,1.553642749786377,0.24479573965072632,-6.650820255279541
1761400774724055000,3.902054931640625,1.189371943473816,1.1745998859405518,-6.40970516204834
1761400774734148000,3.912148193359375,0.9465746283531189,1.9291050434112549,-6.357594966888428
1761400774744215800,3.9222158203125,0.8328784108161926,2.3640050888061523,-6.411037445068359
1761400774754297000,3.932297119140625,0.864470899105072,2.2259442806243896,-6.33221435546875
1761400774764390400,3.942390380859375,0.691786527633667,1.5916969776153564,-5.903176307678223
1761400774774445800,3.95244580078125,0.640342652797699,0.7261935472488403,-5.18532657623291
1761400774784552200,3.96255224609375,0.8647207021713257,-0.15749597549438477,-4.487844467163086
1761400774794632700,3.9726328125,0.9969193935394287,-0.8124107718467712,-3.8809261322021484
1761400774804713700,3.982713623046875,0.9840459227561951,-1.0378379821777344,-3.4496564865112305
1761400774814794500,3.99279443359375,0.8949475288391113,-0.87771075963974,-3.220299005508423
1761400774824865000,4.002864990234375,0.6429739594459534,-0.36034053564071655,-2.989492416381836
1761400774834956500,4.01295654296875,0.3750292956829071,0.2822170853614807,-2.710273027420044
1761400774845035800,4.023035888671875,0.16457389295101166,0.933834433555603,-2.4025256633758545
1761400774855113500,4.033113525390625,0.05101091042160988,0.9747030735015869,-1.7641814947128296
1761400774865180200,4.04318017578125,-0.029210949316620827,0.5316426157951355,-0.8703663945198059
1761400774875280400,4.0532802734375,-0.14810317754745483,0.12015791982412338,0.06778139621019363
1761400774885361200,4.063361083984375,-0.21899884939193726,-0.022566040977835655,0.8278489708900452
1761400774895429000,4.07342919921875,-0.196049764752388,-0.013189892284572124,1.3447694778442383
1761400774905507600,4.083507568359375,-0.1861906498670578,0.15423181653022766,1.6450560092926025
1761400774915588600,4.093588623046875,-0.17156852781772614,0.44747376441955566,1.8115785121917725
1761400774925683000,4.103682861328125,-0.18187730014324188,0.6149454116821289,2.001183271408081
1761400774935752700,4.113752685546875,-0.2763715386390686,0.6188424229621887,2.2737576961517334
1761400774945833000,4.1238330078125,-0.4051561951637268,0.5818041563034058,2.627236843109131
1761400774955908600,4.13390869140625,-0.5189189910888672,0.5108419060707092,3.038638114929199
1761400774966006000,4.144006103515625,-0.5880327224731445,0.30061963200569153,3.381592035293579
1761400774976088600,4.154088623046875,-0.6385773420333862,0.0038803599309176207,3.552561044692993
1761400774986160600,4.16416064453125,-0.6597610712051392,-0.24028253555297852,3.5394210815429688
1761400774996250000,4.17425,-0.6621259450912476,-0.4496387839317322,3.3637890815734863
1761400775006330000,4.184330078125,-0.6465878486633301,-0.5938615798950195,3.0892326831817627
1761400775016392400,4.194392333984375,-0.6266365051269531,-0.6936517953872681,2.824352264404297
1761400775026479600,4.204479736328125,-0.5912802219390869,-0.7992708683013916,2.615478992462158
1761400775036571600,4.214571533203125,-0.5604538321495056,-0.846900999546051,2.5447499752044678
1761400775046654500,4.224654541015625,-0.6096827983856201,-0.633414626121521,2.6540660858154297
1761400775056708400,4.234708251953125,-0.7101225256919861,-0.2866969704627991,2.9578001499176025
1761400775066816500,4.24481640625,-0.7788364887237549,-0.2204144299030304,3.3459858894348145
1761400775076875000,4.254875,-0.8096961975097656,-0.4628453254699707,3.6172947883605957
1761400775086976300,4.264976318359375,-0.8792595863342285,-0.5477635860443115,3.9436779022216797
1761400775097059000,4.27505908203125,-1.00331449508667,-0.42629000544548035,4.3761467933654785
1761400775107128800,4.28512890625,-1.025747299194336,-0.3823070526123047,4.990659236907959
1761400775117210600,4.295210693359375,-0.9155650734901428,-0.4531360864639282,5.749910354614258
1761400775127302000,4.305302001953125,-0.7725912928581238,-0.6286349296569824,6.450390338897705
1761400775137371600,4.31537158203125,-0.6458051204681396,-0.7576360702514648,6.891835689544678
1761400775147463400,4.32546337890625,-0.5740267634391785,-0.6858744025230408,7.120626926422119
1761400775157542100,4.335542236328125,-0.6423743963241577,-0.41408267617225647,7.273992538452148
1761400775167621400,4.345621337890625,-0.7582522630691528,-0.20169544219970703,7.377796649932861
1761400775177705700,4.355705810546875,-0.7394167184829712,-0.05444161593914032,7.360692977905273
1761400775187786500,4.365786376953125,-0.5780237317085266,0.13368089497089386,7.13741397857666
1761400775197867300,4.3758671875,-0.3689839243888855,0.3768445551395416,6.7300262451171875
1761400775207948300,4.3859482421875,-0.2049262970685959,0.5907139778137207,6.19673490524292
1761400775218025500,4.396025390625,-0.08428541570901871,0.7452788949012756,5.578924655914307
1761400775228105700,4.406105712890625,0.04091864451766014,0.7980384826660156,4.975520610809326
1761400775238187500,4.4161875,0.18579095602035522,0.6906874179840088,4.441895961761475
1761400775248239600,4.426239501953125,0.31041213870048523,0.43879708647727966,4.00056791305542
1761400775258353000,4.436352783203125,0.38853558897972107,0.18289318680763245,3.6568145751953125
1761400775268434000,4.446433837890625,0.41393280029296875,0.058138780295848846,3.4058401584625244
1761400775278510300,4.45651025390625,0.38700345158576965,0.01858575828373432,3.234288215637207
1761400775288593400,4.466593505859375,0.3480333089828491,-0.028045175597071648,3.091780662536621
1761400775298676500,4.476676513671875,0.3423376679420471,-0.02859475463628769,2.919546127319336
1761400775308756700,4.4867568359375,0.3403225541114807,-0.016504019498825073,2.682211399078369
1761400775318838000,4.496838134765625,0.28631392121315,-0.14000937342643738,2.343071222305298
1761400775328875500,4.50687548828125,0.1782800555229187,-0.42670634388923645,1.8934657573699951
1761400775338979300,4.516979248046875,0.05092764273285866,-0.7354530692100525,1.379259705543518
1761400775349076000,4.527075927734375,-0.09489394724369049,-0.9147823452949524,0.8522968888282776
1761400775359160800,4.537160888671875,-0.2565034329891205,-0.9285717606544495,0.3662193715572357
1761400775369241600,4.54724169921875,-0.43448373675346375,-0.8133933544158936,-0.018385911360383034
1761400775379323000,4.557322998046875,-0.6585953235626221,-0.5682145953178406,-0.27931928634643555
1761400775389377800,4.567377685546875,-0.8971958160400391,-0.2132032960653305,-0.42863819003105164
1761400775399484200,4.577484130859375,-1.0029981136322021,0.11534494161605835,-0.5271627306938171
1761400775409561000,4.58756103515625,-0.8430206775665283,0.3821238577365875,-0.7193320989608765
1761400775419646200,4.597646240234375,-0.5245147347450256,0.478333443403244,-1.1048866510391235
1761400775429727000,4.60772705078125,-0.22342878580093384,0.35707637667655945,-1.6804622411727905
1761400775439806000,4.617805908203125,-0.024914242327213287,0.20615868270397186,-2.4395971298217773
1761400775449889500,4.6278896484375,0.07917266339063644,0.25342246890068054,-3.348034381866455
1761400775459970000,4.637969970703125,0.16402430832386017,0.49425458908081055,-4.3475518226623535
1761400775470051000,4.648051025390625,0.2866303622722626,0.6212572455406189,-5.384423732757568
1761400775480127700,4.658127685546875,0.35241326689720154,0.658312201499939,-6.314544677734375
1761400775490212400,4.66821240234375,0.3122607171535492,0.6246047019958496,-7.082822322845459
1761400775500293400,4.67829345703125,0.28146764636039734,0.520700991153717,-7.714738368988037
1761400775510348300,4.688348388671875,0.3361424207687378,0.47613513469696045,-8.260319709777832
1761400775520429300,4.69842919921875,0.5171869993209839,0.6049197912216187,-8.683778762817383
1761400775530535700,4.70853564453125,0.7620993256568909,0.865836501121521,-8.98779582977295
1761400775540612900,4.71861279296875,0.9048899412155151,1.0433671474456787,-9.277240753173828
1761400775550672100,4.728672119140625,0.8337111473083496,1.2854149341583252,-9.467628479003906
1761400775560779300,4.738779296875,0.7079241871833801,1.610449194908142,-9.489594459533691
1761400775570859000,4.74885888671875,0.7067750692367554,1.761533498764038,-9.408573150634766
1761400775580940300,4.758940185546875,0.7350034117698669,1.5743268728256226,-9.184362411499023
1761400775591020500,4.7690205078125,0.6742666363716125,1.143823504447937,-8.78689956665039
1761400775601097500,4.779097412109375,0.6055026650428772,0.596159815788269,-8.31003189086914
1761400775611183400,4.789183349609375,0.6850583553314209,-0.08979785442352295,-7.880177974700928
1761400775621263600,4.799263671875,0.8257672190666199,-0.7236454486846924,-7.507263660430908
1761400775631345000,4.809344970703125,0.9275392293930054,-0.9509046673774719,-7.11120080947876
1761400775641425200,4.819425048828125,0.888136088848114,-0.6849584579467773,-6.624806880950928
1761400775651506700,4.829506591796875,0.8131768703460693,-0.1160777136683464,-5.9732561111450195
1761400775661572000,4.839572021484375,0.8614398837089539,0.6003233194351196,-5.051329135894775
1761400775671664600,4.84966455078125,0.9291046857833862,0.9543353915214539,-3.9185471534729004
1761400775681749200,4.859749267578125,0.9466912150382996,0.7311230897903442,-2.787114143371582
1761400775691789000,4.8697890625,0.8854714632034302,0.4541020095348358,-1.8910175561904907
1761400775701911000,4.8799111328125,0.7513742446899414,0.23959973454475403,-1.2064921855926514
1761400775711965700,4.889965576171875,0.7127371430397034,0.10828369110822678,-0.6586119532585144
1761400775722072600,4.900072509765625,0.6791296005249023,0.17726416885852814,-0.1450888216495514
1761400775732148700,4.910148681640625,0.5844188332557678,0.40652182698249817,0.445608526468277
1761400775742233300,4.9202333984375,0.521666944026947,0.3550945520401001,0.9978187084197998
1761400775752326100,4.930326171875,0.455151230096817,-0.01530493889003992,1.3171406984329224
1761400775762395000,4.940394775390625,0.39131680130958557,-0.2966560125350952,1.3464182615280151
1761400775772477000,4.950476806640625,0.3387071192264557,-0.29550689458847046,1.196366548538208
1761400775782557400,4.960557373046875,0.27405664324760437,-0.22795864939689636,0.9814146161079407
1761400775792638000,4.970637939453125,0.17090237140655518,-0.1521833837032318,0.8447027206420898
1761400775802711000,4.9807109375,0.07261102646589279,-0.12402162700891495,0.8413053154945374
1761400775812802600,4.990802490234375,-0.019551685079932213,-0.18267668783664703,0.8720650672912598
1761400775822880300,5.00088037109375,-0.12761887907981873,-0.3119775950908661,0.9000769257545471
1761400775832961300,5.010961181640625,-0.22995711863040924,-0.46809130907058716,0.9370319843292236
1761400775843042000,5.0210419921875,-0.30028656125068665,-0.7158181667327881,0.990707516670227
1761400775853122800,5.031122802734375,-0.3614896535873413,-1.013739824295044,1.0447328090667725
1761400775863199500,5.041199462890625,-0.3978118300437927,-1.296239972114563,1.121107578277588
1761400775873284600,5.05128466796875,-0.4061887264251709,-1.3941816091537476,1.2747564315795898
1761400775883365400,5.061365478515625,-0.43976300954818726,-1.2142695188522339,1.416314721107483
1761400775893446400,5.0714462890625,-0.5364389419555664,-0.7573529481887817,1.4218270778656006
1761400775903527200,5.081527099609375,-0.6896215677261353,-0.19849789142608643,1.2143361568450928
1761400775913608700,5.091608642578125,-0.8896182775497437,0.34535202383995056,0.94747394323349
1761400775923685000,5.10168505859375,-1.149369239807129,0.7366188764572144,0.8572098016738892
1761400775933769700,5.111769775390625,-1.3444364070892334,0.8122609257698059,0.9937717914581299
1761400775943850500,5.1218505859375,-1.4603809118270874,0.6660729050636292,1.2705763578414917
1761400775953932500,5.1319326171875,-1.5716290473937988,0.38846898078918457,1.6636085510253906
1761400775963987500,5.141987548828125,-1.691953420639038,0.17331719398498535,2.063535451889038
1761400775974093300,5.15209326171875,-1.763631820678711,0.17075248062610626,2.416048526763916
1761400775984173800,5.162173828125,-1.7707264423370361,0.23019027709960938,2.785898447036743
1761400775994251000,5.1722509765625,-1.8044172525405884,0.19240255653858185,3.1566145420074463
1761400776004335900,5.1823359375,-1.8233528137207031,0.2772209048271179,3.3702173233032227
1761400776014417200,5.192417236328125,-1.848783254623413,0.5251975655555725,3.499901294708252
1761400776024498200,5.202498291015625,-1.8392072916030884,0.8286150097846985,3.6650915145874023
1761400776034578200,5.212578125,-1.7420316934585571,1.0366222858428955,3.9716899394989014
1761400776044659500,5.222659423828125,-1.607518196105957,1.0120744705200195,4.46136474609375
1761400776054740200,5.232740234375,-1.571912169456482,1.040169596672058,5.060638904571533
1761400776064821000,5.242821044921875,-1.5224499702453613,1.1800457239151,5.70857572555542
1761400776074901800,5.25290185546875,-1.3962301015853882,1.1617931127548218,6.367087364196777
1761400776084982500,5.262982421875,-1.2912439107894897,0.9848120212554932,6.987362384796143
1761400776095038200,5.2730380859375,-1.2154686450958252,0.7666458487510681,7.513908863067627
1761400776105144000,5.28314404296875,-1.1071016788482666,0.5060455799102783,7.986946105957031
1761400776115225600,5.2932255859375,-1.0333914756774902,0.23433709144592285,8.384991645812988
1761400776125298700,5.303298583984375,-1.0410022735595703,0.05585719645023346,8.644875526428223
1761400776135387600,5.3133876953125,-1.105952501296997,0.06473372876644135,8.748329162597656
1761400776145467600,5.323467529296875,-1.1427576541900635,0.14948545396327972,8.697152137756348
1761400776155549400,5.333549560546875,-1.1074680089950562,0.06353464722633362,8.509263038635254
1761400776165629200,5.343629150390625,-1.0280122756958008,-0.0810878649353981,8.241984367370605
1761400776175686000,5.353685791015625,-0.9745864868164062,-0.2200813591480255,7.878612518310547
1761400776195872000,5.3738720703125,-0.8964130878448486,-0.036921706050634384,6.8677873611450195
1761400776205953300,5.383953369140625,-0.7953904867172241,0.22209647297859192,6.28208589553833
1761400776216033800,5.39403369140625,-0.6763317584991455,0.3796923756599426,5.60776948928833
1761400776226115300,5.404115234375,-0.5301936864852905,0.44199463725090027,4.890202522277832
1761400776236183000,5.41418310546875,-0.35527774691581726,0.4738868474960327,4.153017520904541
1761400776246251500,5.42425146484375,-0.15316596627235413,0.4226261377334595,3.411269187927246
1761400776256332300,5.434332275390625,0.014638782478868961,0.30328425765037537,2.7169013023376465
1761400776266412800,5.444412841796875,0.09777507185935974,0.0742098018527031,2.042368173599243
1761400776276494000,5.454494140625,0.0918462872505188,-0.23595252633094788,1.4075714349746704
1761400776286579200,5.4645791015625,-0.007194486912339926,-0.49107369780540466,0.8534460067749023
1761400776296643800,5.474643798828125,-0.16275861859321594,-0.6444228291511536,0.33202889561653137
1761400776306724900,5.484724853515625,-0.304017037153244,-0.63801109790802,-0.15761256217956543
1761400776316826000,5.494826171875,-0.36535337567329407,-0.44037920236587524,-0.6348301768302917
1761400776326907400,5.504907470703125,-0.31647413969039917,-0.0526929534971714,-1.1081008911132812
1761400776337003800,5.515003662109375,-0.25765255093574524,0.43045347929000854,-1.6012896299362183
1761400776347084500,5.52508447265625,-0.19866442680358887,0.8588085770606995,-2.1268701553344727
1761400776357166300,5.535166259765625,-0.12212308496236801,1.135796308517456,-2.7170345783233643
1761400776367247000,5.5452470703125,-0.1972322016954422,1.1568135023117065,-3.4413294792175293
1761400776377327000,5.5553271484375,-0.40267476439476013,1.1946178674697876,-4.163126468658447
1761400776387408000,5.565407958984375,-0.5130401849746704,1.6599946022033691,-4.745696544647217
1761400776397489700,5.57548974609375,-0.5435501337051392,2.234687566757202,-5.306983470916748
1761400776407556900,5.585556884765625,-0.5400528311729431,2.793426036834717,-5.854730129241943
1761400776417651200,5.595651123046875,-0.5464978814125061,2.91233491897583,-6.361325263977051
1761400776427731500,5.6057314453125,-0.49208956956863403,2.3535797595977783,-6.746613502502441
1761400776437792500,5.61579248046875,-0.36415427923202515,1.418995976448059,-7.063187599182129
1761400776447881000,5.625880859375,-0.13964299857616425,0.35228005051612854,-7.366704940795898
1761400776457973200,5.63597314453125,0.2211138904094696,-0.5369718670845032,-7.68742561340332
1761400776468055600,5.6460556640625,0.5007163286209106,-1.2033112049102783,-7.983898639678955
1761400776478124500,5.65612451171875,0.5494622588157654,-1.6337980031967163,-8.253658294677734
1761400776488217000,5.666217041015625,0.44863954186439514,-1.6430243253707886,-8.488228797912598
1761400776498295800,5.6762958984375,0.50917649269104,-1.359358310699463,-8.759986877441406
1761400776508345900,5.686345947265625,0.7400495409965515,-1.07096266746521,-9.129087448120117
1761400776518460000,5.6964599609375,0.978283703327179,-0.9797825217247009,-9.483216285705566
1761400776528540400,5.70654052734375,1.0800889730453491,-1.1410256624221802,-9.689558029174805
1761400776538621400,5.716621337890625,0.9458252191543579,-1.4975358247756958,-9.694904327392578
1761400776548689400,5.726689453125,0.7931421995162964,-1.905439853668213,-9.519688606262207
1761400776558777000,5.736777099609375,0.9389471411705017,-2.1880733966827393,-9.271328926086426
1761400776568864000,5.746864013671875,1.1797959804534912,-2.101806163787842,-9.0103120803833
1761400776578935300,5.756935302734375,1.2154852151870728,-1.639060616493225,-8.700682640075684
1761400776589025800,5.76702587890625,1.0676485300064087,-1.156180739402771,-8.356030464172363
1761400776599105800,5.777105712890625,1.0113083124160767,-0.8494157791137695,-7.9677276611328125
1761400776609188000,5.78718798828125,1.1475539207458496,-0.8627888560295105,-7.4385833740234375
1761400776619256600,5.797256591796875,1.2929259538650513,-0.983496367931366,-6.799939155578613
1761400776629347300,5.807347412109375,1.3900847434997559,-1.0617197751998901,-6.086136341094971
1761400776639430000,5.817429931640625,1.4145160913467407,-1.0730277299880981,-5.235388278961182
1761400776649497900,5.827497802734375,1.3144594430923462,-1.0350568294525146,-4.18557596206665
1761400776659591700,5.837591796875,1.1785968542099,-1.172418236732483,-3.0324928760528564
1761400776669672400,5.84767236328125,0.9886423945426941,-1.3509314060211182,-1.9203617572784424
1761400776679735000,5.857735107421875,0.7205145359039307,-1.0761420726776123,-0.8658031821250916
1761400776689832200,5.867832275390625,0.5675817131996155,-0.5736936926841736,0.2082071155309677
1761400776699914500,5.87791455078125,0.5021818280220032,0.0849016085267067,1.2094731330871582
1761400776709990000,5.887989990234375,0.5350566506385803,0.665390133857727,2.0508785247802734
1761400776720064300,5.898064208984375,0.5472972989082336,1.006345510482788,2.7224137783050537
1761400776730144500,5.90814453125,0.4433269500732422,1.3024852275848389,3.241299629211426
1761400776740238600,5.918238525390625,0.45633363723754883,1.5212842226028442,3.643507957458496
1761400776750305300,5.92830517578125,0.5247811675071716,1.3321125507354736,3.9415295124053955
1761400776760398000,5.938398193359375,0.4596644341945648,0.7794860005378723,4.114663600921631
1761400776770481000,5.94848095703125,0.30195194482803345,0.15003502368927002,4.141809463500977
1761400776780560000,5.958559814453125,0.06191921979188919,-0.5120909214019775,4.009044647216797
1761400776790641400,5.968641357421875,-0.2607002258300781,-0.9985514879226685,3.719583034515381
1761400776800723000,5.978722900390625,-0.5740434527397156,-1.1173770427703857,3.3241026401519775
1761400776810804200,5.98880419921875,-0.8516140580177307,-0.9827302694320679,2.865554094314575
1761400776820862700,5.99886279296875,-1.0528432130813599,-0.7956236600875854,2.392566680908203
1761400776830965800,6.0089658203125,-1.1920698881149292,-0.6829766631126404,1.9280558824539185
1761400776841047000,6.019047119140625,-1.290694236755371,-0.6965329051017761,1.5643845796585083
1761400776851115300,6.029115234375,-1.377844214439392,-0.7961398959159851,1.3576430082321167
1761400776861208800,6.039208740234375,-1.5276793241500854,-0.8446694016456604,1.2890788316726685
1761400776871289600,6.04928955078125,-1.6857914924621582,-0.8092798590660095,1.3481003046035767
1761400776881366300,6.0593662109375,-1.7128374576568604,-0.9306368827819824,1.5132237672805786
1761400776891451100,6.069451171875,-1.7310068607330322,-1.2040939331054688,1.5863010883331299
1761400776901532000,6.079531982421875,-1.8528801202774048,-1.3917335271835327,1.5173373222351074
1761400776911613400,6.089613525390625,-2.0424182415008545,-1.3077977895736694,1.5057295560836792
1761400776921694000,6.09969384765625,-2.170936346054077,-0.9977853894233704,1.7196989059448242
1761400776931762000,6.109761962890625,-2.1573801040649414,-0.6792794466018677,2.0609540939331055
1761400776941855200,6.119855224609375,-2.052777051925659,-0.337591290473938,2.4535865783691406
1761400776951931000,6.129930908203125,-2.0757594108581543,0.17568203806877136,2.8982625007629395
1761400776962005200,6.140005126953125,-2.1335983276367188,0.9200449585914612,3.51507306098938
1761400776972098000,6.15009814453125,-1.9943217039108276,1.418030023574829,4.271327018737793
1761400776982145800,6.160145751953125,-1.7111886739730835,1.67206871509552,5.068716049194336
1761400776992259600,6.170259521484375,-1.3858712911605835,1.8025686740875244,5.856845378875732
1761400777002340900,6.1803408203125,-1.0464980602264404,1.7074415683746338,6.519653797149658
1761400777012419800,6.190419921875,-0.7299739718437195,1.7686114311218262,6.984614372253418
1761400777022495500,6.20049560546875,-0.36285528540611267,2.094578266143799,7.329933166503906
1761400777032583200,6.210583251953125,0.056306853890419006,2.4635121822357178,7.652352809906006
1761400777042664200,6.220664306640625,0.3909837305545807,2.5614371299743652,7.9643635749816895
1761400777052757200,6.23075732421875,0.5832697153091431,2.2864811420440674,8.224464416503906
1761400777062826000,6.240825927734375,0.7270262241363525,1.4291049242019653,8.466229438781738
1761400777072906200,6.25090625,0.7986546754837036,0.24844294786453247,8.679299354553223
1761400777082984400,6.260984375,0.7447792887687683,-0.5897647142410278,8.896132469177246
1761400777093068300,6.271068359375,0.6079674363136292,-0.9760687351226807,9.146390914916992
1761400777103149000,6.281149169921875,0.3940480351448059,-1.0021487474441528,9.334680557250977
1761400777113204500,6.29120458984375,0.1882723867893219,-0.9671755433082581,9.297842025756836
1761400777123310600,6.301310546875,0.03069314733147621,-1.1278856992721558,8.944046020507812
1761400777133380600,6.311380615234375,-0.12099061906337738,-1.4415620565414429,8.322422981262207
1761400777143471000,6.32147119140625,-0.26349806785583496,-1.7008132934570312,7.5373077392578125
1761400777153553400,6.331553466796875,-0.38415563106536865,-1.7657802104949951,6.713805198669434
1761400777163634400,6.341634521484375,-0.48800936341285706,-1.7242287397384644,5.909021854400635
1761400777173698300,6.3516982421875,-0.6199749112129211,-1.66995370388031,5.129735946655273
1761400777183796000,6.3617958984375,-0.7370518445968628,-1.5446662902832031,4.381925582885742
1761400777193877200,6.371877197265625,-0.7480767369270325,-1.3760788440704346,3.6700377464294434
1761400777203956000,6.3819560546875,-0.6625422835350037,-1.156080722808838,3.030494451522827
1761400777214038500,6.39203857421875,-0.5005164742469788,-1.0114248991012573,2.351364850997925
1761400777224119300,6.402119384765625,-0.26211580634117126,-0.9834297299385071,1.5868840217590332
1761400777234198500,6.412198486328125,0.01547147799283266,-0.9531362652778625,0.8010028600692749
1761400777244281000,6.422281005859375,0.2913101017475128,-0.8659364581108093,0.009276225231587887
1761400777254361600,6.432361572265625,0.541618287563324,-0.6923694610595703,-0.7963564395904541
1761400777264430300,6.442430419921875,0.7010461091995239,-0.47023966908454895,-1.6278692483901978
1761400777274522000,6.452522216796875,0.7264766097068787,-0.20072951912879944,-2.4879934787750244
1761400777284591600,6.462591552734375,0.6670888066291809,0.09179632365703583,-3.2918107509613037
1761400777294685700,6.472685791015625,0.5527763962745667,0.34471917152404785,-3.970757246017456
1761400777304765000,6.482764892578125,0.4456251859664917,0.48053178191185,-4.563836097717285
1761400777314821600,6.492821533203125,0.40345749258995056,0.6278188824653625,-5.116262912750244
1761400777324915700,6.502915771484375,0.3681512176990509,0.7379345297813416,-5.652368545532227
1761400777335006700,6.5130068359375,0.30916309356689453,0.8803920149803162,-6.108652114868164
1761400777345089300,6.52308935546875,0.21859915554523468,1.0615365505218506,-6.477453231811523
1761400777355170000,6.533170166015625,0.04303368926048279,1.1129138469696045,-6.823870658874512
1761400777365238800,6.54323876953125,-0.1784965544939041,1.0474140644073486,-7.14465856552124
1761400777375320300,6.5533203125,-0.3069814145565033,1.1054861545562744,-7.399363040924072
1761400777385413400,6.563413330078125,-0.19340179860591888,1.3555113077163696,-7.563620567321777
1761400777395479300,6.573479248046875,0.020517610013484955,1.4644445180892944,-7.537240982055664
1761400777405570800,6.58357080078125,0.16292515397071838,1.2500920295715332,-7.351866245269775
1761400777415641600,6.5936416015625,0.21693375706672668,0.8941314816474915,-7.067300796508789
1761400777425737000,6.603737060546875,0.2442295104265213,0.48452872037887573,-6.7759575843811035
1761400777435817700,6.613817626953125,0.30563247203826904,0.004912902135401964,-6.555326461791992
1761400777445886000,6.623885986328125,0.3876529335975647,-0.3292643427848816,-6.376347064971924
1761400777455977000,6.63397705078125,0.45335260033607483,-0.10095597058534622,-6.1703715324401855
1761400777466058500,6.64405859375,0.5098759531974792,0.5935118794441223,-5.971673965454102
1761400777476140800,6.654140869140625,0.6413585543632507,1.3017858266830444,-5.807716369628906
1761400777486209500,6.66420947265625,0.859391450881958,1.7391172647476196,-5.65421724319458
1761400777496288000,6.6742880859375,1.0923129320144653,1.8336116075515747,-5.516539573669434
1761400777506383400,6.68438330078125,1.3560608625411987,1.585002064704895,-5.409621238708496
1761400777516451000,6.694451171875,1.4961369037628174,0.9997006058692932,-5.32183837890625
1761400777526532900,6.704532958984375,1.4653271436691284,0.4893749952316284,-5.223081111907959
1761400777536626000,6.7146259765625,1.3182731866836548,0.16930359601974487,-5.128320217132568
1761400777546709800,6.724709716796875,1.1257539987564087,0.012673621997237206,-5.046366214752197
1761400777556787700,6.73478759765625,0.9563171863555908,0.059854134917259216,-4.981616020202637
1761400777566868200,6.7448681640625,0.8843722939491272,0.1962662637233734,-4.939548015594482
1761400777576949500,6.754949462890625,0.8401062488555908,0.23373755812644958,-4.886239051818848
1761400777587006700,6.7650068359375,0.757436215877533,0.038603752851486206,-4.770261287689209
1761400777597111300,6.775111328125,0.58298659324646,-0.21015562117099762,-4.57267951965332
1761400777607192000,6.785192138671875,0.36576971411705017,-0.3363422751426697,-4.26832914352417
1761400777617248000,6.795248046875,0.24805991351604462,-0.3604904115200043,-3.8848564624786377
1761400777627353600,6.805353515625,0.20282790064811707,-0.3921661376953125,-3.4843132495880127
1761400777637434600,6.8154345703125,0.18873870372772217,-0.31555819511413574,-3.1248886585235596
1761400777647513600,6.825513671875,0.20570902526378632,-0.054957885295152664,-2.8571605682373047
1761400777657587500,6.83558740234375,0.267828106880188,0.21476875245571136,-2.5425682067871094
1761400777667677200,6.84567724609375,0.36963340640068054,0.3460181951522827,-2.082437515258789
1761400777677744400,6.855744384765625,0.49147337675094604,0.34207120537757874,-1.5416020154953003
1761400777687840000,6.865840087890625,0.5577059388160706,0.2956068217754364,-0.9861276745796204
1761400777697919700,6.875919677734375,0.5501617193222046,0.21470214426517487,-0.42662307620048523
1761400777707988500,6.885988525390625,0.5434169173240662,0.1430736929178238,0.09394467622041702
1761400777718079200,6.896079345703125,0.5433502793312073,0.16464050114154816,0.5465312004089355
1761400777728162000,6.906162109375,0.539902925491333,0.25348907709121704,0.9250577688217163
1761400777738243000,6.9162431640625,0.5124906301498413,0.3785599172115326,1.157596230506897
1761400777748323300,6.9263232421875,0.454668253660202,0.42490771412849426,1.2646476030349731
1761400777758397400,6.9363974609375,0.35775917768478394,0.40414029359817505,1.3218704462051392
1761400777768472800,6.946472900390625,0.23508651554584503,0.29126015305519104,1.4091534614562988
1761400777778560800,6.956560791015625,0.08165409415960312,0.1800120621919632,1.4799325466156006
1761400777788647400,6.9666474609375,-0.06676550209522247,0.018735643476247787,1.4706730842590332
1761400777798715400,6.97671533203125,-0.20955608785152435,-0.2047930657863617,1.3815913200378418
1761400777808809000,6.98680908203125,-0.34873276948928833,-0.43648219108581543,1.2491260766983032
1761400777818890200,6.99689013671875,-0.46939030289649963,-0.6819440722465515,1.0988579988479614
1761400777828970800,7.006970703125,-0.5614197850227356,-0.8788765072822571,0.9280555248260498
1761400777839049700,7.0170498046875,-0.611598014831543,-1.0037974119186401,0.7358860969543457
1761400777849132800,7.0271328125,-0.6198750138282776,-1.0735440254211426,0.5548747777938843
1761400777859201000,7.037200927734375,-0.6040704250335693,-1.0867172479629517,0.40692150592803955
1761400777869297000,7.047296875,-0.5681479573249817,-1.0815712213516235,0.2844820022583008
1761400777879374600,7.05737451171875,-0.5469142198562622,-1.0891320705413818,0.23931661248207092
1761400777889435400,7.067435302734375,-0.5528263449668884,-1.1235556602478027,0.2670620083808899
1761400777899535400,7.077535400390625,-0.5452988147735596,-1.1015058755874634,0.34561848640441895
1761400777909618200,7.0876181640625,-0.5675151348114014,-1.0777075290679932,0.48384588956832886
1761400777919699200,7.09769921875,-0.6257038712501526,-1.0858012437820435,0.6366787552833557
1761400777929779000,7.107779052734375,-0.6636414527893066,-1.008527159690857,0.778236985206604
1761400777939859700,7.117859619140625,-0.6069515347480774,-0.8279988169670105,0.9291046857833862
1761400777949940500,7.1279404296875,-0.5330581665039062,-0.5255805850028992,1.0476971864700317
1761400777960021500,7.138021484375,-0.539636492729187,-0.04851282387971878,1.1139130592346191
1761400777970098400,7.148098388671875,-0.5385040044784546,0.30951282382011414,1.1945679187774658
1761400777980183300,7.158183349609375,-0.5165208578109741,0.7682779431343079,1.4147992134094238
1761400777990264000,7.16826416015625,-0.44261083006858826,1.179762601852417,1.7212309837341309
1761400778000346000,7.17834619140625,-0.3213037848472595,1.5177536010742188,2.1078014373779297
1761400778010387700,7.1883876953125,-0.1818106770515442,1.7073084115982056,2.6024723052978516
1761400778020507100,7.198507080078125,-0.012990045361220837,1.6100496053695679,3.0729451179504395
1761400778030571000,7.208571044921875,0.12060757726430893,1.3592584133148193,3.4922239780426025
1761400778040665000,7.2186650390625,0.16798794269561768,1.21030592918396,3.9307711124420166
1761400778050749200,7.228749267578125,0.1696699857711792,1.0587553977966309,4.356395244598389
1761400778060830700,7.238830810546875,0.1348966360092163,0.9374982714653015,4.777105808258057
1761400778070911700,7.248911865234375,0.11416251957416534,0.7742900252342224,5.1936869621276855
1761400778080966700,7.258966552734375,0.13126607239246368,0.12438801676034927,5.6085686683654785
1761400778091073000,7.269072998046875,0.006661561783403158,-0.6170938014984131,5.842939376831055
1761400778101149400,7.2791494140625,-0.3278154730796814,-1.0579559803009033,5.878162384033203
1761400778111235300,7.2892353515625,-0.6695202589035034,-1.3147425651550293,5.826801776885986
1761400778121315800,7.29931591796875,-0.8935152888298035,-1.447240948677063,5.748777866363525
1761400778131395600,7.3093955078125,-1.0247480869293213,-1.4923731088638306,5.624456882476807
1761400778141476900,7.319476806640625,-1.0975922346115112,-1.4403462409973145,5.497870445251465
1761400778151557600,7.3295576171875,-1.0981751680374146,-1.4973692893981934,5.495222568511963
1761400778161613600,7.339613525390625,-1.0736773014068604,-1.5824706554412842,5.586435794830322
1761400778171730400,7.34973046875,-1.0650172233581543,-1.4616299867630005,5.675168037414551
1761400778181801000,7.359801025390625,-1.088532567024231,-1.2174004316329956,5.707709312438965
1761400778191855900,7.36985595703125,-1.110016107559204,-1.1025217771530151,5.688357830047607
1761400778201962000,7.3799619140625,-1.1183429956436157,-1.1506515741348267,5.611982822418213
1761400778212043300,7.390043212890625,-1.0944280624389648,-1.227109670639038,5.454586982727051
1761400778222123500,7.40012353515625,-1.0470643043518066,-1.2411655187606812,5.206643581390381
1761400778232200700,7.41020068359375,-0.9659098386764526,-1.0994075536727905,4.808398723602295
1761400778242285300,7.420285400390625,-0.7807350754737854,-0.769177258014679,4.2498931884765625
1761400778252366800,7.430366943359375,-0.5132733583450317,-0.36408767104148865,3.5431015491485596
1761400778262421500,7.44042138671875,-0.28648045659065247,-0.05422511324286461,2.677781343460083
1761400778272528000,7.45052783203125,-0.12130704522132874,0.1667555421590805,1.7132538557052612
1761400778282609000,7.46060888671875,0.12428808957338333,0.41018566489219666,0.7616663575172424
1761400778292685600,7.470685546875,0.37136542797088623,0.6770312190055847,-0.10495290905237198
1761400778302770400,7.4807705078125,0.5181862711906433,0.8439366221427917,-0.8749295473098755
1761400778312826600,7.49082666015625,0.56097012758255,0.866585910320282,-1.5735942125320435
1761400778322894300,7.500894287109375,0.4422111213207245,0.7348202466964722,-2.2869808673858643
1761400778333013000,7.511012939453125,0.2301403135061264,0.5611533522605896,-3.101290225982666
1761400778343094000,7.521093994140625,0.10851684212684631,0.49731889367103577,-3.976219654083252
1761400778353174500,7.531174560546875,0.012357197701931,0.46885737776756287,-4.868153095245361
1761400778363251700,7.541251708984375,-0.11019888520240784,0.45135411620140076,-5.741366863250732
1761400778373336000,7.551336181640625,-0.1475869119167328,0.49488744139671326,-6.566834449768066
1761400778383417900,7.56141796875,-0.03975287079811096,0.5619860291481018,-7.314911365509033
1761400778393498000,7.571498046875,0.21753330528736115,0.5102589726448059,-7.99105978012085
1761400778403579100,7.5815791015625,0.547663688659668,0.06548315286636353,-8.457868576049805
1761400778413635800,7.5916357421875,0.7953571677207947,-0.5506113767623901,-8.67073917388916
1761400778423737600,7.601737548828125,0.888885498046875,-0.9864274263381958,-8.768547058105469
1761400778433821400,7.611821533203125,0.9371985197067261,-1.105136513710022,-8.875565528869629
1761400778443877600,7.621877685546875,0.8997105360031128,-0.7369019985198975,-8.960800170898438
1761400778453958400,7.63195849609375,0.7383342385292053,0.022566040977835655,-8.916184425354004
1761400778474145800,7.652145751953125,0.8786766529083252,0.8813579678535461,-8.633800506591797
1761400778484222500,7.662222412109375,1.1485365629196167,0.29737213253974915,-8.35726261138916
1761400778494307300,7.672307373046875,1.386820673942566,-0.24597817659378052,-8.00693130493164
1761400778504362000,7.682362060546875,1.578540325164795,-0.3129768371582031,-7.615780830383301
1761400778514469000,7.69246923828125,1.7601345777511597,-0.2931753396987915,-7.146890163421631
1761400778524549000,7.702549072265625,1.8899351358413696,-0.36540332436561584,-6.646590232849121
1761400778534631000,7.712630859375,1.8969630002975464,-0.2862972915172577,-6.077093124389648
1761400778544711000,7.7227109375,1.7826839685440063,-0.18367591500282288,-5.395815372467041
1761400778554792700,7.732792724609375,1.5140564441680908,-0.10835030674934387,-4.6025896072387695
1761400778564872700,7.742872802734375,1.2069251537322998,0.06015390530228615,-3.703728437423706
1761400778574953500,7.752953369140625,0.9576994776725769,0.18462519347667694,-2.74967622756958
1761400778585035300,7.76303515625,0.718066394329071,0.11404594033956528,-1.7547719478607178
1761400778595115300,7.773115234375,0.4686908423900604,-0.09214605391025543,-0.7707760334014893
1761400778605196500,7.783196533203125,0.23871707916259766,-0.21735011041164398,0.08242017775774002
1761400778615277600,7.793277587890625,0.09832465648651123,-0.2877628207206726,0.7741068005561829
1761400778625358300,7.8033583984375,0.05405857414007187,-0.2531060576438904,1.2776376008987427
1761400778635439000,7.813439208984375,0.08709992468357086,-0.04496554285287857,1.6166777610778809
1761400778645519400,7.823519287109375,0.1982647329568863,0.1375945657491684,1.8324624300003052
1761400778655574800,7.83357470703125,0.31932196021080017,0.23855052888393402,1.926373839378357
1761400778665681200,7.84368115234375,0.3993939459323883,0.22612671554088593,1.9107191562652588
1761400778675762200,7.85376220703125,0.4199948310852051,0.0075109112076461315,1.7522072792053223
1761400778685843500,7.863843505859375,0.37368032336235046,-0.05472473055124283,1.5716290473937988
1761400778695923700,7.873923828125,0.31332656741142273,0.12943415343761444,1.4640448093414307
1761400778706004700,7.884004638671875,0.3037339150905609,0.35014835000038147,1.3832234144210815
1761400778716086300,7.894086181640625,0.2870467007160187,0.4818640947341919,1.3093299865722656
1761400778726166800,7.904166748046875,0.20414356887340546,0.4539521336555481,1.245895266532898
1761400778736263400,7.914263427734375,0.10085605084896088,0.3839224576950073,1.1484699249267578
1761400778746325000,7.924324951171875,-0.057722434401512146,0.34388649463653564,1.0120744705200195
1761400778756408800,7.934408935546875,-0.22945749759674072,0.28772950172424316,0.903224527835846
1761400778766460200,7.944460205078125,-0.37587863206863403,0.05895482376217842,0.8021519780158997
1761400778776570600,7.954570556640625,-0.5482132434844971,-0.046197932213544846,0.7000802159309387
1761400778786651600,7.964651611328125,-0.7177000045776367,-0.07495922595262527,0.7173003554344177
1761400778796732400,7.974732421875,-0.8965796232223511,-0.12888456881046295,0.8016024231910706
1761400778806813200,7.984813232421875,-1.1057193279266357,-0.23078981041908264,0.924907922744751
1761400778816894000,7.99489404296875,-1.2934088706970215,-0.3165074586868286,1.1444729566574097
1761400778826975000,8.00497509765625,-1.4446430206298828,-0.3245679438114166,1.4002269506454468
1761400778837055500,8.015055419921875,-1.6134469509124756,-0.35735949873924255,1.6434406042099
1761400778847136500,8.025136474609376,-1.7758058309555054,-0.46384456753730774,1.8416887521743774
1761400778857192000,8.03519189453125,-1.9049235582351685,-0.5051462650299072,1.9649609327316284
1761400778867298300,8.04529833984375,-1.9719889163970947,-0.46003082394599915,2.0499956607818604
1761400778877358000,8.055358154296876,-2.07342791557312,-0.3691171407699585,2.215618848800659
1761400778887456800,8.065456787109374,-2.1890392303466797,-0.22322894632816315,2.4620800018310547
1761400778897540900,8.075540771484375,-2.2224302291870117,-0.20900650322437286,2.7345378398895264
1761400778907596500,8.085596435546876,-2.257120370864868,-0.15962767601013184,3.0696310997009277
1761400778917702700,8.09570263671875,-2.262233018875122,0.054291728883981705,3.40647292137146
1761400778927783400,8.105783447265624,-2.183227062225342,0.3932986259460449,3.728093147277832
1761400778937864400,8.115864501953125,-2.027096748352051,0.9141162037849426,4.048264503479004
1761400778947945500,8.125945556640625,-1.7715758085250854,1.4191957712173462,4.419063568115234
1761400778958022000,8.13602197265625,-1.4410457611083984,1.5973093509674072,4.842888832092285
1761400778968103000,8.14610302734375,-1.1051198244094849,1.346051812171936,5.283900737762451
1761400778978184400,8.156184326171875,-0.8642210960388184,0.9318026304244995,5.769228935241699
1761400778988268800,8.166268798828124,-0.7896782159805298,0.8497654795646667,6.301687717437744
1761400778998345700,8.176345703125,-0.6655732989311218,0.93793123960495,6.792694568634033
1761400779008415000,8.1864150390625,-0.38783612847328186,0.9847120642662048,7.171154975891113
1761400779018485800,8.19648583984375,-0.08653368800878525,1.0712624788284302,7.42467737197876
1761400779028566500,8.20656640625,0.10550248622894287,1.3214207887649536,7.488028526306152
1761400779038648000,8.21664794921875,0.2135363668203354,1.6446729898452759,7.356446266174316
1761400779048728600,8.226728515625,0.36726856231689453,1.731423258781433,7.107903003692627
1761400779058815700,8.236815673828126,0.5548248291015625,1.478050708770752,6.840741157531738
1761400779068889000,8.24688916015625,0.6989144086837769,1.1976488828659058,6.625189781188965
1761400779078980000,8.25697998046875,0.739599883556366,0.8792428970336914,6.542902946472168
1761400779089060900,8.267060791015625,0.6279521584510803,0.5165708065032959,6.524117469787598
1761400779099145000,8.27714501953125,0.5031810998916626,0.21523506939411163,6.449657440185547
1761400779109239000,8.287239013671876,0.46960681676864624,-0.08053828030824661,6.24777889251709
1761400779119318300,8.297318359375,0.47981566190719604,-0.3820905387401581,5.922211647033691
1761400779129400600,8.307400634765624,0.48780953884124756,-0.5301437377929688,5.433319568634033
1761400779139481000,8.317481201171875,0.47675132751464844,-0.48341289162635803,4.773625373840332
1761400779149560000,8.32756005859375,0.4576326608657837,-0.36185604333877563,4.028079986572266
1761400779159643100,8.33764306640625,0.4320855736732483,-0.2986045181751251,3.2644152641296387
1761400779169724200,8.34772412109375,0.3650202751159668,-0.2658796012401581,2.5170044898986816
1761400779179804700,8.3578046875,0.21047204732894897,-0.16405761241912842,1.8308969736099243
1761400779189883400,8.36788330078125,0.120724156498909,0.016687212511897087,1.1645076274871826
1761400779199966700,8.377966796875,0.21315333247184753,0.2636812627315521,0.4554010331630707
1761400779210047500,8.388047607421875,0.40219178795814514,0.44322702288627625,-0.2933085858821869
1761400779220116700,8.39811669921875,0.5742932558059692,0.47383689880371094,-1.080971598625183
1761400779230209300,8.408209228515625,0.683009922504425,0.4896914064884186,-1.8931492567062378
1761400779240289800,8.418289794921876,0.7057591676712036,0.5574061870574951,-2.675483226776123
1761400779250366200,8.4283662109375,0.6492524743080139,0.6211240291595459,-3.3526976108551025
1761400779260458500,8.43845849609375,0.5944777727127075,0.6915034651756287,-3.9026427268981934
1761400779270509600,8.448509521484375,0.5519603490829468,0.8187059760093689,-4.300721168518066
1761400779280598800,8.458598876953126,0.47550228238105774,0.9424777626991272,-4.547798156738281
1761400779290692900,8.46869287109375,0.39081719517707825,0.9859278202056885,-4.741616725921631
1761400779300775200,8.478775146484375,0.34132176637649536,0.8590583801269531,-4.998319625854492
1761400779310847700,8.48884765625,0.3373914659023285,0.6432071328163147,-5.254223823547363
1761400779320932900,8.498932861328125,0.370149701833725,0.44239431619644165,-5.507912635803223
1761400779331011600,8.509011474609375,0.3773941397666931,0.2615329325199127,-5.804002285003662
1761400779341101800,8.519101806640625,0.38915178179740906,0.16142630577087402,-6.12733793258667
1761400779351179800,8.5291796875,0.4293709695339203,0.16860413551330566,-6.454920291900635
1761400779361260300,8.53926025390625,0.40400707721710205,0.40527278184890747,-6.688624382019043
1761400779371341000,8.549341064453126,0.34894925355911255,0.9045735001564026,-6.730059623718262
1761400779381417700,8.559417724609375,0.44176149368286133,1.3090968132019043,-6.652268886566162
1761400779391482400,8.569482421875,0.6596611738204956,1.2872469425201416,-6.536807537078857
1761400779401583600,8.57958349609375,0.877977192401886,0.8869203329086304,-6.452305793762207
1761400779411664600,8.58966455078125,0.9881927371025085,0.42643988132476807,-6.4204301834106445
1761400779421745200,8.5997451171875,0.9782670140266418,-0.012940083630383015,-6.468027114868164
1761400779431826200,8.609826171875,0.8895516991615295,-0.362605482339859,-6.589700222015381
1761400779441894400,8.619894287109375,0.7287748456001282,-0.2806183099746704,-6.693437576293945
1761400779451977000,8.62997705078125,0.6160778999328613,0.1308663785457611,-6.660496234893799
1761400779462068700,8.64006884765625,0.49210622906684875,0.6140460968017578,-6.427424907684326
1761400779472149500,8.6501494140625,0.3773774802684784,0.9263234734535217,-6.015340328216553
1761400779482218000,8.660218017578124,0.30166882276535034,0.7132368087768555,-5.546716213226318
1761400779492310800,8.670310791015625,0.2749226689338684,0.1324651539325714,-5.149470806121826
1761400779502392600,8.680392578125,0.3221864402294159,-0.46912384033203125,-4.827850341796875
1761400779512477700,8.690477783203125,0.4270727336406708,-0.8640711903572083,-4.567599773406982
1761400779522565400,8.7005654296875,0.5805384516716003,-0.9995673894882202,-4.315392971038818
1761400779532634600,8.710634521484375,0.6607769727706909,-0.9586820602416992,-3.9863452911376953
1761400779542698800,8.72069873046875,0.640958845615387,-0.8434869647026062,-3.5458662509918213
1761400779552796200,8.730796142578125,0.5932120680809021,-0.6330149173736572,-3.033458709716797
1761400779562877400,8.74087744140625,0.5734938383102417,-0.38400572538375854,-2.5261309146881104
1761400779572935700,8.750935791015625,0.5386039614677429,-0.13529632985591888,-2.0768918991088867
1761400779583038500,8.76103857421875,0.42635661363601685,0.09566003084182739,-1.6688544750213623
1761400779593120000,8.7711201171875,0.2818506956100464,0.29210948944091797,-1.2457120418548584
1761400779603187700,8.781187744140626,0.2084735780954361,0.2947075068950653,-0.7839825749397278
1761400779613269200,8.791269287109374,0.05832197517156601,0.1364121288061142,-0.2871466279029846
1761400779623341000,8.801341064453124,-0.1119808554649353,-0.06100325286388397,0.1571795493364334
1761400779633443300,8.811443359375,-0.13677851855754852,-0.29119351506233215,0.505679190158844
1761400779643509200,8.82150927734375,-0.08973123878240585,-0.3974287807941437,0.8430206775665283
1761400779653592300,8.83159228515625,-0.08095463365316391,-0.28807923197746277,1.111148476600647
1761400779673764000,8.85176416015625,-0.1054525226354599,0.27760395407676697,1.1988812685012817
1761400779683834600,8.861834716796874,-0.17621496319770813,0.6055193543434143,1.1439733505249023
1761400779693921300,8.87192138671875,-0.15989413857460022,0.8027015328407288,1.1367288827896118
1761400779704009700,8.882009765625,-0.13797760009765625,0.7462281584739685,1.1767148971557617
1761400779714090000,8.892090087890624,-0.16940352320671082,0.5795059204101562,1.22957444190979
1761400779724172800,8.9021728515625,-0.22364528477191925,0.33221209049224854,1.288279414176941
1761400779734251500,8.91225146484375,-0.31763991713523865,0.05382541939616203,1.3628722429275513
1761400779744327700,8.92232763671875,-0.46039721369743347,-0.2134031355381012,1.4151822328567505
1761400779754413600,8.93241357421875,-0.6326152086257935,-0.4618627429008484,1.4572832584381104
1761400779764491300,8.9424912109375,-0.8517805933952332,-0.6006230711936951,1.5336414575576782
1761400779774562600,8.9525625,-1.0869836807250977,-0.5943945050239563,1.6292182207107544
1761400779784658700,8.96265869140625,-1.3117281198501587,-0.5298606157302856,1.7411158084869385
1761400779794736400,8.972736328125,-1.5069952011108398,-0.49197301268577576,1.828548789024353
1761400779804818000,8.98281787109375,-1.6903380155563354,-0.47418662905693054,1.922926425933838
1761400779814898700,8.992898681640625,-1.8857216835021973,-0.44217783212661743,2.065467119216919
1761400779824979500,9.0029794921875,-2.056807279586792,-0.4223097264766693,2.2149527072906494
1761400779835058200,9.01305810546875,-2.175865888595581,-0.4609134793281555,2.331596612930298
1761400779845141500,9.0231416015625,-2.266246795654297,-0.5044134855270386,2.5009336471557617
1761400779865291800,9.043291748046874,-2.446108818054199,-0.3759952187538147,2.9422619342803955
1761400779875384000,9.053384033203125,-2.492723226547241,-0.1879226565361023,3.14312481880188
1761400779885466600,9.063466552734376,-2.4689414501190186,0.025197358801960945,3.335977077484131
1761400779895541800,9.073541748046875,-2.39747953414917,0.15961101651191711,3.5503127574920654
1761400779905624300,9.083624267578125,-2.3398070335388184,0.1875063180923462,3.801720142364502
1761400779915708700,9.093708740234375,-2.291743755340576,0.17148526012897491,4.085852146148682
1761400779925774800,9.10377490234375,-2.2932426929473877,0.47503599524497986,4.539155006408691
1761400779935869200,9.113869140625,-2.2977559566497803,0.9773676991462708,5.202130317687988
1761400779945949700,9.12394970703125,-2.136629343032837,1.118226408958435,5.934485912322998
1761400779956019200,9.134019287109375,-1.823952317237854,1.025763988494873,6.5465168952941895
1761400779966120200,9.1441201171875,-1.5073949098587036,0.9373983144760132,6.996222019195557
1761400779976192300,9.154192138671876,-1.3029016256332397,0.9078043699264526,7.250127792358398
1761400779986269400,9.16426953125,-1.1826103925704956,0.9636781811714172,7.305118560791016
1761400779996353500,9.174353515625,-1.0536925792694092,1.057373046875,7.175967693328857
1761400780006422000,9.184422119140624,-0.8528464436531067,1.1587120294570923,6.9324212074279785
1761400780016513800,9.194513671875,-0.5707293152809143,1.3014026880264282,6.688508033752441
1761400780026583000,9.2045830078125,-0.2708757519721985,1.4568336009979248,6.509644985198975
1761400780036677400,9.214677490234376,0.0012823506258428097,1.5255309343338013,6.383425235748291
1761400780046758100,9.224758056640624,0.19746534526348114,1.4349170923233032,6.276773452758789
1761400780056838100,9.234838134765624,0.30375057458877563,1.1657400131225586,6.158963680267334
1761400780066907100,9.2449072265625,0.3356427848339081,0.6837593913078308,5.917048931121826
1761400780076975600,9.2549755859375,0.32973065972328186,0.1787630170583725,5.596328258514404
1761400780087082000,9.26508203125,0.28891193866729736,-0.15288284420967102,5.219167232513428
1761400780097162200,9.275162353515626,0.18852220475673676,-0.34463590383529663,4.78808069229126
1761400780107243300,9.2852431640625,0.04774674400687218,-0.5083604454994202,4.289696216583252
1761400780117311000,9.29531103515625,-0.07805684953927994,-0.5412685871124268,3.764798402786255
1761400780127405000,9.305405029296875,-0.1505846083164215,-0.4706893265247345,3.2098402976989746
1761400780137485800,9.31548583984375,-0.2013956755399704,-0.3471006751060486,2.6266205310821533
1761400780147543600,9.32554345703125,-0.27377355098724365,-0.22662633657455444,2.031576633453369
1761400780157649200,9.335649169921876,-0.2642308473587036,-0.00039969373028725386,1.4452258348464966
1761400780167728400,9.345728271484376,-0.09474406391382217,0.042017802596092224,0.7769546508789062
1761400780177795600,9.355795654296875,0.07026282697916031,0.09437768161296844,0.10390371084213257
1761400780187890000,9.365889892578124,0.19581660628318787,0.2838824689388275,-0.5172869563102722
1761400780197954600,9.37595458984375,0.2545549273490906,0.6447226405143738,-1.1420581340789795
1761400780208039000,9.386038818359374,0.24900919198989868,1.1616930961608887,-1.7479605674743652
1761400780218120700,9.39612060546875,0.200080007314682,1.7251113653182983,-2.176548719406128
1761400780228213500,9.406213623046876,0.08585087954998016,2.0433175563812256,-2.5288121700286865
1761400780238294000,9.4162939453125,-0.05797224119305611,2.082037925720215,-2.8380253314971924
1761400780248386300,9.42638623046875,-0.11877565085887909,1.9466582536697388,-3.119842529296875
1761400780258443000,9.436443115234376,-0.04524866119027138,1.8455857038497925,-3.4559850692749023
1761400780268536800,9.446536865234375,0.08713322877883911,1.63939368724823,-3.9747707843780518
1761400780278603300,9.456603271484376,0.24053235352039337,1.3599578142166138,-4.667006969451904
1761400780288685800,9.466685791015625,0.3210040032863617,1.0928292274475098,-5.431055068969727
1761400780298753800,9.47675390625,0.2942245304584503,0.9428108334541321,-6.142792701721191
1761400780308847400,9.486847412109375,0.2385338842868805,1.0346238613128662,-6.6924214363098145
1761400780318940700,9.496940673828124,0.18977124989032745,1.3234025239944458,-7.069266319274902
1761400780329022200,9.507022216796875,0.27307409048080444,1.7175837755203247,-7.368220329284668
1761400780339101000,9.517100830078125,0.5129569172859192,2.007544994354248,-7.504665851593018
1761400780349183700,9.527183837890625,0.5794559717178345,1.9639782905578613,-7.361292362213135
1761400780359242200,9.5372421875,0.3806582987308502,1.7127208709716797,-7.141211032867432
1761400780369345300,9.54734521484375,0.1968824565410614,1.388785719871521,-7.0848541259765625
1761400780379426000,9.557426025390624,0.17588189244270325,1.170769453048706,-7.165042877197266
1761400780389495800,9.567495849609376,0.21490198373794556,1.0381377935409546,-7.3730998039245605
1761400780399585800,9.577585693359374,0.2633315324783325,0.8886356949806213,-7.700215816497803
1761400780409656600,9.587656494140624,0.22481106221675873,0.6856745481491089,-7.917232990264893
1761400780419749400,9.597749267578125,0.2579023838043213,0.21779976785182953,-7.8880720138549805
1761400780429817600,9.607817626953125,0.42399176955223083,-0.5458816885948181,-7.675068378448486
1761400780439899000,9.61789892578125,0.6097161173820496,-1.4044570922851562,-7.379678249359131
1761400780449992200,9.6279921875,0.6946343779563904,-2.0003838539123535,-7.101125240325928
1761400780460060400,9.638060302734376,0.7563703656196594,-1.9422450065612793,-6.821639060974121
1761400780470151700,9.648151611328124,0.93793123960495,-1.1845589876174927,-6.551779270172119
1761400780480234800,9.65823486328125,0.9948709607124329,-0.22364528477191925,-6.243798732757568
1761400780490315500,9.6683154296875,0.9154984354972839,0.6357795000076294,-5.674767971038818
1761400780500394500,9.67839453125,0.7333380579948425,1.1001403331756592,-4.9360175132751465
1761400780510464800,9.68846484375,0.6127138137817383,0.996536374092102,-4.238468647003174
1761400780520532700,9.69853271484375,0.5514940619468689,0.5874997973442078,-3.4877772331237793
1761400780530609400,9.708609375,0.5240151286125183,0.23473678529262543,-2.676865339279175
1761400780540719900,9.718719970703125,0.5231491327285767,0.05787231773138046,-2.015455484390259
1761400780550791700,9.728791748046875,0.5514607429504395,0.015638016164302826,-1.5088770389556885
1761400780560881700,9.738881591796876,0.6217402219772339,-0.10390371084213257,-0.9858778715133667
1761400780570962000,9.7489619140625,0.5443328619003296,-0.06170271709561348,-0.4218100905418396
1761400780581043000,9.75904296875,0.4540187418460846,0.09301205724477768,0.178829625248909
1761400780591123200,9.769123291015624,0.32098737359046936,0.12846821546554565,0.7580857276916504
1761400780601200600,9.77920068359375,0.1149619072675705,0.12270597368478775,1.2430140972137451
1761400780611285800,9.78928564453125,-0.07044601440429688,-0.1743830442428589,1.552410364151001
1761400780621366500,9.799366455078125,-0.263881117105484,-0.5162211060523987,1.6938519477844238
1761400780631448300,9.8094482421875,-0.42933768033981323,-0.4625122547149658,1.7752063274383545
1761400780641528800,9.81952880859375,-0.451687216758728,-0.19718223810195923,1.7684282064437866
1761400780651609900,9.82960986328125,-0.4229758679866791,0.02579689770936966,1.647237777709961
1761400780661685500,9.839685546875,-0.38915178179740906,0.13631221652030945,1.480798602104187
1761400780671795000,9.849794921875,-0.3587917387485504,0.00866003055125475,1.3095464706420898
1761400780681851400,9.859851318359375,-0.3637046217918396,-0.31029555201530457,1.195217490196228
1761400780691907300,9.8699072265625,-0.468041330575943,-0.6337643265724182,1.1226563453674316
1761400780702013000,9.880012939453126,-0.6377779245376587,-0.8727478981018066,1.1081008911132812
1761400780712068900,9.89006884765625,-0.8591416478157043,-0.9810815453529358,1.1270030736923218
1761400780722171000,9.9001708984375,-1.1093332767486572,-0.7538723349571228,1.1855082511901855
1761400780732255700,9.910255859375,-1.3090136051177979,-0.3321121633052826,1.3348437547683716
1761400780742336300,9.920336181640625,-1.5042972564697266,-0.023065658286213875,1.6023554801940918
1761400780752418000,9.93041796875,-1.6774146556854248,0.1181594580411911,1.9846957921981812
1761400780762498000,9.940498046875,-1.7742071151733398,-0.024331355467438698,2.4394640922546387
1761400780772579800,9.950579833984374,-1.782800555229187,-0.43913015723228455,2.9164483547210693
1761400780782635500,9.960635498046875,-1.7650973796844482,-0.8851383924484253,3.2734415531158447
1761400780792735200,9.9707353515625,-1.7083908319473267,-1.039603352546692,3.4153828620910645
1761400780802822400,9.980822509765625,-1.6306837797164917,-0.9314362406730652,3.3533968925476074
1761400780812878300,9.99087841796875,-1.5373553037643433,-0.8180730938911438,3.233888626098633
1761400780822983700,10.000983642578126,-1.481681227684021,-0.8703996539115906,3.180562734603882
1761400780833064200,10.011064208984376,-1.451554298400879,-0.9157482385635376,3.2246289253234863
1761400780843145700,10.021145751953124,-1.4415453672409058,-0.9202448129653931,3.3745973110198975
1761400780853222100,10.03122216796875,-1.4587655067443848,-0.8092465400695801,3.641026496887207
1761400780863280600,10.04128076171875,-1.4985016584396362,-0.4997670352458954,4.060405254364014
1761400780873387300,10.05138720703125,-1.5179201364517212,-0.12588687241077423,4.601274013519287
1761400780883468300,10.06146826171875,-1.4849121570587158,0.15912805497646332,5.116446018218994
1761400780893528800,10.07152880859375,-1.3610570430755615,0.3387737274169922,5.509511470794678
1761400780903629800,10.0816298828125,-1.1055195331573486,0.530443549156189,5.820273399353027
1761400780913686800,10.091686767578125,-0.7561039328575134,0.7412652969360352,6.1193108558654785
1761400780923766300,10.101766357421875,-0.3496320843696594,0.8091466426849365,6.3529815673828125
1761400780933848000,10.11184814453125,0.024114854633808136,0.8069149851799011,6.492441654205322
1761400780943954200,10.1219541015625,0.3464844822883606,0.830780029296875,6.601907730102539
1761400780954034400,10.132034423828125,0.606385350227356,0.976967990398407,6.7194342613220215
1761400780964115200,10.142115234375,0.806498646736145,1.1935853958129883,6.8227715492248535
1761400780974195000,10.15219482421875,0.9723215699195862,1.3434871435165405,6.879278659820557
1761400780984251400,10.16225146484375,1.0975755453109741,1.4659099578857422,6.902993679046631
1761400780994357800,10.172357666015625,1.169886827468872,1.5796895027160645,6.8734331130981445
1761400781004439800,10.182439697265625,1.1586288213729858,1.4019923210144043,6.671254634857178
1761400781014519800,10.192519775390625,1.0634517669677734,0.8375582098960876,6.227427959442139
1761400781024600300,10.202600341796876,0.9193121790885925,0.05309264734387398,5.614797592163086
1761400781034682400,10.212682373046874,0.8257172703742981,-0.5369219183921814,4.997037410736084
1761400781044736500,10.222736572265624,0.8025516867637634,-0.6996971368789673,4.456668376922607
1761400781054821400,10.2328212890625,0.6950507164001465,-0.8022352457046509,3.900644302368164
1761400781064924000,10.242923828125,0.4640943706035614,-0.860623836517334,3.331613540649414
1761400781074979600,10.2529794921875,0.270192950963974,-0.7928091287612915,2.736919403076172
1761400781085060400,10.263060302734376,0.19436772167682648,-0.566798985004425,2.114779472351074
1761400781095141000,10.27314111328125,0.22474443912506104,-0.34373658895492554,1.4258739948272705
1761400781105221600,10.2832216796875,0.2600507140159607,-0.27092573046684265,0.6320656538009644
1761400781115302400,10.293302490234375,0.2345036268234253,-0.3623889684677124,-0.2966393530368805
1761400781125383700,10.3033837890625,0.23931661248207092,-0.3143590986728668,-1.2581526041030884
1761400781135489800,10.31348974609375,0.28981125354766846,0.05427507683634758,-2.1348140239715576
1761400781145570300,10.3235703125,0.4265897572040558,0.5893150568008423,-2.95135498046875
1761400781155651300,10.3336513671875,0.5668656229972839,1.0025650262832642,-3.669438123703003
1761400781165736000,10.34373583984375,0.6089333891868591,1.237335205078125,-4.2201828956604
1761400781175813000,10.353813232421874,0.5964429378509521,1.2937086820602417,-4.680429935455322
1761400781185893600,10.3638935546875,0.5986912250518799,1.2721585035324097,-5.12807035446167
1761400781195949600,10.373949462890625,0.6024383306503296,1.2045103311538696,-5.567050457000732
1761400781206056200,10.38405615234375,0.5836860537528992,1.026013731956482,-6.022051811218262
1761400781216136400,10.394136474609375,0.5085769295692444,0.8109785318374634,-6.434185981750488
1761400781226218200,10.40421826171875,0.3215036392211914,0.6018221378326416,-6.7307257652282715
1761400781236279300,10.414279296875,0.1927189826965332,0.4575826823711395,-6.898297309875488
1761400781246353700,10.424353759765625,0.28106793761253357,0.30959609150886536,-7.055459976196289
1761400781256460000,10.4344599609375,0.4790828824043274,0.10983250290155411,-7.190523147583008
1761400781266516200,10.44451611328125,0.6280686855316162,-0.14174138009548187,-7.27664041519165
1761400781276621600,10.45462158203125,0.6635082364082336,-0.35929134488105774,-7.3050689697265625
1761400781286677200,10.46467724609375,0.6203912496566772,-0.4479734003543854,-7.320573806762695
1761400781296783400,10.474783447265626,0.5026481747627258,-0.4370817244052887,-7.36748743057251
1761400781306863600,10.484863525390624,0.34362003207206726,-0.13401396572589874,-7.351150035858154
1761400781316945000,10.49494482421875,0.22227966785430908,0.3260834515094757,-7.242250442504883
1761400781327025700,10.505025634765625,-0.015687977895140648,0.6093164086341858,-6.980534076690674
1761400781337106700,10.515106689453125,-0.31355971097946167,0.6527331471443176,-6.527581214904785
1761400781347187200,10.525187255859375,-0.3532792925834656,0.47072261571884155,-5.996121883392334
1761400781357268500,10.5352685546875,-0.1531493067741394,0.16245883703231812,-5.4633965492248535
1761400781367326200,10.545326171875,0.08876531571149826,-0.24083212018013,-4.963862895965576
1761400781377414700,10.55541455078125,0.2741565704345703,-0.5526098608970642,-4.601790428161621
1761400781387510800,10.5655107421875,0.35651013255119324,-0.7099226713180542,-4.4199628829956055
1761400781397592600,10.575592529296875,0.4050729274749756,-0.6686376333236694,-4.298922538757324
1761400781407672800,10.5856728515625,0.4243914484977722,-0.4178464710712433,-3.9678261280059814
1761400781417753600,10.595753662109376,0.40399041771888733,-0.04128503054380417,-3.3481509685516357
1761400781427834400,10.60583447265625,0.37434646487236023,0.2590348422527313,-2.577974557876587
1761400781437916400,10.61591650390625,0.3019352853298187,0.33049672842025757,-1.822020411491394
1761400781447995600,10.62599560546875,0.23808422684669495,0.1767478883266449,-1.3294979333877563
1761400781458053400,10.636053466796875,0.18354268372058868,0.020134570077061653,-1.1228562593460083
1761400781468154600,10.646154541015624,0.14314031600952148,0.00654498441144824,-0.9845788478851318
1761400781478239000,10.656239013671875,0.1793958693742752,0.08856546878814697,-0.7333880066871643
1761400781488315600,10.666315673828125,0.25753599405288696,0.12310566753149033,-0.3300304412841797
1761400781498400300,10.676400146484376,0.3204710781574249,0.14608804881572723,0.16958671808242798
1761400781508459000,10.686458984375,0.39942726492881775,0.15989413857460022,0.6195918917655945
1761400781518561800,10.696561767578125,0.4424442946910858,0.12468778342008591,0.8368420600891113
1761400781528610800,10.70661083984375,0.4431270956993103,0.17859648168087006,0.7966228723526001
1761400781538723600,10.7167236328125,0.41156795620918274,0.29051071405410767,0.6195419430732727
1761400781548805000,10.72680517578125,0.3509144186973572,0.5081272721290588,0.5108085870742798
1761400781558846500,10.736846435546875,0.26649579405784607,0.6937850117683411,0.5991575121879578
1761400781568967000,10.746966796875,0.1594611406326294,0.591296911239624,0.833111584186554
1761400781579047000,10.757046875,0.0010991577291861176,0.28473180532455444,1.0989911556243896
1761400781589128700,10.767128662109375,-0.16444066166877747,-0.04171803221106529,1.3023353815078735
1761400781599183600,10.77718359375,-0.32771554589271545,-0.37149864435195923,1.4099361896514893
1761400781609290800,10.787290771484376,-0.5320589542388916,-0.6962997317314148,1.4463083744049072
1761400781619367000,10.797366943359375,-0.7381343841552734,-0.9037907719612122,1.4394136667251587
1761400781629451000,10.807450927734376,-0.8816410899162292,-1.012157678604126,1.4032247066497803
1761400781639532500,10.817532470703124,-0.9894251227378845,-1.0551581382751465,1.4572666883468628
1761400781649613600,10.827613525390625,-1.088798999786377,-0.9508547186851501,1.6178269386291504
1761400781659694000,10.837694091796875,-1.1740503311157227,-0.7734739780426025,1.8275495767593384
1761400781669774600,10.847774658203125,-1.2910773754119873,-0.6206077337265015,2.0526936054229736
1761400781679833300,10.857833251953124,-1.4019091129302979,-0.45731621980667114,2.3006370067596436
1761400781689937000,10.86793701171875,-1.5184364318847656,-0.3073311448097229,2.6090006828308105
1761400781700017200,10.87801708984375,-1.6227397918701172,-0.20642514526844025,2.995321273803711
1761400781710094300,10.88809423828125,-1.7124711275100708,-0.15879498422145844,3.369234800338745
1761400781720179000,10.898178955078125,-1.787730097770691,-0.1509343385696411,3.7159857749938965
1761400781730260700,10.9082607421875,-1.820854663848877,-0.09979020059108734,4.033226013183594
1761400781740340500,10.918340576171875,-1.7586190700531006,0.0440162718296051,4.3196563720703125
1761400781750417400,10.92841748046875,-1.633664846420288,0.0987909659743309,4.640560626983643
1761400781760467000,10.938467041015626,-1.554808497428894,0.06633250415325165,5.020336151123047
1761400781770583000,10.9485830078125,-1.5462651252746582,0.07269429415464401,5.401494026184082
1761400781780665000,10.9586650390625,-1.5168375968933105,0.16457389295101166,5.786782264709473
1761400781790720000,10.968719970703125,-1.4194623231887817,0.2656131386756897,6.1184282302856445
1761400781800826600,10.97882666015625,-1.2618497610092163,0.3480832576751709,6.37020206451416
1761400781810892500,10.988892578125,-1.0963265895843506,0.3462846577167511,6.582988739013672
1761400781820987400,10.9989873046875,-0.916264533996582,0.2983047366142273,6.776673793792725
1761400781831068200,11.009068115234374,-0.707990825176239,0.20217840373516083,6.904609203338623
1761400781841149200,11.019149169921874,-0.5537922978401184,0.043433383107185364,6.94081449508667
1761400781851230000,11.02922998046875,-0.48086485266685486,-0.15614701807498932,6.875298023223877
1761400781861310700,11.039310791015625,-0.4353996813297272,-0.27515581250190735,6.697467803955078
1761400781871368000,11.049367919921876,-0.369799941778183,-0.2333212047815323,6.41616678237915
1761400781881468700,11.05946875,-0.30250152945518494,-0.0567898154258728,6.02549934387207
1761400781891530200,11.0695302734375,-0.2577524781227112,0.015021822415292263,5.492924213409424
1761400781901634000,11.079634033203124,-0.2565867006778717,-0.10608537495136261,4.880460262298584
1761400781911697200,11.089697265625,-0.3471006751060486,-0.49577009677886963,4.202479839324951
1761400781921795800,11.0997958984375,-0.42414164543151855,-0.9210774898529053,3.501983165740967
1761400781931877600,11.109877685546875,-0.49453771114349365,-1.2494091987609863,2.8339450359344482
1761400781952039200,11.1300390625,-0.522283136844635,-1.3900847434997559,1.822636604309082
1761400781962119200,11.140119140625,-0.5032310485839844,-0.8700000047683716,1.4538692235946655
1761400781972200700,11.15020068359375,-0.389867901802063,-0.2954069674015045,1.0109919309616089
1761400781982286000,11.1602861328125,-0.2286747694015503,0.07835662364959717,0.4072212874889374
1761400781992363000,11.170363037109375,-0.10027316212654114,0.4928223490715027,-0.27107560634613037
1761400782002439400,11.180439453125,0.00979249645024538,0.6978485584259033,-1.003947377204895
1761400782012498700,11.190498779296876,0.18172740936279297,0.6998304128646851,-1.7138700485229492
1761400782022605000,11.20060498046875,0.4041736125946045,0.6326318979263306,-2.3339614868164062
1761400782032685000,11.21068505859375,0.6146456599235535,0.5144391059875488,-2.8652710914611816
1761400782042766000,11.22076611328125,0.8522302508354187,0.5974754691123962,-3.313610792160034
1761400782052802600,11.230802490234375,1.1088669300079346,0.8470342755317688,-3.7686288356781006
1761400782062927600,11.240927734375,1.355927586555481,0.9885424971580505,-4.284766674041748
1761400782073004300,11.25100439453125,1.4470911026000977,1.280268907546997,-4.7141876220703125
1761400782083066000,11.261066162109374,1.4394803047180176,1.9122346639633179,-4.990642547607422
1761400782093144800,11.271144775390624,1.4503885507583618,2.515289306640625,-5.31374454498291
1761400782103226400,11.281226318359375,1.478333830833435,2.7562546730041504,-5.756188869476318
1761400782113333000,11.2913330078125,1.406638741493225,2.6391942501068115,-6.172220230102539
1761400782123412700,11.301412841796875,1.0147889852523804,2.3266336917877197,-6.400578498840332
1761400782133489700,11.31148974609375,0.5369884967803955,1.8205382823944092,-6.3750481605529785
1761400782143574800,11.32157470703125,0.5185026526451111,1.1854416131973267,-6.201564311981201
1761400782153630200,11.331630126953126,0.8827401995658875,0.34538534283638,-6.1074700355529785
1761400782163737000,11.341737060546874,1.1552814245224,-0.543616771697998,-6.099026203155518
1761400782173817900,11.35181787109375,1.3235690593719482,-1.1654069423675537,-6.063020706176758
1761400782183899000,11.36189892578125,1.4804987907409668,-1.5748765468597412,-5.988044738769531
1761400782193955600,11.37195556640625,1.6192258596420288,-1.6818945407867432,-5.865355491638184
1761400782204025600,11.382025634765625,1.6312665939331055,-1.3903179168701172,-5.7768731117248535
1761400782214141000,11.392140869140626,1.5888991355895996,-0.853562593460083,-5.725146293640137
1761400782224221200,11.40222119140625,1.5284287929534912,-0.040352411568164825,-5.5177717208862305
1761400782234303000,11.412302978515624,1.4179301261901855,0.8355097770690918,-5.034458637237549
1761400782244383000,11.422383056640625,1.403974175453186,1.1797126531600952,-4.461398124694824
1761400782254464500,11.432464599609375,1.4817478656768799,1.0056294202804565,-3.956085205078125
1761400782264545000,11.442544921875,1.5451658964157104,0.5704128742218018,-3.542801856994629
1761400782274625800,11.452625732421875,1.5072449445724487,0.005495788529515266,-3.2956411838531494
1761400782284707000,11.46270703125,1.3814914226531982,-0.2893615961074829,-3.1850759983062744
1761400782294762200,11.47276220703125,1.2362359762191772,-0.1443227380514145,-3.058573007583618
1761400782304868900,11.482868896484375,1.0061622858047485,0.2765880525112152,-2.7795701026916504
1761400782314922500,11.492922607421875,0.7976720929145813,0.6159613132476807,-2.4671759605407715
1761400782325007000,11.503007080078126,0.6591448783874512,0.5123740434646606,-2.2417654991149902
1761400782335085600,11.51308544921875,0.49168989062309265,0.24406297504901886,-2.0251147747039795
1761400782345191400,11.52319140625,0.32806527614593506,-0.007394333835691214,-1.7076414823532104
1761400782355272400,11.5332724609375,0.18718989193439484,-0.26961007714271545,-1.3775110244750977
1761400782365353200,11.543353271484374,0.07604172825813293,-0.41524845361709595,-1.1640913486480713
1761400782375406600,11.553406494140624,0.015671323984861374,-0.36102333664894104,-0.9461249709129333
1761400782385515800,11.563515869140625,-0.0075941807590425014,-0.25100764632225037,-0.7368353605270386
1761400782395596000,11.573595947265625,-0.03377411887049675,-0.19176971912384033,-0.5992241501808167
1761400782405677600,11.583677490234376,-0.05021152272820473,-0.20026320219039917,-0.5800887942314148
1761400782415757300,11.59375732421875,-0.08388572186231613,-0.12042438238859177,-0.5917798280715942
1761400782425818000,11.603818115234375,-0.12791864573955536,-0.0164873655885458,-0.4567333459854126
1761400782435893800,11.613893798828125,-0.1548147052526474,-0.002831163816154003,-0.23683518171310425
1761400782445985800,11.62398583984375,-0.1653566211462021,-0.051160797476768494,-0.059687595814466476
1761400782456079000,11.6340791015625,-0.18489165604114532,-0.008060489781200886,0.09103024005889893
1761400782466162000,11.644161865234375,-0.2615995407104492,0.13604575395584106,0.27114221453666687
1761400782476230000,11.65422998046875,-0.33500996232032776,0.2382507622241974,0.5576226711273193
1761400782486335700,11.664335693359375,-0.48273009061813354,0.3674684166908264,0.8905509114265442
1761400782496404500,11.674404541015624,-0.6263200640678406,0.3050329089164734,1.2670789957046509
1761400782506485500,11.684485595703125,-0.8010861277580261,0.01737002283334732,1.6030383110046387
1761400782516564500,11.694564453125,-1.025830626487732,-0.31625765562057495,1.9035580158233643
1761400782526638300,11.704638427734375,-1.2430641651153564,-0.561103343963623,2.1837265491485596
1761400782536727800,11.714727783203125,-1.3742635250091553,-0.6561471819877625,2.428239345550537
1761400782546808800,11.724808837890626,-1.4149657487869263,-0.5353897213935852,2.5927464962005615
1761400782556889300,11.734889404296876,-1.4073048830032349,-0.28951147198677063,2.642974615097046
1761400782566972700,11.74497265625,-1.3711326122283936,-0.036971669644117355,2.5784075260162354
1761400782577049000,11.755049072265624,-1.3346439599990845,0.24859283864498138,2.465660572052002
1761400782587132700,11.765132568359375,-1.3666527271270752,0.4792993664741516,2.3662867546081543
1761400782597212700,11.775212646484375,-1.4496225118637085,0.5213838219642639,2.3020360469818115
1761400782607294000,11.7852939453125,-1.5372886657714844,0.3310962915420532,2.3622565269470215
1761400782617374700,11.795374755859376,-1.6245718002319336,0.09457752853631973,2.5120084285736084
1761400782627453000,11.805452880859375,-1.6961169242858887,-0.11061523854732513,2.651967763900757
1761400782637534200,11.8155341796875,-1.7898284196853638,-0.09532695263624191,2.7113888263702393
1761400782647624200,11.825624267578124,-1.8590919971466064,0.1621091067790985,2.8565776348114014
1761400782657698600,11.835698486328125,-1.7784371376037598,0.46760833263397217,3.1676559448242188
1761400782667766300,11.845766357421875,-1.6874569654464722,0.8421046733856201,3.6834940910339355
1761400782677857500,11.855857421875,-1.5544089078903198,1.0199517011642456,4.352964401245117
1761400782687927800,11.865927734375,-1.402725100517273,0.7128704190254211,5.106820106506348
1761400782698009900,11.876009765625,-1.3577429056167603,0.37726089358329773,5.915583610534668
1761400782708072400,11.886072509765626,-1.2279256582260132,0.2810845971107483,6.667773723602295
1761400782718183400,11.896183349609375,-0.9235755801200867,0.34222108125686646,7.28944730758667
1761400782728264000,11.906263916015625,-0.6008062958717346,0.4438265562057495,7.768630027770996
1761400782738345200,11.91634521484375,-0.35214680433273315,0.5454986691474915,8.141677856445312
1761400782748414000,11.9264140625,-0.14275726675987244,0.5429339408874512,8.477970123291016
1761400782758506200,11.93650634765625,0.018019525334239006,0.4215936064720154,8.767364501953125
1761400782768575000,11.946574951171876,0.09544353187084198,0.3019852638244629,8.897332191467285
1761400782778668000,11.95666796875,0.085667684674263,0.1287013739347458,8.732391357421875
1761400782788736500,11.966736572265624,0.025447167456150055,-0.22607675194740295,8.286499977111816
1761400782798817800,11.97681787109375,-0.03850382938981056,-0.7366854548454285,7.6439924240112305
1761400782808898300,11.986898193359375,-0.07760719954967499,-1.255721092224121,6.92426061630249
1761400782818982700,11.996982666015626,-0.09905742853879929,-1.6015727519989014,6.232241153717041
1761400782829072600,12.00707275390625,-0.12713590264320374,-1.6946014165878296,5.604438781738281
1761400782839140900,12.017140869140626,-0.16952009499073029,-1.6261038780212402,4.974471569061279
1761400782849234400,12.027234375,-0.18275995552539825,-1.4760688543319702,4.333695888519287
1761400782859315000,12.03731494140625,-0.1418912708759308,-1.2459452152252197,3.713637590408325
1761400782869383000,12.0473828125,-0.049412135034799576,-0.8937650918960571,3.148837089538574
1761400782879476700,12.057476806640626,0.06525000184774399,-0.5034142136573792,2.60127329826355
1761400782889557500,12.0675576171875,0.1750158816576004,-0.1673717498779297,2.0229499340057373
1761400782919800000,12.097800048828125,0.37403005361557007,0.32959744334220886,0.06534992158412933
1761400782929878000,12.1078779296875,0.4236253798007965,0.5241483449935913,-0.5985580086708069
1761400782939961900,12.1179619140625,0.43648219108581543,0.6790130138397217,-1.2464282512664795
1761400782950030300,12.1280302734375,0.431619256734848,0.8093797564506531,-1.8918169736862183
1761400782960121300,12.138121337890626,0.3735803961753845,0.9698734283447266,-2.527146816253662
1761400782970199000,12.148198974609375,0.2706092894077301,1.1380445957183838,-3.1776649951934814
1761400782980285200,12.15828515625,0.1330813467502594,1.278753399848938,-3.84183931350708
1761400782990366500,12.168366455078125,-0.10147224366664886,1.3981618881225586,-4.492407321929932
1761400783000434000,12.178433837890625,-0.45023831725120544,1.5813381671905518,-5.073728561401367
1761400783010514200,12.18851416015625,-0.7874465584754944,1.9470247030258179,-5.53094482421875
1761400783020606200,12.198606201171875,-0.8931988477706909,2.387220621109009,-5.8824591636657715
1761400783030684700,12.2086845703125,-0.6712689399719238,2.6483705043792725,-6.219817161560059
1761400783040777700,12.21877783203125,-0.12563705444335938,2.5067291259765625,-6.634349346160889
1761400783050850000,12.22885009765625,0.5389370322227478,1.8140932321548462,-7.058574199676514
1761400783060919600,12.23891943359375,1.0388872623443604,0.8628221750259399,-7.414618015289307
1761400783071012600,12.2490126953125,1.2621328830718994,0.2210472822189331,-7.644442081451416
1761400783081094000,12.259093994140626,1.0775409936904907,0.4026581048965454,-7.613932132720947
1761400783091170600,12.269170654296875,0.54511559009552,1.3025351762771606,-7.332198143005371
1761400783101238300,12.27923828125,0.015538093633949757,2.097959041595459,-6.966495037078857
1761400783111336200,12.289336181640625,-0.19296880066394806,2.1217575073242188,-6.702014446258545
1761400783121417000,12.2994169921875,-0.1600107103586197,1.3890023231506348,-6.695552349090576
1761400783131497700,12.309497802734375,-0.08132101595401764,0.4745863378047943,-7.011493682861328
1761400783141578000,12.319577880859375,0.011707695201039314,-0.20102928578853607,-7.4311723709106445
1761400783151659300,12.3296591796875,0.16660566627979279,-0.43746477365493774,-7.730342864990234
1761400783161736700,12.33973681640625,0.38080817461013794,-0.31112825870513916,-7.873916149139404
1761400783171821000,12.349821044921875,0.5083271265029907,0.015971094369888306,-7.785250663757324
1761400783181902600,12.359902587890625,0.4920729398727417,0.35417860746383667,-7.383908271789551
1761400783191982600,12.369982666015625,0.5359393358230591,0.3455352187156677,-6.798057556152344
1761400783202063600,12.380063720703125,0.6569799184799194,-0.12054096162319183,-6.268896102905273
1761400783212133600,12.390133544921875,0.798821210861206,-0.644456148147583,-5.865788459777832
1761400783222224000,12.400223876953126,0.9324354529380798,-0.6936851143836975,-5.599958896636963
1761400783232306400,12.410306396484375,0.9531196355819702,-0.3498818874359131,-5.4033427238464355
1761400783242363600,12.42036376953125,0.8666858673095703,0.01712021417915821,-5.109867572784424
1761400783252468000,12.430468017578125,0.7791696190834045,0.4122507572174072,-4.544317722320557
1761400783262548700,12.440548828125,0.7285750508308411,0.48141443729400635,-3.694901943206787
1761400783272629800,12.450629638671876,0.6057191491127014,0.12375516444444656,-2.7137537002563477
1761400783282696000,12.460696044921875,0.40968605875968933,-0.4463746249675751,-1.7425479888916016
1761400783292791300,12.470791259765624,0.17178502678871155,-0.8883026242256165,-0.9602141976356506
1761400783302849800,12.480849853515625,-0.042733918875455856,-1.237618327140808,-0.4649770259857178
1761400783312930600,12.4909306640625,-0.2547714412212372,-1.319738745689392,-0.20399367809295654
1761400783323032800,12.50103271484375,-0.3884190320968628,-0.9799657464027405,-0.08237021416425705
1761400783333113600,12.511113525390625,-0.4154316484928131,-0.3538621664047241,0.0576891265809536
1761400783343196000,12.52119580078125,-0.3753123879432678,0.1489858329296112,0.342670738697052
1761400783353275000,12.53127490234375,-0.34854957461357117,0.1816108375787735,0.739683210849762
1761400783363354400,12.541354248046876,-0.3657863736152649,-0.08378579467535019,1.0534427165985107
1761400783373438000,12.55143798828125,-0.35957446694374084,-0.33950650691986084,1.198148488998413
1761400783383519000,12.56151904296875,-0.3071979284286499,-0.4489559531211853,1.2729744911193848
1761400783393589200,12.57158935546875,-0.2630317807197571,-0.32353541254997253,1.3138765096664429
1761400783403680800,12.5816806640625,-0.24414624273777008,-0.1017053946852684,1.3152087926864624
1761400783413747000,12.591746826171875,-0.23830072581768036,0.08471841365098953,1.3072149753570557
1761400783423842300,12.60184228515625,-0.3140093684196472,0.23024024069309235,1.4144494533538818
1761400783433923300,12.61192333984375,-0.45593395829200745,0.2406988888978958,1.6591119766235352
1761400783444004600,12.622004638671875,-0.6082172393798828,0.12448793649673462,2.0134904384613037
1761400783454072600,12.632072509765624,-0.76781165599823,-0.013439700938761234,2.396080493927002
1761400783464143000,12.64214306640625,-0.9377147555351257,-0.11907541751861572,2.697183132171631
1761400783474246400,12.652246337890626,-1.0897815227508545,-0.22387844324111938,2.9098868370056152
1761400783484325600,12.66232568359375,-1.1959668397903442,-0.387886106967926,3.0764758586883545
1761400783494408400,12.672408447265624,-1.3141096830368042,-0.4436766803264618,3.1748170852661133
1761400783504489500,12.682489501953125,-1.42412531375885,-0.47370368242263794,3.1845431327819824
1761400783514579200,12.6925791015625,-1.5482136011123657,-0.5293610095977783,3.0989420413970947
1761400783524651300,12.7026513671875,-1.660943865776062,-0.5807049870491028,3.0402703285217285
1761400783534719200,12.71271923828125,-1.7524404525756836,-0.6492691040039062,3.135397434234619
1761400783544810200,12.722810302734375,-1.7755560874938965,-0.7494756579399109,3.341489315032959
1761400783554899000,12.73289892578125,-1.802485466003418,-0.7883625626564026,3.628652811050415
1761400783564974300,12.742974365234375,-1.904473900794983,-0.5671154260635376,3.9856457710266113
1761400783575055400,12.753055419921875,-1.9157819747924805,-0.100040003657341,4.447275161743164
1761400783585123600,12.76312353515625,-1.7489930391311646,0.08253674954175949,5.038355827331543
1761400783595223800,12.773223876953125,-1.5674822330474854,0.14289049804210663,5.5587239265441895
1761400783605295400,12.78329541015625,-1.3221534490585327,0.20574234426021576,5.95313835144043
1761400783615366100,12.7933662109375,-0.9568667411804199,0.23870041966438293,6.29779052734375
1761400783625441000,12.80344091796875,-0.5827034711837769,0.31202757358551025,6.61041784286499
1761400783635538200,12.8135380859375,-0.26787805557250977,0.3750126361846924,6.860342979431152
1761400783645618700,12.82361865234375,-0.00962595734745264,0.44759035110473633,7.042203426361084
1761400783655689000,12.83368896484375,0.2026447206735611,0.5671820640563965,7.1526689529418945
1761400783665780700,12.84378076171875,0.3666357100009918,0.7303070425987244,7.186076641082764
1761400783675861800,12.85386181640625,0.43280166387557983,0.9037241339683533,7.128920555114746
1761400783685944000,12.863944091796874,0.42414164543151855,0.9917733669281006,6.9728899002075195
1761400783696025300,12.874025390625,0.3929988443851471,0.8590916991233826,6.73387336730957
1761400783706106400,12.8841064453125,0.33076319098472595,0.48850899934768677,6.388271331787109
1761400783716194000,12.894194091796875,0.23733480274677277,-0.0037471286486834288,5.908522129058838
