time,seconds_elapsed,z,y,x
1761400770933638700,0.111638671875,8.675015449523926,-4.604797840118408,2.3376386165618896
1761400770943719700,0.1217197265625,8.410905838012695,-4.994977951049805,2.235436201095581
1761400770953800200,0.13180029296875,8.121506690979004,-5.300014495849609,1.6980875730514526
1761400770963881000,0.141880859375,7.903409481048584,-5.546093463897705,1.3865420818328857
1761400770973962200,0.151962158203125,7.563657283782959,-5.68892240524292,1.085396409034729
1761400770984067800,0.16206787109375,6.988899230957031,-5.877840042114258,0.9145850539207458
1761400770994148900,0.17214892578125,6.750676155090332,-5.896918773651123,1.6803555488586426
1761400771004208000,0.1822080078125,7.157915115356445,-5.742417812347412,2.2730700969696045
1761400771014310700,0.192310546875,7.438859462738037,-5.864073276519775,2.104278802871704
1761400771024391400,0.202391357421875,7.599345684051514,-5.9741315841674805,1.872639775276184
1761400771034472200,0.21247216796875,7.438934326171875,-6.129979133605957,1.539621353149414
1761400771044547000,0.222547119140625,6.888417720794678,-6.253130912780762,1.4345756769180298
1761400771054634000,0.232634033203125,6.2853779792785645,-6.4782609939575195,1.6139912605285645
1761400771064715000,0.242715087890625,6.164844989776611,-6.529062747955322,1.7398364543914795
1761400771074795800,0.252795654296875,6.2865753173828125,-6.5289130210876465,1.6751182079315186
1761400771084861400,0.262861328125,6.306626319885254,-6.5575690269470215,1.491288423538208
1761400771094932500,0.272932373046875,6.168062210083008,-6.587646007537842,1.4131776094436646
1761400771105038300,0.283038330078125,5.970166206359863,-6.586374282836914,1.126172661781311
1761400771115120000,0.2931201171875,5.720571041107178,-6.579864978790283,1.4823849201202393
1761400771125168000,0.303168212890625,6.273481845855713,-6.075361728668213,2.529099941253662
1761400771135256000,0.313256103515625,6.837690353393555,-6.04887580871582,1.6721254587173462
1761400771145362700,0.32336279296875,6.49404764175415,-6.093916893005371,1.2538883686065674
1761400771155441400,0.33344140625,6.1088056564331055,-6.098106384277344,0.7144447565078735
1761400771165499100,0.3434990234375,5.751246452331543,-6.574178695678711,0.1727566123008728
1761400771175579100,0.3535791015625,5.488557815551758,-6.251559734344482,0.6149357557296753
1761400771185686000,0.36368603515625,5.3761796951293945,-6.028450012207031,0.7007529139518738
1761400771195732700,0.373732666015625,5.882628440856934,-6.152873992919922,0.6993313431739807
1761400771205813500,0.3838134765625,6.283358097076416,-6.024559497833252,0.9712228775024414
1761400771215902500,0.39390234375,5.582754611968994,-6.391321659088135,0.8130559325218201
1761400771225967400,0.40396728515625,5.334954738616943,-6.618097305297852,-0.0941968709230423
1761400771236090000,0.414090087890625,4.897190093994141,-6.6553568840026855,-0.37401920557022095
1761400771246170400,0.42417041015625,4.129698753356934,-6.786664009094238,-0.023268647491931915
1761400771256251100,0.434251220703125,3.0992941856384277,-7.056909561157227,0.5779752731323242
1761400771266332200,0.444332275390625,1.9995324611663818,-7.030348777770996,-0.0636707991361618
1761400771276399000,0.454399169921875,1.9705028533935547,-7.26722526550293,-0.7947252988815308
1761400771286469000,0.46446923828125,1.955164909362793,-7.471630096435547,-0.6099228858947754
1761400771296599000,0.47459912109375,1.9080290794372559,-7.432425022125244,0.034416649490594864
1761400771306656300,0.48465625,1.9782840013504028,-6.671218395233154,1.0209773778915405
1761400771316708900,0.494708984375,2.1686229705810547,-6.79736328125,1.2091466188430786
1761400771326817500,0.504817626953125,2.00230073928833,-7.266776084899902,0.7294085025787354
1761400771336899300,0.5148994140625,1.920149803161621,-7.91972017288208,0.5152022838592529
1761400771346979000,0.52497900390625,2.0697126388549805,-9.0743989944458,0.592939019203186
1761400771357059800,0.535059814453125,1.7223289012908936,-11.04834270477295,0.14686931669712067
1761400771367140900,0.545140869140625,1.2111667394638062,-13.212552070617676,-0.4024503529071808
1761400771377221600,0.5552216796875,0.8797942996025085,-15.157092094421387,-0.6643909811973572
1761400771387285200,0.56528515625,0.7303063273429871,-16.922666549682617,-0.9454852342605591
1761400771397339100,0.575339111328125,0.7440729737281799,-18.34018325805664,-1.432705283164978
1761400771407438800,0.58543896484375,1.1929857730865479,-19.066598892211914,-1.9494038820266724
1761400771417540400,0.595540283203125,1.8088194131851196,-19.437400817871094,-2.1286697387695312
1761400771427627000,0.605626953125,2.156876564025879,-19.453935623168945,-2.118943214416504
1761400771437682200,0.61568212890625,2.5917980670928955,-19.66178321838379,-1.6776620149612427
1761400771447787500,0.62578759765625,2.84214186668396,-20.321086883544922,-1.5727660655975342
1761400771457869600,0.63586962890625,2.8815712928771973,-21.144018173217773,-1.2603975534439087
1761400771467949800,0.64594970703125,2.6926538944244385,-21.791799545288086,-0.8452280163764954
1761400771478027000,0.656027099609375,2.4436569213867188,-22.139556884765625,-0.41374799609184265
1761400771488085200,0.666085205078125,2.255786895751953,-22.245426177978516,-0.06516718119382858
1761400771498192000,0.67619189453125,2.1566519737243652,-22.35698127746582,0.17552490532398224
1761400771508269300,0.686269287109375,2.301426410675049,-22.203453063964844,0.25737667083740234
1761400771518354400,0.6963544921875,2.672976493835449,-21.725360870361328,0.28880056738853455
1761400771528435700,0.706435791015625,2.960879325866699,-21.053037643432617,0.23695114254951477
1761400771538516200,0.71651611328125,3.1199440956115723,-20.900632858276367,0.5490952134132385
1761400771548596500,0.726596435546875,3.2427217960357666,-20.575843811035156,0.5970540642738342
1761400771558678000,0.736677978515625,3.367220163345337,-20.07209014892578,0.5622633099555969
1761400771568754000,0.74675390625,3.6421046257019043,-19.130420684814453,0.3833715617656708
1761400771578839000,0.756839111328125,3.893346071243286,-17.569101333618164,-0.07990647852420807
1761400771588919600,0.76691943359375,4.04313325881958,-15.712397575378418,-0.7139210104942322
1761400771599000600,0.77700048828125,4.086453437805176,-13.879860877990723,-1.102903962135315
1761400771609082000,0.78708203125,4.200701713562012,-12.23227596282959,-0.999878466129303
1761400771619162400,0.797162353515625,3.6146459579467773,-10.824410438537598,-1.1111340522766113
1761400771629244400,0.807244384765625,2.84214186668396,-9.787945747375488,-1.3350666761398315
1761400771639319800,0.81731982421875,2.1432595252990723,-8.506448745727539,-1.5780034065246582
1761400771649400800,0.82740087890625,1.4901660680770874,-6.87293004989624,-1.9942952394485474
1761400771659486200,0.837486328125,1.0033200979232788,-4.9940056800842285,-3.1557822227478027
1761400771669567200,0.847567138671875,0.27884969115257263,-3.877110481262207,-3.754183053970337
1761400771679648000,0.85764794921875,-0.7605331540107727,-3.771615982055664,-3.431190252304077
1761400771689728300,0.867728271484375,-1.8676269054412842,-3.371185541152954,-3.2222213745117188
1761400771699805400,0.877805419921875,-2.311751365661621,-2.8260557651519775,-2.964021682739258
1761400771709890800,0.887890869140625,-2.3652467727661133,-2.31758713722229,-2.663773775100708
1761400771719970800,0.897970703125,-2.593818187713623,-1.8389713764190674,-2.4047510623931885
1761400771730051600,0.908051513671875,-2.8961610794067383,-1.2024129629135132,-2.3399579524993896
1761400771740107800,0.918107666015625,-2.9606549739837646,-0.6637924313545227,-2.257507801055908
1761400771750213400,0.92821337890625,-2.3388357162475586,-0.25655367970466614,-2.027963638305664
1761400771760290600,0.93829052734375,-1.8632874488830566,-0.08297405391931534,-1.6653169393539429
1761400771770351000,0.94835107421875,-2.2120180130004883,0.31438860297203064,-0.8928127884864807
1761400771780456200,0.958456298828125,-2.9706058502197266,0.47068509459495544,0.698433518409729
1761400771790537000,0.968536865234375,-3.3839049339294434,1.2693758010864258,1.8335844278335571
1761400771800617700,0.97861767578125,-2.6635494232177734,2.0451719760894775,1.8275240659713745
1761400771810673700,0.988673583984375,-2.448744535446167,2.3238720893859863,1.0029460191726685
1761400771820779500,0.998779541015625,-2.325742483139038,2.4170215129852295,0.3660135865211487
1761400771830856700,1.008856689453125,-2.315866470336914,2.492438793182373,0.1594388633966446
1761400771840941300,1.01894140625,-2.2939445972442627,2.426598310470581,0.4555716812610626
1761400771851022300,1.029022216796875,-2.328660488128662,2.3563432693481445,1.1651532649993896
1761400771861102800,1.039102783203125,-2.417171001434326,2.171391248703003,1.8138322830200195
1761400771871183600,1.04918359375,-2.1781249046325684,1.8647838830947876,2.0608839988708496
1761400771881264600,1.0592646484375,-1.6231939792633057,1.3923779726028442,1.9252374172210693
1761400771891320800,1.06932080078125,-1.1573721170425415,0.8990227580070496,1.4373440742492676
1761400771901427200,1.07942724609375,-0.9237877726554871,0.6331167221069336,0.9550620317459106
1761400771911508200,1.08950830078125,-0.8198644518852234,0.3488052487373352,0.6210708618164062
1761400771921588200,1.099588134765625,-0.6013935208320618,-0.40529346466064453,0.36159926652908325
1761400771931645400,1.1096455078125,-0.3009960353374481,-1.4730325937271118,0.12689268589019775
1761400771941750800,1.119750732421875,0.061201781034469604,-2.4869022369384766,-0.19976620376110077
1761400771951830800,1.129830810546875,0.4488379955291748,-3.395801067352295,-0.32448914647102356
1761400771961907500,1.139907470703125,0.7178115844726562,-4.135310173034668,-0.11095628142356873
1761400771971967700,1.1499677734375,0.8708908557891846,-4.993706226348877,0.04982932284474373
1761400771982060300,1.160060302734375,1.0753706693649292,-5.4485297203063965,0.05214870721101761
1761400771992129000,1.17012890625,1.2818706035614014,-5.98258638381958,-0.0918026715517044
1761400772002210300,1.180210205078125,1.5450083017349243,-6.551283836364746,-0.06254851818084717
1761400772012291800,1.190291748046875,1.889548897743225,-7.0931220054626465,-0.07474398612976074
1761400772022371600,1.20037158203125,2.083928108215332,-7.6320414543151855,-0.5760299563407898
1761400772032440800,1.21044091796875,2.1885995864868164,-9.311349868774414,-0.6584054827690125
1761400772042542600,1.22054248046875,2.490717887878418,-11.13573169708252,-0.7122001647949219
1761400772052616000,1.230615966796875,2.8173768520355225,-12.697649002075195,-1.119738221168518
1761400772062720300,1.24072021484375,2.9618520736694336,-13.891607284545898,-1.6828993558883667
1761400772072800800,1.25080078125,3.2417490482330322,-14.347403526306152,-1.9574843645095825
1761400772082863400,1.26086328125,3.549628496170044,-14.60724925994873,-2.0767455101013184
1761400772092962800,1.270962890625,3.689389944076538,-15.155595779418945,-2.018611192703247
1761400772103018800,1.281018798828125,3.4824411869049072,-16.0692081451416,-2.0633530616760254
1761400772113100000,1.29110009765625,2.9688100814819336,-16.700754165649414,-2.1773018836975098
1761400772123206400,1.301206298828125,2.649782657623291,-17.53356170654297,-2.245237350463867
1761400772133286700,1.31128662109375,2.8180501461029053,-18.669836044311523,-2.2875850200653076
1761400772143367400,1.321367431640625,3.276165723800659,-19.828554153442383,-2.294318675994873
1761400772153418800,1.331418701171875,3.727248430252075,-20.92173194885254,-1.894262433052063
1761400772163529000,1.341529052734375,3.5809028148651123,-21.923555374145508,-1.3034183979034424
1761400772173584400,1.35158447265625,2.777423620223999,-22.07147216796875,-0.578947901725769
1761400772183690500,1.3616904296875,2.230722665786743,-22.646530151367188,0.009950900450348854
1761400772193771500,1.371771484375,2.198176383972168,-23.997831344604492,0.5817909836769104
1761400772203821000,1.381821044921875,2.3283610343933105,-25.113679885864258,1.036689281463623
1761400772213929700,1.3919296875,2.4915409088134766,-25.68559455871582,1.2874820232391357
1761400772223996200,1.40199609375,2.574589729309082,-26.094554901123047,1.2533645629882812
1761400772234094600,1.412094482421875,2.5785553455352783,-26.407970428466797,0.9342623949050903
1761400772244150500,1.422150634765625,2.427121877670288,-26.821643829345703,0.15928922593593597
1761400772254246000,1.432245849609375,2.1960813999176025,-27.149200439453125,-0.5588216185569763
1761400772264337400,1.44233740234375,2.3627030849456787,-26.87012481689453,-1.1056722402572632
1761400772274404900,1.45240478515625,3.276839017868042,-25.647436141967773,-1.6300772428512573
1761400772284495000,1.4624951171875,4.3913397789001465,-24.371925354003906,-2.1250035762786865
1761400772294580000,1.472580078125,5.144166946411133,-23.54562759399414,-2.188898801803589
1761400772304638500,1.482638427734375,5.465513706207275,-22.602985382080078,-2.3448212146759033
1761400772314742300,1.4927421875,5.292457580566406,-22.05792999267578,-2.6227731704711914
1761400772324797400,1.50279736328125,4.719645023345947,-22.002714157104492,-2.920177936553955
1761400772334903800,1.51290380859375,3.9065141677856445,-21.990293502807617,-3.1741127967834473
1761400772344984800,1.52298486328125,3.013925790786743,-21.85719108581543,-3.3889925479888916
1761400772355040300,1.533040283203125,2.209848165512085,-21.057527542114258,-3.554940700531006
1761400772365141500,1.5431416015625,1.6976386308670044,-20.20990562438965,-3.4775779247283936
1761400772375204900,1.553204833984375,1.3516017198562622,-19.47368812561035,-3.4228854179382324
1761400772385307600,1.5633076171875,1.329829454421997,-18.362703323364258,-3.1554830074310303
1761400772395388400,1.573388427734375,1.473182201385498,-17.326313018798828,-2.828599691390991
1761400772405444600,1.583444580078125,1.6695067882537842,-16.119861602783203,-2.4728362560272217
1761400772415551000,1.593551025390625,1.9183541536331177,-14.574029922485352,-2.35379958152771
1761400772425631200,1.60363134765625,2.072181463241577,-12.809054374694824,-2.313098192214966
1761400772435712000,1.6137119140625,2.224363088607788,-10.835409164428711,-2.1040544509887695
1761400772445793000,1.62379296875,2.3329999446868896,-8.763301849365234,-1.7609353065490723
1761400772455873800,1.633873779296875,1.9514240026474,-7.172729015350342,-1.70512056350708
1761400772465954600,1.64395458984375,1.1222820281982422,-5.347748756408691,-1.479392170906067
1761400772476013300,1.654013427734375,0.44008418917655945,-3.0998926162719727,-1.6143653392791748
1761400772486116000,1.6641162109375,0.16168344020843506,-1.8572272062301636,-1.8775030374526978
1761400772496197000,1.674197021484375,-0.5107131600379944,-1.174505591392517,-2.301201820373535
1761400772506278100,1.684278076171875,-1.5423896312713623,-1.2381763458251953,-2.4445548057556152
1761400772516359200,1.694359130859375,-2.5389013290405273,-1.6531962156295776,-2.5986814498901367
1761400772526440000,1.70443994140625,-3.286116600036621,-1.7975965738296509,-2.5885062217712402
1761400772536520700,1.714520751953125,-3.5625722408294678,-1.601945400238037,-2.214561700820923
1761400772546601500,1.7246015625,-3.6588640213012695,-1.5053542852401733,-1.508795976638794
1761400772556682200,1.73468212890625,-3.541398525238037,-1.3984382152557373,-0.7321019768714905
1761400772566763000,1.744762939453125,-3.1792755126953125,-1.0333973169326782,0.021098902449011803
1761400772576844000,1.754843994140625,-2.8477532863616943,-0.4976198673248291,0.9315689206123352
1761400772586924800,1.7649248046875,-2.914940595626831,-0.06052841246128082,1.4992191791534424
1761400772597005800,1.775005859375,-3.287238836288452,0.4612579345703125,1.8588731288909912
1761400772607086600,1.785086669921875,-3.9466917514801025,1.1059715747833252,2.0713586807250977
1761400772617167600,1.795167724609375,-4.362160682678223,1.6599299907684326,2.1548564434051514
1761400772627248400,1.805248291015625,-4.330512523651123,1.8962825536727905,2.213439464569092
1761400772637329200,1.8153291015625,-4.3663506507873535,1.9167829751968384,2.3593361377716064
1761400772647410000,1.825409912109375,-4.325424671173096,1.7363947629928589,2.3796119689941406
1761400772657491500,1.835491455078125,-4.172569751739502,1.1988965272903442,2.194211006164551
1761400772667572000,1.845572021484375,-3.8296751976013184,0.6970868110656738,1.839794397354126
1761400772677636400,1.85563623046875,-3.332354784011841,0.3519476354122162,1.4462474584579468
1761400772687734300,1.865734375,-2.7754783630371094,0.1265185922384262,1.2640637159347534
1761400772697814500,1.875814453125,-2.264690399169922,-0.30855274200439453,1.2958617210388184
1761400772707895300,1.885895263671875,-1.7476924657821655,-0.9130138754844666,1.3961937427520752
1761400772717979000,1.895978759765625,-1.1796680688858032,-1.4967501163482666,1.6633716821670532
1761400772728052700,1.906052734375,-0.619499683380127,-1.725321650505066,2.155005931854248
1761400772738134000,1.916134033203125,-0.1422305405139923,-1.9271079301834106,2.378340005874634
1761400772748229000,1.92622900390625,0.3357119560241699,-2.3889644145965576,1.9407249689102173
1761400772758299400,1.93629931640625,0.9912742972373962,-2.933720111846924,1.3218238353729248
1761400772768380400,1.94638037109375,1.6128689050674438,-3.4594717025756836,0.6949918866157532
1761400772778461200,1.956461181640625,2.1268742084503174,-3.9707834720611572,0.15315409004688263
1761400772788530700,1.96653076171875,2.513911724090576,-4.026897430419922,-0.18300679326057434
1761400772798623000,1.976623046875,2.7632827758789062,-4.03041410446167,-0.32291796803474426
1761400772808704800,1.986704833984375,2.9542205333709717,-4.066401958465576,-0.07631517946720123
1761400772818784300,1.9967841796875,3.1261539459228516,-3.939509153366089,0.4263923466205597
1761400772828865800,2.00686572265625,3.106102705001831,-3.8212954998016357,0.4339490532875061
1761400772838946600,2.016946533203125,3.071686029434204,-4.122815132141113,-0.04272153601050377
1761400772849023500,2.0270234375,3.067720651626587,-4.7702226638793945,-0.5900958776473999
1761400772859109000,2.037109130859375,2.8285248279571533,-5.494917392730713,-1.3164368867874146
1761400772869190100,2.047190185546875,2.6093804836273193,-6.4264116287231445,-2.117072820663452
1761400772879270000,2.057269775390625,2.648735284805298,-7.351920127868652,-2.7113585472106934
1761400772889351000,2.067350830078125,2.9076831340789795,-8.45011043548584,-3.0766987800598145
1761400772899431400,2.077431396484375,3.4822914600372314,-9.271845817565918,-2.754603862762451
1761400772909512400,2.087512451171875,3.9876177310943604,-9.574487686157227,-2.409764051437378
1761400772919589600,2.097589599609375,4.333804130554199,-10.154109001159668,-2.3996634483337402
1761400772929673500,2.107673583984375,4.689567565917969,-11.076774597167969,-2.240673542022705
1761400772939730200,2.117730224609375,5.138031482696533,-12.078971862792969,-1.6878373622894287
1761400772949836800,2.1278369140625,5.467159748077393,-13.274576187133789,-0.9615712761878967
1761400772959916500,2.13791650390625,5.626224517822266,-14.93570327758789,-0.20560206472873688
1761400772969997300,2.147997314453125,5.955202579498291,-16.647781372070312,0.441430926322937
1761400772980074800,2.15807470703125,6.381894111633301,-18.115427017211914,1.020453691482544
1761400772990159400,2.168159423828125,6.889839172363281,-19.623775482177734,1.6555156707763672
1761400773000240600,2.17824072265625,7.0964884757995605,-21.247716903686523,2.2340893745422363
1761400773010295800,2.1882958984375,7.202207565307617,-22.883180618286133,2.1694459915161133
1761400773020377000,2.198377197265625,7.2159743309021,-24.12352752685547,1.2519429922103882
1761400773030459000,2.208458984375,7.199588775634766,-25.63501739501953,0.11611878126859665
1761400773040532500,2.218532470703125,6.98276424407959,-27.278785705566406,-0.7417536377906799
1761400773050620200,2.2286201171875,6.957251071929932,-28.561779022216797,-0.9320926666259766
1761400773060726300,2.238726318359375,7.2859296798706055,-29.21681785583496,-1.0523264408111572
1761400773070806500,2.248806640625,7.789909362792969,-29.144243240356445,-0.6040121912956238
1761400773080886800,2.25888671875,8.278326034545898,-28.768577575683594,0.12584522366523743
1761400773090948600,2.268948486328125,8.43731689453125,-28.10635757446289,0.6936451196670532
1761400773101048800,2.279048828125,8.732625961303711,-27.609708786010742,1.1127052307128906
1761400773111126000,2.2891259765625,8.724021911621094,-26.695947647094727,0.9501988291740417
1761400773121210400,2.29921044921875,8.167369842529297,-24.9995059967041,0.5544073581695557
1761400773131291400,2.30929150390625,7.151106357574463,-23.70880699157715,-0.15966331958770752
1761400773141372400,2.319372314453125,5.808408260345459,-23.151107788085938,-1.1160720586776733
1761400773151453200,2.329453125,4.483142852783203,-22.997055053710938,-1.7373673915863037
1761400773161534000,2.339533935546875,3.6825814247131348,-22.560413360595703,-2.101435661315918
1761400773171611000,2.34961083984375,3.440093755722046,-21.840282440185547,-1.8316391706466675
1761400773181695500,2.359695556640625,3.7583730220794678,-20.69817352294922,-1.2068272829055786
1761400773191776500,2.369776611328125,4.612953186035156,-19.311555862426758,-0.6414216160774231
1761400773201857500,2.379857421875,5.31467866897583,-17.689186096191406,-0.49372929334640503
1761400773211938600,2.3899384765625,5.767706871032715,-15.89577865600586,-0.42706573009490967
1761400773222019000,2.40001904296875,5.850905418395996,-14.427234649658203,-0.5970540642738342
1761400773232099800,2.410099853515625,5.684957027435303,-13.490653038024902,-0.9511714577674866
1761400773242155800,2.42015576171875,5.47538948059082,-12.481646537780762,-1.1747300624847412
1761400773252261600,2.43026171875,5.3080949783325195,-11.483189582824707,-0.9545382857322693
1761400773262343700,2.44034375,5.193846702575684,-10.395025253295898,-0.39459437131881714
1761400773272423400,2.45042333984375,5.262904167175293,-9.474604606628418,0.04100070521235466
1761400773282478600,2.460478515625,5.322908878326416,-9.22052001953125,0.22183774411678314
1761400773292585200,2.470585205078125,5.398401260375977,-8.659677505493164,0.75948566198349
1761400773302662000,2.480661865234375,5.4944682121276855,-7.604807376861572,1.487472653388977
1761400773312734000,2.49073388671875,5.588590621948242,-6.666205883026123,1.8950854539871216
1761400773322818000,2.500818115234375,5.562254428863525,-5.725209712982178,1.5502456426620483
1761400773353070300,2.5310703125,2.5989060401916504,-4.082188606262207,-0.6297498941421509
1761400773373211100,2.551211181640625,-0.2297685444355011,-2.7887213230133057,-0.9448118209838867
1761400773383287800,2.561287841796875,-1.345017671585083,-2.9945478439331055,-1.400607943534851
1761400773393393700,2.5713935546875,-2.214486837387085,-3.4681508541107178,-1.4523078203201294
1761400773403475500,2.581475341796875,-2.6319758892059326,-3.565265655517578,-1.0395324230194092
1761400773413530600,2.591530517578125,-2.722731113433838,-3.477428436279297,-0.3063829839229584
1761400773423612000,2.60161181640625,-2.617760181427002,-3.1216650009155273,0.3627215623855591
1761400773433693000,2.61169287109375,-2.5421931743621826,-2.381632089614868,0.7038204669952393
1761400773443773000,2.62177294921875,-2.5534908771514893,-1.5631144046783447,0.7576152086257935
1761400773453879600,2.631879638671875,-2.5468320846557617,-0.7852981686592102,0.7027730345726013
1761400773463959800,2.641959716796875,-2.5032126903533936,-0.15988777577877045,0.4692635238170624
1761400773474027800,2.65202783203125,-2.5014917850494385,0.26493337750434875,0.08544307202100754
1761400773484123000,2.662122802734375,-2.4981250762939453,0.6012439131736755,-0.30960020422935486
1761400773494189600,2.672189453125,-2.4739584922790527,0.8524854183197021,-0.541987419128418
1761400773504283400,2.682283447265625,-2.5388264656066895,1.0824036598205566,-0.6084265112876892
1761400773514365000,2.692364990234375,-2.5109939575195312,1.3126211166381836,-0.935160219669342
1761400773524452000,2.7024521484375,-2.3942766189575195,1.4855272769927979,-1.3031939268112183
1761400773534526000,2.71252587890625,-2.2472574710845947,1.5991771221160889,-1.5182980298995972
1761400773544595000,2.722594970703125,-2.078166961669922,1.7685668468475342,-1.5093945264816284
1761400773554688000,2.73268798828125,-1.8282722234725952,1.8922423124313354,-1.3299790620803833
1761400773564766700,2.7427666015625,-1.5396960973739624,1.8247557878494263,-0.8659528493881226
1761400773574837200,2.752837158203125,-1.203460454940796,1.5373018980026245,-0.23044191300868988
1761400773584930000,2.762929931640625,-0.919897198677063,1.28231942653656,0.44696754217147827
1761400773595008000,2.773008056640625,-1.0574889183044434,0.9677812457084656,0.989852786064148
1761400773605081300,2.783081298828125,-1.224933385848999,0.7419032454490662,1.1315596103668213
1761400773615159800,2.793159912109375,-1.3416507244110107,0.6260837316513062,1.049483299255371
1761400773625251800,2.803251953125,-1.53206467628479,0.41202715039253235,0.8275707960128784
1761400773635322000,2.813322021484375,-1.7662475109100342,-0.20605097711086273,0.6915501952171326
1761400773645415400,2.82341552734375,-2.087893486022949,-1.2359317541122437,0.5528361201286316
1761400773655494400,2.833494384765625,-2.4286184310913086,-1.7265187501907349,0.5076456069946289
1761400773665565200,2.843565185546875,-2.5055320262908936,-1.6202759742736816,0.7540987133979797
1761400773675643600,2.8536435546875,-2.5848400592803955,-1.7781436443328857,1.0951228141784668
1761400773685726000,2.863725830078125,-2.4023568630218506,-2.5085248947143555,1.2250831127166748
1761400773695819800,2.87381982421875,-2.5493011474609375,-3.33624529838562,0.8123077750205994
1761400773705900500,2.883900634765625,-2.9909565448760986,-4.77964973449707,0.29231706261634827
1761400773715968500,2.893968505859375,-2.8092215061187744,-6.5884690284729,-0.3677344024181366
1761400773726049800,2.9040498046875,-1.778817057609558,-8.29703140258789,-0.8248773217201233
1761400773736130600,2.914130615234375,-0.5142296552658081,-10.462885856628418,-0.7338228225708008
1761400773746209800,2.924209716796875,0.39698857069015503,-13.141847610473633,-0.8619874119758606
1761400773756303000,2.93430322265625,1.4838813543319702,-15.857621192932129,-1.1486930847167969
1761400773766385200,2.94438525390625,2.6723031997680664,-17.156400680541992,-1.8475755453109741
1761400773776466400,2.954466552734375,3.8901288509368896,-17.97835922241211,-1.7958009243011475
1761400773786534700,2.96453466796875,4.760869979858398,-19.32599639892578,-1.0949732065200806
1761400773796621300,2.974621337890625,5.287444591522217,-21.059173583984375,-0.14245499670505524
1761400773806694400,2.9846943359375,5.882328987121582,-22.78561782836914,0.8984990119934082
1761400773816790300,2.994790283203125,6.558915615081787,-23.93917465209961,1.728763222694397
1761400773826871000,3.00487109375,7.176918983459473,-24.257078170776367,2.1000142097473145
1761400773836951300,3.014951416015625,7.545551300048828,-24.475175857543945,1.9562124013900757
1761400773847022300,3.025022216796875,7.614384174346924,-23.359926223754883,1.6000001430511475
1761400773857113000,3.035113037109375,8.033818244934082,-21.88711929321289,1.9503765106201172
1761400773867194000,3.045194091796875,8.067486763000488,-20.546964645385742,2.840420961380005
1761400773877248800,3.055248779296875,7.4695353507995605,-20.9357967376709,2.786177396774292
1761400773887353600,3.065353515625,7.212457656860352,-21.674333572387695,2.721608877182007
1761400773897437000,3.07543701171875,7.195847988128662,-22.102895736694336,2.449343204498291
1761400773907517700,3.085517578125,6.968847751617432,-23.310546875,1.961898684501648
1761400773917607700,3.095607666015625,6.406210422515869,-24.009578704833984,2.245461940765381
1761400773927670500,3.10567041015625,5.347898483276367,-24.438140869140625,2.062305450439453
1761400773937758700,3.1157587890625,4.053832530975342,-25.004444122314453,1.118615984916687
1761400773947841300,3.12584130859375,2.9705309867858887,-25.75457763671875,0.47652095556259155
1761400773957922000,3.135922119140625,2.212167501449585,-25.932796478271484,0.6195744872093201
1761400773968002300,3.146002197265625,1.625662922859192,-25.578304290771484,0.9906757473945618
1761400773978072600,3.156072509765625,1.2342109680175781,-24.938827514648438,1.3361890316009521
1761400773988164600,3.16616455078125,1.0796353816986084,-24.242115020751953,1.7419313192367554
1761400773998243300,3.176243408203125,1.1638813018798828,-23.849018096923828,1.9320459365844727
1761400774008313900,3.18631396484375,1.334842324256897,-22.89380645751953,1.9561376571655273
1761400774018386400,3.196386474609375,1.5614683628082275,-22.43299674987793,1.7972972393035889
1761400774028488200,3.20648828125,1.6483330726623535,-22.056882858276367,1.4457237720489502
1761400774038568700,3.216568603515625,1.623343586921692,-21.67336082458496,1.0309282541275024
1761400774048650000,3.22664990234375,1.6202759742736816,-21.22856330871582,0.9342623949050903
1761400774058718200,3.23671826171875,1.6037410497665405,-20.561553955078125,0.9738415479660034
1761400774068809200,3.246809326171875,1.866280198097229,-20.23751449584961,1.1293898820877075
1761400774078880000,3.2568798828125,2.275015354156494,-19.87598991394043,1.1096376180648804
1761400774088973000,3.26697314453125,2.7107601165771484,-19.235015869140625,1.0859200954437256
1761400774099041000,3.277041015625,2.886359691619873,-18.469619750976562,1.1326069831848145
1761400774109125600,3.287125732421875,2.8343605995178223,-17.771860122680664,1.3280338048934937
1761400774119202800,3.297202880859375,2.945915460586548,-17.0203800201416,1.3290064334869385
1761400774129294600,3.307294677734375,3.5118448734283447,-15.717784881591797,0.48729485273361206
1761400774139377400,3.31737744140625,3.6278140544891357,-14.67518424987793,-0.5414636731147766
1761400774149446000,3.32744580078125,3.5049617290496826,-13.547440528869629,-1.0468647480010986
1761400774159539200,3.337539306640625,3.2345664501190186,-12.233846664428711,-1.3251906633377075
1761400774169607400,3.347607421875,2.7992706298828125,-11.053356170654297,-1.3289315700531006
1761400774179701000,3.357700927734375,2.464007616043091,-9.609053611755371,-0.8938602209091187
1761400774189783300,3.367783203125,2.029085874557495,-8.127641677856445,-0.6400748491287231
1761400774199856000,3.377856201171875,1.2035353183746338,-6.977302074432373,-0.7285854816436768
1761400774209930500,3.387930419921875,0.29306524991989136,-6.303334712982178,-1.1701661348342896
1761400774220024300,3.3980244140625,-0.36414310336112976,-5.674108505249023,-1.2933926582336426
1761400774230088200,3.408088134765625,-0.898199737071991,-5.076755046844482,-0.9065794348716736
1761400774240185900,3.418185791015625,-1.040505051612854,-5.069946765899658,-0.4868459403514862
1761400774250254800,3.4282548828125,-1.1673977375030518,-5.579986572265625,-0.1032499447464943
1761400774260335400,3.43833544921875,-1.3590087890625,-6.131326198577881,0.39713820815086365
1761400774270404900,3.44840478515625,-1.9588310718536377,-6.511555194854736,1.053074598312378
1761400774280504600,3.458504638671875,-2.6424505710601807,-6.330044746398926,1.2232125997543335
1761400774290588200,3.468588134765625,-2.58738374710083,-5.578938961029053,0.7807341814041138
1761400774300669200,3.478669189453125,-2.4473230838775635,-4.771269798278809,0.6425438523292542
1761400774310739500,3.488739501953125,-2.673051357269287,-3.5003228187561035,0.7941267490386963
1761400774320829400,3.498829345703125,-2.761711597442627,-1.9290531873703003,0.8955062627792358
1761400774330914000,3.5089140625,-2.648510694503784,-0.6289268732070923,0.8802432417869568
1761400774340994600,3.51899462890625,-2.435352087020874,0.1718587875366211,0.753350555896759
1761400774351051300,3.52905126953125,-2.2985832691192627,0.8281693458557129,0.7004536390304565
1761400774361165000,3.5391650390625,-2.436998128890991,1.675417423248291,0.694617748260498
1761400774371236900,3.54923681640625,-2.5237131118774414,2.494309186935425,0.7923310995101929
1761400774381306000,3.55930615234375,-2.41971492767334,3.041982889175415,0.992321789264679
1761400774391394800,3.569394775390625,-2.3552958965301514,3.2753427028656006,1.0785130262374878
1761400774411561000,3.58956103515625,-2.351405382156372,3.7527616024017334,0.9793781042098999
1761400774421641500,3.599641357421875,-2.275688648223877,3.8488287925720215,1.1403133869171143
1761400774431706000,3.6097060546875,-1.9585318565368652,3.603797197341919,1.3972411155700684
1761400774441794000,3.6197939453125,-1.4187889099121094,3.1251065731048584,1.5998504161834717
1761400774451871700,3.629871826171875,-0.9257330298423767,2.4350528717041016,1.7750012874603271
1761400774461965300,3.63996533203125,-0.4812345504760742,1.6724995374679565,1.9625719785690308
1761400774472045800,3.6500458984375,-0.19400516152381897,0.8888474106788635,2.342651605606079
1761400774482107100,3.660107177734375,0.10758943855762482,0.23575404286384583,2.5364322662353516
1761400774492196400,3.6701962890625,0.45751696825027466,-0.18405425548553467,2.346317768096924
1761400774502275600,3.680275634765625,0.7991396188735962,-0.46245503425598145,2.05123233795166
1761400774512369200,3.690369140625,1.079859733581543,-0.8307880163192749,1.7548750638961792
1761400774522447000,3.700447021484375,1.3007248640060425,-1.552190899848938,1.2604724168777466
1761400774532526600,3.710526611328125,1.5811457633972168,-2.1990742683410645,0.47494974732398987
1761400774542600400,3.720600341796875,1.6642694473266602,-2.65210223197937,0.04661211371421814
1761400774552676600,3.730676513671875,1.8080711364746094,-3.0071921348571777,-0.32216978073120117
1761400774562764000,3.740763916015625,2.1046528816223145,-3.126453399658203,-0.15801730751991272
1761400774572854800,3.750854736328125,2.470292329788208,-3.305270195007324,0.541837751865387
1761400774582933500,3.76093359375,2.9355905055999756,-4.0504655838012695,1.4422072172164917
1761400774593016000,3.77101611328125,3.4670286178588867,-4.958840847015381,2.1000142097473145
1761400774603092500,3.781092529296875,3.736525774002075,-5.535170078277588,1.9165585041046143
1761400774613165000,3.7911650390625,3.6775686740875244,-5.778480529785156,1.2398223876953125
1761400774623246300,3.801246337890625,3.504063844680786,-6.280589580535889,0.652719259262085
1761400774633339400,3.81133935546875,3.7988498210906982,-8.913687705993652,-0.22296003997325897
1761400774643415800,3.821415771484375,4.39268684387207,-12.384905815124512,-1.4742296934127808
1761400774653501200,3.831501220703125,5.235071659088135,-13.51878547668457,-2.209773302078247
1761400774663582000,3.84158203125,5.707477569580078,-13.854796409606934,-2.9244425296783447
1761400774673650400,3.851650390625,6.128407955169678,-12.684929847717285,-2.3984663486480713
1761400774683717400,3.86171728515625,6.757410049438477,-11.499500274658203,-1.0577882528305054
1761400774693811700,3.871811767578125,7.915006160736084,-11.445331573486328,0.12494739890098572
1761400774703905800,3.88190576171875,8.69753646850586,-12.595520973205566,1.7851766347885132
1761400774713973800,3.891973876953125,8.765846252441406,-13.363611221313477,3.3414077758789062
1761400774724055000,3.902054931640625,8.523358345031738,-13.912406921386719,2.8803741931915283
1761400774734148000,3.912148193359375,8.203283309936523,-16.063074111938477,1.4315829277038574
1761400774744215800,3.9222158203125,7.737236976623535,-18.64200210571289,-0.09382277727127075
1761400774754297000,3.932297119140625,7.231536388397217,-19.543569564819336,-1.5073744058609009
1761400774764390400,3.942390380859375,7.316082000732422,-19.83955192565918,-1.6763153076171875
1761400774774445800,3.95244580078125,7.274258136749268,-18.994400024414062,-2.306439161300659
1761400774784552200,3.96255224609375,7.37324333190918,-19.092187881469727,-1.4168436527252197
1761400774794632700,3.9726328125,7.754669666290283,-20.103063583374023,0.19026421010494232
1761400774804713700,3.982713623046875,7.789011478424072,-21.49349594116211,1.5409680604934692
1761400774814794500,3.99279443359375,8.179790496826172,-22.164995193481445,3.0295629501342773
1761400774824865000,4.002864990234375,8.82442855834961,-22.05545997619629,3.711536407470703
1761400774834956500,4.01295654296875,8.973692893981934,-21.782596588134766,3.364975690841675
1761400774845035800,4.023035888671875,8.541763305664062,-22.10895538330078,2.5597758293151855
1761400774855113500,4.033113525390625,7.978377819061279,-22.554203033447266,1.3361141681671143
1761400774865180200,4.04318017578125,7.6425909996032715,-21.63123893737793,0.7349451184272766
1761400774875280400,4.0532802734375,7.456591606140137,-21.114315032958984,0.5894225239753723
1761400774885361200,4.063361083984375,6.7358622550964355,-21.28602409362793,0.20186112821102142
1761400774895429000,4.07342919921875,5.946299076080322,-21.8359432220459,0.12913724780082703
1761400774905507600,4.083507568359375,5.4233903884887695,-22.052392959594727,0.2834884524345398
1761400774915588600,4.093588623046875,5.136311054229736,-21.798831939697266,0.5027075409889221
1761400774925683000,4.103682861328125,5.077727794647217,-21.440000534057617,0.9190741777420044
1761400774935752700,4.113752685546875,5.081243991851807,-20.762067794799805,1.240121603012085
1761400774945833000,4.1238330078125,5.007323265075684,-19.977218627929688,1.0960954427719116
1761400774955908600,4.13390869140625,4.426130771636963,-19.599609375,0.4388870894908905
1761400774966006000,4.144006103515625,3.4078469276428223,-19.54012680053711,-0.3007715940475464
1761400774976088600,4.154088623046875,2.4863784313201904,-19.68984031677246,-1.047163963317871
1761400774986160600,4.16416064453125,1.8362778425216675,-19.81905174255371,-1.6673370599746704
1761400774996250000,4.17425,1.467944860458374,-19.77745246887207,-2.07397723197937
1761400775006330000,4.184330078125,1.5262287855148315,-19.261503219604492,-2.264540672302246
1761400775016392400,4.194392333984375,1.9346646070480347,-18.813037872314453,-2.261772394180298
1761400775026479600,4.204479736328125,2.694075345993042,-18.1922664642334,-1.9681833982467651
1761400775036571600,4.214571533203125,3.8643910884857178,-17.650354385375977,-1.1009587049484253
1761400775046654500,4.224654541015625,5.234323501586914,-16.724172592163086,-0.05581482872366905
1761400775056708400,4.234708251953125,6.051793575286865,-15.722198486328125,0.41778820753097534
1761400775066816500,4.24481640625,6.1157636642456055,-14.625879287719727,0.7101052403450012
1761400775076875000,4.254875,5.75057315826416,-12.99236011505127,0.7840262651443481
1761400775086976300,4.264976318359375,5.857264995574951,-11.595044136047363,0.8862287402153015
1761400775097059000,4.27505908203125,5.340790748596191,-9.523161888122559,0.4429273009300232
1761400775107128800,4.28512890625,4.646023273468018,-7.760281085968018,-0.21697452664375305
1761400775117210600,4.295210693359375,3.7537341117858887,-6.30752420425415,-0.483404278755188
1761400775127302000,4.305302001953125,2.6163387298583984,-5.114538669586182,-0.35164836049079895
1761400775137371600,4.31537158203125,1.5524901151657104,-4.312930107116699,-0.06569091230630875
1761400775147463400,4.32546337890625,0.8045265674591064,-3.7853825092315674,0.24652795493602753
1761400775157542100,4.335542236328125,0.10616788268089294,-3.4853591918945312,0.5606172680854797
1761400775167621400,4.345621337890625,-0.6483049392700195,-3.1891515254974365,0.43993455171585083
1761400775177705700,4.355705810546875,-1.2723685503005981,-2.940004825592041,0.17066168785095215
1761400775187786500,4.365786376953125,-1.658807635307312,-2.7018566131591797,0.10699088871479034
1761400775197867300,4.3758671875,-1.88550865650177,-2.3150434494018555,0.35351884365081787
1761400775207948300,4.3859482421875,-2.0695629119873047,-1.7171663045883179,0.67950439453125
1761400775218025500,4.396025390625,-2.159046173095703,-1.056217074394226,0.7815572023391724
1761400775228105700,4.406105712890625,-2.230722665786743,-0.4546738564968109,0.6685060262680054
1761400775238187500,4.4161875,-2.2753894329071045,0.36474165320396423,0.5791723728179932
1761400775248239600,4.426239501953125,-2.2245874404907227,1.0622025728225708,0.5606921315193176
1761400775258353000,4.436352783203125,-2.0311808586120605,1.3909564018249512,0.7634510397911072
1761400775268434000,4.446433837890625,-1.7952772378921509,1.4395885467529297,1.1714379787445068
1761400775278510300,4.45651025390625,-1.6569372415542603,1.3268367052078247,1.4637550115585327
1761400775288593400,4.466593505859375,-1.5582512617111206,1.064970850944519,1.5174001455307007
1761400775298676500,4.476676513671875,-1.4547767639160156,0.814253032207489,1.628281593322754
1761400775308756700,4.4867568359375,-1.4752023220062256,0.826897382736206,1.8789246082305908
1761400775318838000,4.496838134765625,-1.679532527923584,0.8115595579147339,2.2776339054107666
1761400775328875500,4.50687548828125,-1.8006641864776611,0.9023147821426392,2.477849006652832
1761400775338979300,4.516979248046875,-1.782109022140503,0.9525930285453796,2.5445876121520996
1761400775349076000,4.527075927734375,-1.6632968187332153,0.6257844567298889,2.437222480773926
1761400775359160800,4.537160888671875,-1.4995932579040527,0.24188919365406036,2.1114614009857178
1761400775369241600,4.54724169921875,-1.3299790620803833,-0.03845686465501785,2.0049195289611816
1761400775379323000,4.557322998046875,-1.1268459558486938,-0.10257657617330551,2.051830768585205
1761400775389377800,4.567377685546875,-1.1064205169677734,-0.013691840693354607,1.8534114360809326
1761400775399484200,4.577484130859375,-1.2096704244613647,-0.1942296177148819,1.2799252271652222
1761400775409561000,4.58756103515625,-1.5299696922302246,-0.7354688048362732,0.3990834951400757
1761400775419646200,4.597646240234375,-1.9837456941604614,-0.8169465065002441,-0.18816928565502167
1761400775429727000,4.60772705078125,-2.4094648361206055,-0.7461678981781006,-0.37162500619888306
1761400775439806000,4.617805908203125,-2.58042573928833,-0.9340379238128662,-0.2669534981250763
1761400775449889500,4.6278896484375,-2.4218099117279053,-1.27191960811615,0.1280149668455124
1761400775459970000,4.637969970703125,-2.200495719909668,-1.8696470260620117,0.22333413362503052
1761400775470051000,4.648051025390625,-1.8250551223754883,-2.4262242317199707,-0.15913958847522736
1761400775480127700,4.658127685546875,-1.0036942958831787,-3.5586066246032715,-0.2799719572067261
1761400775490212400,4.66821240234375,-0.08634089678525925,-5.641038417816162,-0.09292495250701904
1761400775500293400,4.67829345703125,0.871489405632019,-7.632864475250244,-0.13923779129981995
1761400775510348300,4.688348388671875,1.9244892597198486,-9.119140625,-0.6863877177238464
1761400775520429300,4.69842919921875,3.0037505626678467,-10.081684112548828,-1.1501895189285278
1761400775530535700,4.70853564453125,3.6925323009490967,-10.784307479858398,-1.5319149494171143
1761400775540612900,4.71861279296875,4.280308723449707,-12.146084785461426,-1.5003414154052734
1761400775550672100,4.728672119140625,5.0243072509765625,-13.970765113830566,-1.1231050491333008
1761400775560779300,4.738779296875,5.493046760559082,-15.396512985229492,-1.4188637733459473
1761400775570859000,4.74885888671875,5.5749735832214355,-16.08499526977539,-1.9826983213424683
1761400775580940300,4.758940185546875,5.648744583129883,-15.830611228942871,-1.853486180305481
1761400775591020500,4.7690205078125,5.73785400390625,-15.644163131713867,-1.6077812910079956
1761400775601097500,4.779097412109375,5.71473503112793,-16.0732479095459,-1.7770214080810547
1761400775611183400,4.789183349609375,5.698050498962402,-16.69791030883789,-1.7775450944900513
1761400775621263600,4.799263671875,6.080673694610596,-17.20248794555664,-1.1534814834594727
1761400775631345000,4.809344970703125,6.840982437133789,-17.45058822631836,-0.530614972114563
1761400775641425200,4.819425048828125,7.491456985473633,-17.411832809448242,0.15270517766475677
1761400775651506700,4.829506591796875,7.998354434967041,-16.62166976928711,-0.12681786715984344
1761400775661572000,4.839572021484375,8.21532917022705,-16.012121200561523,-0.8403648138046265
1761400775671664600,4.84966455078125,7.756390571594238,-16.51318359375,-1.065868616104126
1761400775681749200,4.859749267578125,7.191508769989014,-16.90530776977539,-0.8939350843429565
1761400775691789000,4.8697890625,6.736385822296143,-17.465028762817383,-0.3197755515575409
1761400775701911000,4.8799111328125,6.030993938446045,-19.07894515991211,-0.6385036706924438
1761400775711965700,4.889965576171875,5.391517639160156,-20.145187377929688,-1.0899603366851807
1761400775722072600,4.900072509765625,4.99093770980835,-20.97290802001953,-1.2167781591415405
1761400775732148700,4.910148681640625,4.240131378173828,-22.014610290527344,-1.573813557624817
1761400775742233300,4.9202333984375,2.7287166118621826,-23.19801902770996,-1.8211644887924194
1761400775752326100,4.930326171875,1.3801076412200928,-24.311397552490234,-1.7547253370285034
1761400775762395000,4.940394775390625,0.7171382308006287,-25.36798858642578,-1.5333365201950073
1761400775772477000,4.950476806640625,0.4290110170841217,-25.697790145874023,-1.3293805122375488
1761400775782557400,4.960557373046875,0.38232406973838806,-25.50565528869629,-0.9332897663116455
1761400775792638000,4.970637939453125,0.5918167233467102,-24.88353729248047,-0.7866448760032654
1761400775802711000,4.9807109375,0.7181108593940735,-24.12891387939453,-0.7258172035217285
1761400775812802600,4.990802490234375,0.7105541825294495,-23.328876495361328,-0.4578162431716919
1761400775822880300,5.00088037109375,0.7842506766319275,-22.531831741333008,-0.3056347966194153
1761400775832961300,5.010961181640625,0.8170213103294373,-21.948768615722656,-0.4454711675643921
1761400775843042000,5.0210419921875,0.8007108569145203,-21.336078643798828,-0.6415712237358093
1761400775853122800,5.031122802734375,0.7993640899658203,-20.564172744750977,-0.890568196773529
1761400775863199500,5.041199462890625,0.9115923047065735,-20.1137638092041,-1.2104185819625854
1761400775873284600,5.05128466796875,1.1760019063949585,-20.368520736694336,-1.1000608205795288
1761400775883365400,5.061365478515625,1.3292309045791626,-20.556241989135742,-0.6883329749107361
1761400775893446400,5.0714462890625,1.4315829277038574,-20.86434555053711,0.06666355580091476
1761400775903527200,5.081527099609375,1.5913959741592407,-20.01245880126953,0.8839093446731567
1761400775913608700,5.091608642578125,2.1156513690948486,-18.585739135742188,1.250895619392395
1761400775923685000,5.10168505859375,2.7659764289855957,-17.755550384521484,1.292868971824646
1761400775933769700,5.111769775390625,3.18017315864563,-16.569072723388672,0.7694365978240967
1761400775943850500,5.1218505859375,3.5644426345825195,-15.644986152648926,0.43941083550453186
1761400775953932500,5.1319326171875,3.839326858520508,-14.949620246887207,0.19437925517559052
1761400775963987500,5.141987548828125,4.131269931793213,-13.904550552368164,-0.14013561606407166
1761400775974093300,5.15209326171875,4.3150248527526855,-12.577190399169922,-0.7332990765571594
1761400775984173800,5.162173828125,4.391190528869629,-11.62332534790039,-1.2229881286621094
1761400775994251000,5.1722509765625,4.316446304321289,-11.029488563537598,-1.2265794277191162
1761400776004335900,5.1823359375,4.49526309967041,-10.195109367370605,-0.8584709763526917
1761400776014417200,5.192417236328125,4.786757469177246,-9.315315246582031,-0.4390367269515991
1761400776024498200,5.202498291015625,4.8941969871521,-8.32800579071045,-0.398185670375824
1761400776034578200,5.212578125,5.156137943267822,-7.94059419631958,-0.3173065483570099
1761400776044659500,5.222659423828125,5.274725437164307,-7.060500621795654,-0.25573065876960754
1761400776054740200,5.232740234375,5.41755485534668,-5.266271114349365,-0.03538929298520088
1761400776064821000,5.242821044921875,5.013607978820801,-4.015674591064453,-0.039130233228206635
1761400776074901800,5.25290185546875,4.203320503234863,-3.3761236667633057,-0.027383681386709213
1761400776084982500,5.262982421875,3.2380828857421875,-2.926013708114624,0.1032499447464943
1761400776095038200,5.2730380859375,2.121337413787842,-3.0039000511169434,0.03725976496934891
1761400776105144000,5.28314404296875,1.01753568649292,-3.46807599067688,-0.18323124945163727
1761400776115225600,5.2932255859375,0.005237316247075796,-3.714603900909424,-0.19684827327728271
1761400776125298700,5.303298583984375,-0.8271966576576233,-4.00729513168335,-0.019452888518571854
1761400776135387600,5.3133876953125,-1.4578443765640259,-4.618489742279053,0.13340193033218384
1761400776145467600,5.323467529296875,-2.1767783164978027,-5.171924591064453,-0.027982233092188835
1761400776155549400,5.333549560546875,-2.8417677879333496,-5.498134613037109,-0.33346739411354065
1761400776165629200,5.343629150390625,-3.134010076522827,-5.478681564331055,-0.4762216806411743
1761400776175686000,5.353685791015625,-3.2654666900634766,-4.716053485870361,-0.6597521901130676
1761400776195872000,5.3738720703125,-3.2870893478393555,-2.54496169090271,-0.4214543104171753
1761400776205953300,5.383953369140625,-3.3500866889953613,-1.4449007511138916,-0.12404957413673401
1761400776216033800,5.39403369140625,-3.503689765930176,-0.3092261254787445,0.02281973510980606
1761400776226115300,5.404115234375,-3.516483783721924,0.7592611908912659,0.06606500595808029
1761400776236183000,5.41418310546875,-3.5313727855682373,1.4276924133300781,0.15517419576644897
1761400776246251500,5.42425146484375,-3.558307409286499,1.9165585041046143,0.3274070918560028
1761400776256332300,5.434332275390625,-3.524489402770996,2.2643911838531494,0.648903489112854
1761400776266412800,5.444412841796875,-3.607912302017212,2.3458688259124756,1.1471219062805176
1761400776276494000,5.454494140625,-3.4558804035186768,2.632424831390381,1.6339678764343262
1761400776286579200,5.4645791015625,-3.2376341819763184,2.8132617473602295,1.905859351158142
1761400776296643800,5.474643798828125,-2.9524247646331787,2.7852046489715576,1.8227356672286987
1761400776306724900,5.484724853515625,-2.6005518436431885,2.706944227218628,1.3673136234283447
1761400776316826000,5.494826171875,-2.2059576511383057,2.586186647415161,0.6560860872268677
1761400776326907400,5.504907470703125,-1.8971055746078491,2.6069862842559814,0.0785597413778305
1761400776337003800,5.515003662109375,-1.8347066640853882,2.2771852016448975,-0.1751508116722107
1761400776347084500,5.52508447265625,-1.8845360279083252,1.8705449104309082,-0.29059621691703796
1761400776357166300,5.535166259765625,-2.1109375953674316,1.848248839378357,-0.17619827389717102
1761400776367247000,5.5452470703125,-2.4016835689544678,0.7984662652015686,0.27989715337753296
1761400776377327000,5.5553271484375,-1.9953426122665405,-0.4215291440486908,0.2737619876861572
1761400776387408000,5.565407958984375,-1.7018284797668457,-0.5861304998397827,0.1041477769613266
1761400776397489700,5.57548974609375,-1.3275848627090454,-0.7181108593940735,0.14163199067115784
1761400776407556900,5.585556884765625,-0.9509469866752625,-1.0208277702331543,-0.044666826725006104
1761400776417651200,5.595651123046875,-0.9181015491485596,-1.6210989952087402,-0.7970446944236755
1761400776427731500,5.6057314453125,-0.7386112213134766,-2.9939491748809814,-1.6240168809890747
1761400776437792500,5.61579248046875,-0.4060416519641876,-5.014505863189697,-2.055945873260498
1761400776447881000,5.625880859375,0.16744448244571686,-7.291017532348633,-2.070460796356201
1761400776457973200,5.63597314453125,0.9226654767990112,-9.208772659301758,-1.8166753053665161
1761400776468055600,5.6460556640625,1.8542344570159912,-9.933393478393555,-0.7613561153411865
1761400776478124500,5.65612451171875,2.7988216876983643,-10.907235145568848,0.44165539741516113
1761400776488217000,5.666217041015625,3.7859811782836914,-12.097975730895996,0.6971616148948669
1761400776498295800,5.6762958984375,4.49526309967041,-13.165116310119629,-0.18719664216041565
1761400776508345900,5.686345947265625,4.834716320037842,-14.268170356750488,-0.728884756565094
1761400776518460000,5.6964599609375,5.065158367156982,-15.654637336730957,-0.5701941251754761
1761400776528540400,5.70654052734375,5.163021087646484,-16.928951263427734,-0.071077860891819
1761400776538621400,5.716621337890625,5.323208332061768,-17.76116180419922,0.009726444259285927
1761400776548689400,5.726689453125,5.438878059387207,-18.882694244384766,-0.8601917624473572
1761400776558777000,5.736777099609375,5.532326698303223,-20.18514060974121,-1.669357180595398
1761400776568864000,5.746864013671875,5.758953094482422,-21.354259490966797,-1.133430004119873
1761400776578935300,5.756935302734375,5.696778297424316,-22.448259353637695,-0.3395277261734009
1761400776589025800,5.76702587890625,5.4123921394348145,-23.85634994506836,-0.20201076567173004
1761400776599105800,5.777105712890625,5.102941513061523,-25.46233558654785,-1.020678162574768
1761400776609188000,5.78718798828125,5.026401996612549,-24.880319595336914,-1.289053201675415
1761400776619256600,5.797256591796875,5.194519996643066,-23.585729598999023,-0.8723872303962708
1761400776629347300,5.807347412109375,5.296947002410889,-22.676233291625977,-0.1545756459236145
1761400776639430000,5.817429931640625,5.530007362365723,-22.186542510986328,0.4866214990615845
1761400776649497900,5.827497802734375,5.672612190246582,-21.817462921142578,1.090334415435791
1761400776659591700,5.837591796875,5.553500652313232,-21.923255920410156,1.7833809852600098
1761400776669672400,5.84767236328125,5.884124755859375,-20.409072875976562,2.73073673248291
1761400776679735000,5.857735107421875,6.093019008636475,-19.822118759155273,2.4361002445220947
1761400776689832200,5.867832275390625,5.742941856384277,-19.45528221130371,1.3727754354476929
1761400776699914500,5.87791455078125,4.922778129577637,-19.229555130004883,0.5324854254722595
1761400776709990000,5.887989990234375,3.7111623287200928,-19.78867530822754,-0.22527942061424255
1761400776720064300,5.898064208984375,2.6752212047576904,-20.37181282043457,-0.2454056739807129
1761400776730144500,5.90814453125,1.934140920639038,-20.434885025024414,-0.6239140033721924
1761400776740238600,5.918238525390625,1.1044751405715942,-20.95188331604004,-0.6808511018753052
1761400776750305300,5.92830517578125,-0.11783961206674576,-21.180530548095703,-0.6215946078300476
1761400776760398000,5.938398193359375,-1.0310779809951782,-20.64116096496582,-0.1554734706878662
1761400776770481000,5.94848095703125,-1.8006641864776611,-20.662485122680664,0.05057751014828682
1761400776780560000,5.958559814453125,-2.301276683807373,-20.77927589416504,0.46073418855667114
1761400776790641400,5.968641357421875,-2.419041633605957,-20.95667266845703,0.5535843372344971
1761400776800723000,5.978722900390625,-2.299032211303711,-20.66383171081543,0.2779518663883209
1761400776810804200,5.98880419921875,-2.1488709449768066,-20.11159324645996,-0.26426002383232117
1761400776820862700,5.99886279296875,-1.8865561485290527,-19.308937072753906,-0.6010942459106445
1761400776830965800,6.0089658203125,-1.408538818359375,-18.557907104492188,-0.6589292287826538
1761400776841047000,6.019047119140625,-0.6189759373664856,-18.567781448364258,-0.5985504388809204
1761400776851115300,6.029115234375,0.32448914647102356,-18.70387840270996,-0.41531917452812195
1761400776861208800,6.039208740234375,1.2234370708465576,-18.89937973022461,-0.190189391374588
1761400776871289600,6.04928955078125,1.9569605588912964,-19.13947296142578,-0.5853074789047241
1761400776881366300,6.0593662109375,2.157325267791748,-18.59539031982422,-0.9751134514808655
1761400776891451100,6.069451171875,2.4455273151397705,-17.83545684814453,-0.6577320694923401
1761400776901532000,6.079531982421875,3.0515596866607666,-17.937658309936523,0.05439326912164688
1761400776911613400,6.089613525390625,3.994725465774536,-17.60523796081543,0.2313397377729416
1761400776921694000,6.09969384765625,4.655300617218018,-17.256582260131836,0.046088382601737976
1761400776931762000,6.109761962890625,5.0510172843933105,-16.20732307434082,-0.05184943228960037
1761400776941855200,6.119855224609375,5.371840476989746,-14.863503456115723,0.2919429838657379
1761400776951931000,6.129930908203125,5.8057146072387695,-13.509732246398926,0.701052188873291
1761400776962005200,6.140005126953125,5.935375690460205,-11.675773620605469,-0.1099088191986084
1761400776972098000,6.15009814453125,5.594351768493652,-10.110488891601562,-0.997409462928772
1761400776982145800,6.160145751953125,5.477409839630127,-8.533234596252441,-1.4850784540176392
1761400776992259600,6.170259521484375,4.780023574829102,-7.411999702453613,-1.6124948263168335
1761400777002340900,6.1803408203125,3.9757964611053467,-6.6222124099731445,-1.2121394872665405
1761400777012419800,6.190419921875,3.3097593784332275,-5.64687442779541,-0.6179285049438477
1761400777022495500,6.20049560546875,2.75580096244812,-4.7153801918029785,-0.2926163375377655
1761400777032583200,6.210583251953125,1.9862147569656372,-4.043208122253418,0.2778770327568054
1761400777042664200,6.220664306640625,1.036689281463623,-3.8337903022766113,1.0010007619857788
1761400777052757200,6.23075732421875,-0.07332243025302887,-4.114735126495361,1.4841058254241943
1761400777062826000,6.240825927734375,-1.4736311435699463,-4.199355125427246,1.5085715055465698
1761400777072906200,6.25090625,-2.325892210006714,-3.8150107860565186,1.5032594203948975
1761400777082984400,6.260984375,-2.3325510025024414,-3.9486372470855713,1.5147066116333008
1761400777093068300,6.271068359375,-2.0993409156799316,-4.662109375,1.4444518089294434
1761400777103149000,6.281149169921875,-1.9751415252685547,-5.345654010772705,1.380556583404541
1761400777113204500,6.29120458984375,-2.2381296157836914,-5.634903430938721,1.3929765224456787
1761400777123310600,6.301310546875,-2.73537540435791,-5.313781261444092,1.4086135625839233
1761400777133380600,6.311380615234375,-3.0505123138427734,-4.546738624572754,1.4000842571258545
1761400777143471000,6.32147119140625,-3.12233829498291,-3.5208232402801514,1.3401544094085693
1761400777153553400,6.331553466796875,-3.0381672382354736,-2.4444799423217773,1.3275099992752075
1761400777163634400,6.341634521484375,-3.0505871772766113,-1.5783774852752686,1.288529396057129
1761400777173698300,6.3516982421875,-2.9801077842712402,-0.9201964735984802,1.0772411823272705
1761400777183796000,6.3617958984375,-2.765676975250244,-0.2323123812675476,0.6185270547866821
1761400777193877200,6.371877197265625,-2.507028341293335,0.5841852426528931,0.1157446876168251
1761400777203956000,6.3819560546875,-2.309357166290283,1.3201777935028076,-0.1256955862045288
1761400777214038500,6.39203857421875,-2.556558609008789,2.048314332962036,-0.35913026332855225
1761400777224119300,6.402119384765625,-2.738891839981079,2.9448680877685547,-0.6041618585586548
1761400777234198500,6.412198486328125,-2.8114662170410156,3.7136313915252686,-0.5397428274154663
1761400777244281000,6.422281005859375,-2.8597991466522217,4.129623889923096,0.02207154780626297
1761400777254361600,6.432361572265625,-2.933645248413086,4.133289813995361,0.8328080773353577
1761400777264430300,6.442430419921875,-2.9285576343536377,3.8429181575775146,1.7907880544662476
1761400777274522000,6.452522216796875,-2.628384590148926,2.9893105030059814,2.3861212730407715
1761400777284591600,6.462591552734375,-1.9382559061050415,2.19114351272583,2.572794198989868
1761400777294685700,6.472685791015625,-1.1778724193572998,1.4279168844223022,2.8261306285858154
1761400777304765000,6.482764892578125,-0.45407530665397644,0.8731354475021362,2.9666404724121094
1761400777314821600,6.492821533203125,0.07152677327394485,0.4362684488296509,2.9683611392974854
1761400777324915700,6.502915771484375,0.7514052391052246,-0.22797289490699768,2.918531894683838
1761400777335006700,6.5130068359375,1.4624083042144775,-0.969427227973938,2.7737574577331543
1761400777345089300,6.52308935546875,2.0293853282928467,-1.740360140800476,2.63167667388916
1761400777355170000,6.533170166015625,2.3098809719085693,-2.5411458015441895,2.2683565616607666
1761400777365238800,6.54323876953125,2.7263972759246826,-3.4326119422912598,1.6065841913223267
1761400777375320300,6.5533203125,3.4002902507781982,-5.016226768493652,0.5534346699714661
1761400777385413400,6.563413330078125,3.8708255290985107,-6.405013084411621,-0.7897872924804688
1761400777395479300,6.573479248046875,4.0673747062683105,-6.303110122680664,-1.5245078802108765
1761400777405570800,6.58357080078125,4.175637245178223,-5.619490623474121,-1.4023288488388062
1761400777415641600,6.5936416015625,4.370316028594971,-5.131298065185547,-0.8927379846572876
1761400777425737000,6.603737060546875,4.410717964172363,-5.302483558654785,-0.8374468684196472
1761400777435817700,6.613817626953125,4.4863600730896,-6.083292484283447,-0.9769091010093689
1761400777445886000,6.623885986328125,5.066729545593262,-6.566472053527832,-0.6762123703956604
1761400777455977000,6.63397705078125,5.817685604095459,-7.415366172790527,-0.3555389642715454
1761400777466058500,6.64405859375,6.105438709259033,-7.961169719696045,-0.727837324142456
1761400777476140800,6.654140869140625,5.908515930175781,-8.191536903381348,-1.7130513191223145
1761400777486209500,6.66420947265625,5.585148811340332,-8.520066261291504,-2.3959224224090576
1761400777496288000,6.6742880859375,5.269488334655762,-9.130363464355469,-2.6595840454101562
1761400777506383400,6.68438330078125,4.888436317443848,-10.3009033203125,-2.4736592769622803
1761400777516451000,6.694451171875,4.806734085083008,-10.792537689208984,-1.4970494508743286
1761400777526532900,6.704532958984375,5.032686710357666,-10.908206939697266,-0.21031565964221954
1761400777536626000,6.7146259765625,5.156661510467529,-11.804986000061035,0.6327426433563232
1761400777546709800,6.724709716796875,5.292906761169434,-12.989142417907715,0.9607482552528381
1761400777556787700,6.73478759765625,5.411045551300049,-13.93896770477295,0.9552865028381348
1761400777566868200,6.7448681640625,5.4316205978393555,-14.582334518432617,1.060032844543457
1761400777576949500,6.754949462890625,5.251531600952148,-15.686060905456543,1.1688193082809448
1761400777587006700,6.7650068359375,5.150301933288574,-16.304887771606445,1.3761422634124756
1761400777597111300,6.775111328125,5.194594860076904,-17.134403228759766,1.4064438343048096
1761400777607192000,6.785192138671875,5.370119571685791,-17.97596549987793,0.9609727263450623
1761400777617248000,6.795248046875,5.381117820739746,-18.656591415405273,0.18225860595703125
1761400777627353600,6.805353515625,5.410820960998535,-18.999561309814453,-0.28722938895225525
1761400777637434600,6.8154345703125,5.59682035446167,-19.2845458984375,-0.4305822253227234
1761400777647513600,6.825513671875,5.692812919616699,-19.52419090270996,-0.6747159957885742
1761400777657587500,6.83558740234375,5.664681434631348,-20.052936553955078,-1.2814216613769531
1761400777667677200,6.84567724609375,5.541080474853516,-20.872575759887695,-1.7394623756408691
1761400777677744400,6.855744384765625,5.433042049407959,-20.909086227416992,-1.789965033531189
1761400777687840000,6.865840087890625,5.368548393249512,-20.985925674438477,-1.3529484272003174
1761400777697919700,6.875919677734375,5.216217517852783,-21.11566162109375,-1.0822539329528809
1761400777707988500,6.885988525390625,4.923825263977051,-20.97769546508789,-1.0562918186187744
1761400777718079200,6.896079345703125,4.480673789978027,-21.0643367767334,-1.100809097290039
1761400777728162000,6.906162109375,3.867159366607666,-21.38979721069336,-0.8774749040603638
1761400777738243000,6.9162431640625,3.148150682449341,-21.581483840942383,-0.5772270560264587
1761400777748323300,6.9263232421875,2.5680058002471924,-21.452272415161133,-0.330848753452301
1761400777758397400,6.9363974609375,2.1572506427764893,-21.12015151977539,-0.2206406444311142
1761400777768472800,6.946472900390625,1.799018144607544,-20.76072120666504,-0.23912090063095093
1761400777778560800,6.956560791015625,1.3786860704421997,-20.170177459716797,-0.2949357330799103
1761400777788647400,6.9666474609375,0.8692448735237122,-19.820398330688477,-0.45153146982192993
1761400777798715400,6.97671533203125,0.5277718305587769,-19.475109100341797,-0.5849334001541138
1761400777808809000,6.98680908203125,0.30122050642967224,-19.195512771606445,-0.8013842105865479
1761400777818890200,6.99689013671875,0.17814357578754425,-18.954071044921875,-1.0936264991760254
1761400777828970800,7.006970703125,0.22340895235538483,-18.742259979248047,-1.3743466138839722
1761400777839049700,7.0170498046875,0.3652653992176056,-18.64806365966797,-1.5126866102218628
1761400777849132800,7.0271328125,0.6530185341835022,-18.448596954345703,-1.6086043119430542
1761400777859201000,7.037200927734375,0.9820716381072998,-17.79153823852539,-1.6467618942260742
1761400777869297000,7.047296875,1.389011025428772,-17.121610641479492,-1.543437123298645
1761400777879374600,7.05737451171875,1.8429367542266846,-16.70659065246582,-1.1901427507400513
1761400777889435400,7.067435302734375,2.3442976474761963,-16.484676361083984,-0.6611737608909607
1761400777899535400,7.077535400390625,2.8703484535217285,-16.415096282958984,-0.13856442272663116
1761400777909618200,7.0876181640625,3.251774787902832,-16.344690322875977,0.38464346528053284
1761400777919699200,7.09769921875,3.4204912185668945,-16.010400772094727,0.7451952695846558
1761400777929779000,7.107779052734375,3.640009641647339,-15.652243614196777,0.7884405255317688
1761400777939859700,7.117859619140625,3.8127663135528564,-14.37568473815918,0.4213046729564667
1761400777949940500,7.1279404296875,3.9175872802734375,-13.484068870544434,0.9119663834571838
1761400777960021500,7.138021484375,3.780968189239502,-12.852823257446289,1.0198551416397095
1761400777970098400,7.148098388671875,3.6394858360290527,-12.347047805786133,0.9416694641113281
1761400777980183300,7.158183349609375,3.7274727821350098,-11.457527160644531,0.8215852975845337
1761400777990264000,7.16826416015625,3.7437832355499268,-9.811139106750488,0.6849661469459534
1761400778000346000,7.17834619140625,3.8102972507476807,-8.241291046142578,0.5832874178886414
1761400778010387700,7.1883876953125,3.6779427528381348,-6.460977554321289,0.46806642413139343
1761400778020507100,7.198507080078125,3.3693900108337402,-4.423213005065918,0.3977367579936981
1761400778030571000,7.208571044921875,3.6190602779388428,-2.7591679096221924,0.7053168416023254
1761400778040665000,7.2186650390625,3.6489131450653076,-1.3822773694992065,0.9972598552703857
1761400778050749200,7.228749267578125,3.3879449367523193,-0.3455132246017456,1.1907413005828857
1761400778060830700,7.238830810546875,3.057620048522949,0.07743746042251587,1.4015806913375854
1761400778070911700,7.248911865234375,2.3133974075317383,-0.3791816830635071,1.456572413444519
1761400778080966700,7.258966552734375,1.1917139291763306,-0.9647884368896484,1.5702970027923584
1761400778091073000,7.269072998046875,0.44247838854789734,-0.9565584063529968,2.032078742980957
1761400778101149400,7.2791494140625,-0.05551555007696152,-1.0330979824066162,2.0841526985168457
1761400778111235300,7.2892353515625,-0.5200654864311218,-1.2043582201004028,1.78876793384552
1761400778121315800,7.29931591796875,-0.8887725472450256,-1.1712883710861206,1.3748703002929688
1761400778131395600,7.3093955078125,-1.1421838998794556,-0.7728782296180725,1.021650791168213
1761400778141476900,7.319476806640625,-1.3851205110549927,-0.4903624355792999,0.72132807970047
1761400778151557600,7.3295576171875,-1.6699557304382324,-0.2966565489768982,0.4248211681842804
1761400778161613600,7.339613525390625,-1.7205332517623901,-0.20268413424491882,0.3595043420791626
1761400778171730400,7.34973046875,-1.65155029296875,-0.41846156120300293,0.4885667860507965
1761400778181801000,7.359801025390625,-1.6904560327529907,-0.9153332114219666,0.5456535220146179
1761400778191855900,7.36985595703125,-1.7874212265014648,-1.5212159156799316,0.35501521825790405
1761400778201962000,7.3799619140625,-1.7732805013656616,-2.0085856914520264,0.024016836658120155
1761400778212043300,7.390043212890625,-1.6635212898254395,-2.3009026050567627,-0.3809025287628174
1761400778222123500,7.40012353515625,-1.5275006294250488,-2.5730185508728027,-0.7710825800895691
1761400778232200700,7.41020068359375,-1.41721773147583,-2.718466281890869,-1.0745476484298706
1761400778242285300,7.420285400390625,-1.3681366443634033,-2.6408045291900635,-1.2039093971252441
1761400778252366800,7.430366943359375,-1.5855600833892822,-2.0423288345336914,-1.0659434795379639
1761400778262421500,7.44042138671875,-1.9779846668243408,-0.8619874119758606,-0.6479308605194092
1761400778272528000,7.45052783203125,-2.194136142730713,0.22378304600715637,-0.061875149607658386
1761400778282609000,7.46060888671875,-2.321627378463745,0.5879261493682861,0.3242647051811218
1761400778292685600,7.470685546875,-2.381706953048706,0.38890814781188965,0.8649053573608398
1761400778302770400,7.4807705078125,-2.508674383163452,0.24420857429504395,1.4853029251098633
1761400778312826600,7.49082666015625,-2.5043349266052246,0.30877721309661865,2.092756748199463
1761400778322894300,7.500894287109375,-2.629880905151367,0.07077858597040176,2.441636800765991
1761400778333013000,7.511012939453125,-2.5020904541015625,-0.9911994934082031,1.993696689605713
1761400778343094000,7.521093994140625,-2.069862127304077,-2.164882183074951,1.129913568496704
1761400778353174500,7.531174560546875,-1.5271265506744385,-3.022829294204712,0.6453869938850403
1761400778363251700,7.541251708984375,-0.8070704340934753,-3.76869797706604,0.2670283019542694
1761400778373336000,7.551336181640625,0.11896190047264099,-4.994454383850098,-0.3125929534435272
1761400778383417900,7.56141796875,0.8872761726379395,-6.586299419403076,-0.8323591947555542
1761400778393498000,7.571498046875,1.3313257694244385,-9.156773567199707,-1.3174842596054077
1761400778403579100,7.5815791015625,1.7111808061599731,-10.601076126098633,-1.3162871599197388
1761400778413635800,7.5916357421875,2.4309377670288086,-11.360711097717285,-0.6024410128593445
1761400778423737600,7.601737548828125,3.1688756942749023,-12.155735969543457,0.29239189624786377
1761400778433821400,7.611821533203125,3.931279182434082,-12.684106826782227,0.9154828786849976
1761400778443877600,7.621877685546875,4.856264114379883,-13.220033645629883,1.3120225667953491
1761400778453958400,7.63195849609375,5.497012138366699,-13.937994956970215,0.9367313981056213
1761400778474145800,7.652145751953125,4.976572513580322,-16.567951202392578,-1.361253261566162
1761400778484222500,7.662222412109375,4.905419826507568,-17.25478744506836,-1.5838392972946167
1761400778494307300,7.672307373046875,5.388749599456787,-17.2410945892334,-0.8983493447303772
1761400778504362000,7.682362060546875,5.798457145690918,-17.147197723388672,-0.06569091230630875
1761400778514469000,7.69246923828125,5.630264759063721,-17.212141036987305,0.5672761797904968
1761400778524549000,7.702549072265625,5.662810802459717,-16.809091567993164,1.523909330368042
1761400778534631000,7.712630859375,5.768828868865967,-16.586580276489258,2.3336732387542725
1761400778544711000,7.7227109375,5.680767059326172,-16.55523109436035,3.049689292907715
1761400778554792700,7.732792724609375,5.633556365966797,-16.644939422607422,3.3809869289398193
1761400778564872700,7.742872802734375,5.579836845397949,-16.873210906982422,3.169698476791382
1761400778574953500,7.752953369140625,5.293056011199951,-17.13275718688965,2.8167035579681396
1761400778585035300,7.76303515625,4.90803861618042,-17.06138038635254,2.424877405166626
1761400778595115300,7.773115234375,4.254870414733887,-17.209447860717773,1.859845757484436
1761400778605196500,7.783196533203125,3.396923303604126,-18.36704444885254,1.1888707876205444
1761400778615277600,7.793277587890625,2.4221091270446777,-19.764360427856445,0.3629460036754608
1761400778625358300,7.8033583984375,1.6514005661010742,-20.95876693725586,-0.2784007787704468
1761400778635439000,7.813439208984375,0.9404723644256592,-22.06907844543457,-0.784849226474762
1761400778645519400,7.823519287109375,0.14821605384349823,-22.689476013183594,-1.1938836574554443
1761400778655574800,7.83357470703125,-0.4990414083003998,-22.994136810302734,-1.1673229932785034
1761400778665681200,7.84368115234375,-1.163806438446045,-23.348180770874023,-0.9808745384216309
1761400778675762200,7.85376220703125,-1.551068663597107,-22.972888946533203,-0.6456114649772644
1761400778685843500,7.863843505859375,-1.3292309045791626,-22.356008529663086,-0.34027591347694397
1761400778695923700,7.873923828125,-1.1928361654281616,-21.752668380737305,-0.35187283158302307
1761400778706004700,7.884004638671875,-1.2015899419784546,-20.89217758178711,-0.3173065483570099
1761400778716086300,7.894086181640625,-1.215132236480713,-20.28891372680664,0.031199440360069275
1761400778726166800,7.904166748046875,-1.2140847444534302,-19.728670120239258,0.45646950602531433
1761400778736263400,7.914263427734375,-1.1190648078918457,-18.951004028320312,0.5285200476646423
1761400778746325000,7.924324951171875,-0.7968202829360962,-19.430742263793945,1.007659673690796
1761400778756408800,7.934408935546875,-0.5491700172424316,-20.038570404052734,0.9424176216125488
1761400778766460200,7.944460205078125,-0.2025344967842102,-19.75665283203125,0.9252093434333801
1761400778776570600,7.954570556640625,0.43768998980522156,-19.412113189697266,0.932691216468811
1761400778786651600,7.964651611328125,0.9970353841781616,-18.852392196655273,0.7824550271034241
1761400778796732400,7.974732421875,1.3842226266860962,-18.040908813476562,0.7986159324645996
1761400778806813200,7.984813232421875,1.7506103515625,-17.45792007446289,0.7279121279716492
1761400778816894000,7.99489404296875,2.1016602516174316,-17.129241943359375,0.5254524350166321
1761400778826975000,8.00497509765625,2.2813000679016113,-17.11958885192871,0.5785738229751587
1761400778837055500,8.015055419921875,2.2625954151153564,-17.4235782623291,0.685639500617981
1761400778847136500,8.025136474609376,2.229525566101074,-17.465625762939453,0.6400748491287231
1761400778857192000,8.03519189453125,2.3529765605926514,-17.180940628051758,0.43694180250167847
1761400778867298300,8.04529833984375,2.5674071311950684,-16.738014221191406,0.10863690078258514
1761400778877358000,8.055358154296876,2.9402294158935547,-16.060081481933594,-0.06000468134880066
1761400778887456800,8.065456787109374,3.0446014404296875,-15.384840965270996,-0.5328595042228699
1761400778897540900,8.075540771484375,3.058966875076294,-14.89747142791748,-0.9151087999343872
1761400778907596500,8.085596435546876,3.2388312816619873,-14.44504165649414,-1.1176432371139526
1761400778917702700,8.09570263671875,3.346794605255127,-13.695581436157227,-1.4486416578292847
1761400778927783400,8.105783447265624,3.4584243297576904,-12.523919105529785,-1.7883189916610718
1761400778937864400,8.115864501953125,3.631255865097046,-11.241600036621094,-2.0229508876800537
1761400778947945500,8.125945556640625,3.5090765953063965,-9.94162368774414,-2.280402183532715
1761400778958022000,8.13602197265625,3.0796916484832764,-8.419360160827637,-2.2189011573791504
1761400778968103000,8.14610302734375,2.5445127487182617,-6.725836277008057,-1.9451392889022827
1761400778978184400,8.156184326171875,2.3226749897003174,-4.832695960998535,-1.329604983329773
1761400778988268800,8.166268798828124,2.027439832687378,-2.7939586639404297,-0.6001964211463928
1761400778998345700,8.176345703125,1.1700164079666138,-1.0275614261627197,-0.22019173204898834
1761400779008415000,8.1864150390625,0.10766425728797913,-0.12614449858665466,0.07392098009586334
1761400779018485800,8.19648583984375,-0.8374468684196472,-0.21196167171001434,0.5845593214035034
1761400779028566500,8.20656640625,-1.6330699920654297,-1.102829098701477,1.3350666761398315
1761400779038648000,8.21664794921875,-2.2887072563171387,-1.9042881727218628,1.8107646703720093
1761400779048728600,8.226728515625,-2.945765972137451,-2.5177276134490967,1.6571617126464844
1761400779058815700,8.236815673828126,-3.154510259628296,-2.116100311279297,1.4485667943954468
1761400779068889000,8.24688916015625,-2.991330623626709,-1.3597569465637207,1.282094955444336
1761400779078980000,8.25697998046875,-2.9309518337249756,-1.0886136293411255,1.2894272804260254
1761400779089060900,8.267060791015625,-2.8685529232025146,-1.1327567100524902,1.3542951345443726
1761400779099145000,8.27714501953125,-2.8576292991638184,-1.3329718112945557,1.2909984588623047
1761400779109239000,8.287239013671876,-2.921375036239624,-1.5918447971343994,1.1596165895462036
1761400779119318300,8.297318359375,-2.8803741931915283,-1.875333309173584,1.0861445665359497
1761400779129400600,8.307400634765624,-2.758344888687134,-1.8800468444824219,1.174281120300293
1761400779139481000,8.317481201171875,-2.7275943756103516,-1.3467384576797485,1.395969271659851
1761400779149560000,8.32756005859375,-2.742932081222534,-0.5543324947357178,1.5575778484344482
1761400779159643100,8.33764306640625,-2.8482022285461426,0.455422043800354,1.70975923538208
1761400779169724200,8.34772412109375,-2.7997944355010986,1.4101099967956543,1.9460370540618896
1761400779179804700,8.3578046875,-2.707393169403076,1.6847697496414185,2.0463690757751465
1761400779189883400,8.36788330078125,-2.6961703300476074,1.1281179189682007,1.4663736820220947
1761400779199966700,8.377966796875,-2.7234792709350586,0.9673323035240173,0.7758709788322449
1761400779210047500,8.388047607421875,-2.8377275466918945,1.3649194240570068,0.5754314064979553
1761400779220116700,8.39811669921875,-2.791938543319702,1.6779613494873047,0.7897872924804688
1761400779230209300,8.408209228515625,-2.4215104579925537,1.5055787563323975,1.3040916919708252
1761400779240289800,8.418289794921876,-1.792883038520813,0.9955390095710754,1.830666422843933
1761400779250366200,8.4283662109375,-1.092653751373291,0.3222445845603943,2.2119431495666504
1761400779260458500,8.43845849609375,-0.34326866269111633,-0.47225627303123474,2.268206834793091
1761400779270509600,8.448509521484375,0.35045126080513,-1.1522095203399658,2.2019922733306885
1761400779280598800,8.458598876953126,0.8799439668655396,-1.4368202686309814,2.1594202518463135
1761400779290692900,8.46869287109375,1.0500071048736572,-2.1642086505889893,1.9733458757400513
1761400779300775200,8.478775146484375,1.1393407583236694,-3.008164882659912,1.4668974876403809
1761400779310847700,8.48884765625,1.3857190608978271,-3.3807623386383057,0.9602245092391968
1761400779320932900,8.498932861328125,1.622146487236023,-3.671433448791504,0.6261585354804993
1761400779331011600,8.509011474609375,1.9095255136489868,-3.874267339706421,0.4242226183414459
1761400779341101800,8.519101806640625,2.2804770469665527,-4.1944169998168945,0.11499650031328201
1761400779351179800,8.5291796875,2.7298388481140137,-4.778602123260498,-0.2124105840921402
1761400779361260300,8.53926025390625,3.484386444091797,-5.497012138366699,-0.29201778769493103
1761400779371341000,8.549341064453126,4.046500205993652,-6.544849395751953,-0.5425859689712524
1761400779381417700,8.559417724609375,4.05158805847168,-7.929371356964111,-1.1228058338165283
1761400779391482400,8.569482421875,3.7922658920288086,-8.824728012084961,-1.3527988195419312
1761400779401583600,8.57958349609375,3.709815502166748,-9.58249282836914,-0.8732850551605225
1761400779411664600,8.58966455078125,3.8349874019622803,-10.500070571899414,-0.09202712774276733
1761400779421745200,8.5997451171875,3.9099557399749756,-11.424606323242188,0.5526117086410522
1761400779431826200,8.609826171875,4.325649261474609,-12.083386421203613,1.1240776777267456
1761400779441894400,8.619894287109375,5.053112506866455,-12.596419334411621,1.32047700881958
1761400779451977000,8.62997705078125,5.519532680511475,-13.297994613647461,0.8462006449699402
1761400779462068700,8.64006884765625,5.789927959442139,-14.016704559326172,0.5162497162818909
1761400779472149500,8.6501494140625,5.609165668487549,-14.888867378234863,0.09442132711410522
1761400779482218000,8.660218017578124,5.0872297286987305,-15.265728950500488,-0.25999534130096436
1761400779492310800,8.670310791015625,4.826112270355225,-15.508216857910156,-0.6127659678459167
1761400779502392600,8.680392578125,4.819602966308594,-16.36833381652832,-0.846051037311554
1761400779512477700,8.690477783203125,4.942305564880371,-17.355419158935547,-0.9585785269737244
1761400779522565400,8.7005654296875,5.040243625640869,-18.17677879333496,-0.9272294044494629
1761400779532634600,8.710634521484375,5.00590181350708,-18.935516357421875,-0.6599018573760986
1761400779542698800,8.72069873046875,4.905943870544434,-20.119375228881836,-0.6105214357376099
1761400779552796200,8.730796142578125,4.866738796234131,-20.80695915222168,-0.7255927324295044
1761400779562877400,8.74087744140625,4.699368953704834,-20.93370246887207,-0.7579144835472107
1761400779572935700,8.750935791015625,4.582352638244629,-21.120750427246094,-0.4604349136352539
1761400779583038500,8.76103857421875,4.582651615142822,-21.028648376464844,-0.07302315533161163
1761400779593120000,8.7711201171875,4.565144062042236,-20.759000778198242,-0.17051205039024353
1761400779603187700,8.781187744140626,4.283301830291748,-20.481647491455078,-0.34326866269111633
1761400779613269200,8.791269287109374,3.9194579124450684,-20.520553588867188,-0.3447650372982025
1761400779623341000,8.801341064453124,3.3399860858917236,-20.80965232849121,-0.7564181089401245
1761400779633443300,8.811443359375,2.8085482120513916,-20.731168746948242,-1.293691873550415
1761400779643509200,8.82150927734375,2.4426841735839844,-21.353212356567383,-1.3694086074829102
1761400779653592300,8.83159228515625,2.012925148010254,-22.292112350463867,-1.1545289754867554
1761400779673764000,8.85176416015625,1.3081319332122803,-23.35446548461914,-0.8863035440444946
1761400779683834600,8.861834716796874,1.2116905450820923,-22.590639114379883,-1.187150001525879
1761400779693921300,8.87192138671875,1.0800094604492188,-21.78162384033203,-1.4938322305679321
1761400779704009700,8.882009765625,1.0528502464294434,-21.154043197631836,-1.0807576179504395
1761400779714090000,8.892090087890624,1.0800094604492188,-20.365753173828125,-0.5204395651817322
1761400779724172800,8.9021728515625,1.1601403951644897,-19.967418670654297,-0.15068507194519043
1761400779734251500,8.91225146484375,1.2678046226501465,-19.49179458618164,0.2866308391094208
1761400779744327700,8.92232763671875,1.3569886684417725,-19.07707405090332,0.6483797430992126
1761400779754413600,8.93241357421875,1.6295535564422607,-18.82388687133789,0.9595511555671692
1761400779764491300,8.9424912109375,1.9571850299835205,-18.767772674560547,1.2706477642059326
1761400779774562600,8.9525625,2.2514474391937256,-18.744579315185547,1.44033682346344
1761400779784658700,8.96265869140625,2.367192029953003,-18.527679443359375,1.4027029275894165
1761400779794736400,8.972736328125,2.448071241378784,-18.04517364501953,1.1861772537231445
1761400779804818000,8.98281787109375,2.629955768585205,-17.80545425415039,0.9627683758735657
1761400779814898700,8.992898681640625,2.8157308101654053,-17.608381271362305,0.7329249978065491
1761400779824979500,9.0029794921875,2.860846519470215,-17.361404418945312,0.46163201332092285
1761400779835058200,9.01305810546875,2.9611785411834717,-17.021127700805664,0.21054011583328247
1761400779845141500,9.0231416015625,3.199252128601074,-16.49260711669922,0.005237316247075796
1761400779865291800,9.043291748046874,3.5032408237457275,-15.080477714538574,-0.2057517021894455
1761400779875384000,9.053384033203125,3.6292357444763184,-13.853898048400879,-0.3612251877784729
1761400779885466600,9.063466552734376,3.6947021484375,-12.331933975219727,-0.5366752743721008
1761400779895541800,9.073541748046875,3.7020344734191895,-10.564265251159668,-0.5348048210144043
1761400779905624300,9.083624267578125,3.650933027267456,-8.458415031433105,-0.42945992946624756
1761400779915708700,9.093708740234375,3.507655143737793,-6.108431339263916,-0.37663784623146057
1761400779925774800,9.10377490234375,3.753434896469116,-3.9612066745758057,-0.24188919365406036
1761400779935869200,9.113869140625,3.3465702533721924,-2.2148609161376953,-0.3229927718639374
1761400779945949700,9.12394970703125,2.3126492500305176,-0.5948842763900757,-0.6662614345550537
1761400779956019200,9.134019287109375,1.3308768272399902,0.5884498953819275,-0.6586298942565918
1761400779966120200,9.1441201171875,0.2611176371574402,0.5985504388809204,-0.27480944991111755
1761400779976192300,9.154192138671876,-0.641047477722168,-0.5007622241973877,0.09120412170886993
1761400779986269400,9.16426953125,-1.3593828678131104,-1.6947954893112183,0.31940147280693054
1761400779996353500,9.174353515625,-1.8709938526153564,-2.1974282264709473,0.18136078119277954
1761400780006422000,9.184422119140624,-2.023399829864502,-1.8908956050872803,-0.14410100877285004
1761400780016513800,9.194513671875,-1.9617490768432617,-1.4191631078720093,-0.33421558141708374
1761400780026583000,9.2045830078125,-1.829843521118164,-1.1249006986618042,-0.24271219968795776
1761400780036677400,9.214677490234376,-1.783530592918396,-0.9338134527206421,0.05820902809500694
1761400780046758100,9.224758056640624,-1.800140380859375,-0.610745906829834,0.4074631929397583
1761400780056838100,9.234838134765624,-1.9382559061050415,-0.2662801146507263,0.7744494080543518
1761400780066907100,9.2449072265625,-2.1522376537323,0.012868833728134632,1.033172845840454
1761400780076975600,9.2549755859375,-2.176628589630127,0.06606500595808029,1.3588590621948242
1761400780087082000,9.26508203125,-2.1407904624938965,0.12075755000114441,1.6941969394683838
1761400780097162200,9.275162353515626,-2.2049100399017334,0.04504092037677765,1.8437597751617432
1761400780107243300,9.2852431640625,-2.1453542709350586,0.051026422530412674,1.7987936735153198
1761400780117311000,9.29531103515625,-1.914912462234497,0.31708207726478577,1.8127847909927368
1761400780127405000,9.305405029296875,-1.7032500505447388,0.899471640586853,1.7921347618103027
1761400780137485800,9.31548583984375,-1.5850363969802856,1.5534628629684448,1.6722750663757324
1761400780147543600,9.32554345703125,-1.4840309619903564,2.374075412750244,1.6709283590316772
1761400780157649200,9.335649169921876,-1.67661452293396,3.457526445388794,1.330727219581604
1761400780167728400,9.345728271484376,-1.8348562717437744,4.4825439453125,1.2087725400924683
1761400780177795600,9.355795654296875,-1.8773534297943115,4.8197526931762695,1.2856862545013428
1761400780187890000,9.365889892578124,-1.8296937942504883,4.441917419433594,1.6724995374679565
1761400780197954600,9.37595458984375,-1.7487398386001587,2.807126760482788,1.8136078119277954
1761400780208039000,9.386038818359374,-1.2449848651885986,0.8518868684768677,1.6926257610321045
1761400780218120700,9.39612060546875,-0.8792705535888672,-0.2858078181743622,1.7604864835739136
1761400780228213500,9.406213623046876,-0.721477746963501,-0.5371990203857422,1.8873043060302734
1761400780238294000,9.4162939453125,-0.4718073606491089,-0.4017769694328308,1.7862988710403442
1761400780248386300,9.42638623046875,-0.2511667311191559,-0.1355716735124588,1.281272053718567
1761400780258443000,9.436443115234376,-0.23276129364967346,0.10983400046825409,0.7576900124549866
1761400780268536800,9.446536865234375,-0.29545944929122925,-0.03770867735147476,0.41846156120300293
1761400780278603300,9.456603271484376,-0.12846387922763824,-0.47397711873054504,0.24353520572185516
1761400780288685800,9.466685791015625,0.27660512924194336,-1.2009913921356201,0.44247838854789734
1761400780298753800,9.47675390625,0.9174281358718872,-2.6065375804901123,0.7197569012641907
1761400780308847400,9.486847412109375,1.8341829776763916,-4.127304553985596,0.6878092288970947
1761400780318940700,9.496940673828124,2.6185832023620605,-5.760075092315674,0.3109469413757324
1761400780329022200,9.507022216796875,3.22102427482605,-8.80624771118164,-0.85487961769104
1761400780339101000,9.517100830078125,3.5147628784179688,-9.967809677124023,-1.8770540952682495
1761400780349183700,9.527183837890625,3.6064159870147705,-9.152359962463379,-1.9972879886627197
1761400780359242200,9.5372421875,3.7409400939941406,-8.732775688171387,-1.6128689050674438
1761400780369345300,9.54734521484375,4.061089992523193,-8.76801586151123,-2.025120496749878
1761400780379426000,9.557426025390624,4.522796630859375,-8.586878776550293,-2.401085138320923
1761400780389495800,9.567495849609376,4.687248229980469,-9.59715747833252,-2.456899881362915
1761400780399585800,9.577585693359374,4.708497047424316,-12.505364418029785,-2.511742115020752
1761400780409656600,9.587656494140624,4.749946594238281,-15.346159934997559,-2.673051357269287
1761400780419749400,9.597749267578125,4.569782733917236,-16.76457405090332,-2.974496364593506
1761400780429817600,9.607817626953125,4.513070106506348,-17.945663452148438,-2.7893946170806885
1761400780439899000,9.61789892578125,4.733710765838623,-18.488550186157227,-1.6365116834640503
1761400780449992200,9.6279921875,5.285499572753906,-17.581445693969727,0.03568856790661812
1761400780460060400,9.638060302734376,6.134842395782471,-15.862334251403809,0.6295254230499268
1761400780470151700,9.648151611328124,6.661118030548096,-15.386187553405762,0.5592705607414246
1761400780480234800,9.65823486328125,6.6833391189575195,-17.13260841369629,0.71998131275177
1761400780490315500,9.6683154296875,6.6630635261535645,-18.2067813873291,0.5333084464073181
1761400780500394500,9.67839453125,6.11172342300415,-17.29907989501953,-0.23784898221492767
1761400780510464800,9.68846484375,5.484592437744141,-16.352996826171875,-1.1368716955184937
1761400780520532700,9.69853271484375,5.388525009155273,-16.50644874572754,-1.8417396545410156
1761400780530609400,9.708609375,5.405882835388184,-17.37008285522461,-2.0329017639160156
1761400780540719900,9.718719970703125,5.336675643920898,-18.49648094177246,-1.7049708366394043
1761400780550791700,9.728791748046875,5.275922775268555,-19.956344604492188,-1.3213000297546387
1761400780560881700,9.738881591796876,5.214047431945801,-21.170578002929688,-0.9997288584709167
1761400780570962000,9.7489619140625,5.418976306915283,-21.430126190185547,-0.5062240362167358
1761400780581043000,9.75904296875,5.045480728149414,-21.9677734375,-0.47008654475212097
1761400780591123200,9.769123291015624,4.469151496887207,-22.64533233642578,-0.07070376724004745
1761400780601200600,9.77920068359375,3.4984524250030518,-23.367557525634766,-0.07496844232082367
1761400780611285800,9.78928564453125,2.321103811264038,-23.55729866027832,-0.40783730149269104
1761400780621366500,9.799366455078125,1.8046295642852783,-23.653366088867188,-0.6986579895019531
1761400780631448300,9.8094482421875,1.5735890865325928,-23.528043746948242,-1.3964929580688477
1761400780641528800,9.81952880859375,1.0783634185791016,-23.178192138671875,-1.9320459365844727
1761400780651609900,9.82960986328125,0.6970868110656738,-22.597373962402344,-2.1292684078216553
1761400780661685500,9.839685546875,0.5193921327590942,-22.024934768676758,-2.1070470809936523
1761400780671795000,9.849794921875,0.47143328189849854,-21.651288986206055,-1.921047568321228
1761400780681851400,9.859851318359375,0.8686463236808777,-21.227664947509766,-1.3287819623947144
1761400780691907300,9.8699072265625,1.4721348285675049,-21.58791732788086,-0.6281786561012268
1761400780702013000,9.880012939453126,2.1866543292999268,-21.880908966064453,-0.11806406825780869
1761400780712068900,9.89006884765625,2.9515268802642822,-21.736507415771484,0.40469491481781006
1761400780722171000,9.9001708984375,3.875913381576538,-21.050195693969727,0.5832874178886414
1761400780732255700,9.910255859375,4.432190895080566,-19.747150421142578,0.24690204858779907
1761400780742336300,9.920336181640625,4.7847371101379395,-18.419116973876953,-0.08319851011037827
1761400780752418000,9.93041796875,4.842123508453369,-17.27573585510254,-0.6828712224960327
1761400780762498000,9.940498046875,4.576591491699219,-16.88435935974121,-1.4532055854797363
1761400780772579800,9.950579833984374,4.096778392791748,-16.908226013183594,-2.1187188625335693
1761400780782635500,9.960635498046875,3.530400037765503,-17.152584075927734,-2.496628522872925
1761400780792735200,9.9707353515625,3.2579848766326904,-17.13485336303711,-2.6048166751861572
1761400780802822400,9.980822509765625,3.126004457473755,-17.127145767211914,-2.43819522857666
1761400780812878300,9.99087841796875,3.1956608295440674,-16.294113159179688,-2.2789058685302734
1761400780822983700,10.000983642578126,3.3611598014831543,-14.873977661132812,-1.988384485244751
1761400780833064200,10.011064208984376,3.6424787044525146,-13.238289833068848,-1.78876793384552
1761400780843145700,10.021145751953124,3.8274307250976562,-11.37208366394043,-1.6707038879394531
1761400780853222100,10.03122216796875,4.008866310119629,-9.116072654724121,-1.6673370599746704
1761400780863280600,10.04128076171875,4.0953569412231445,-6.844274520874023,-1.7935563325881958
1761400780873387300,10.05138720703125,3.693579912185669,-4.74343729019165,-1.9244143962860107
1761400780883468300,10.06146826171875,2.9081320762634277,-3.2235682010650635,-1.7225532531738281
1761400780893528800,10.07152880859375,2.019359588623047,-1.7243489027023315,-1.6606032848358154
1761400780903629800,10.0816298828125,1.3749451637268066,-0.8506897687911987,-1.40449857711792
1761400780913686800,10.091686767578125,0.5747580528259277,-0.09307458996772766,-1.384372353553772
1761400780923766300,10.101766357421875,-0.43103113770484924,0.278700053691864,-1.1106103658676147
1761400780933848000,10.11184814453125,-1.19059157371521,0.0157119482755661,-0.5944353938102722
1761400780943954200,10.1219541015625,-1.7233015298843384,-0.27465981245040894,-0.18667291104793549
1761400780954034400,10.132034423828125,-1.8935142755508423,-0.2684498727321625,0.13572131097316742
1761400780964115200,10.142115234375,-2.065971612930298,-0.3564367890357971,0.47569796442985535
1761400780974195000,10.15219482421875,-2.187776565551758,-0.7142950892448425,0.6970119476318359
1761400780984251400,10.16225146484375,-2.0622305870056152,-1.0892869234085083,0.7081599831581116
1761400780994357800,10.172357666015625,-2.1665279865264893,-1.4264204502105713,0.9770587682723999
1761400781004439800,10.182439697265625,-2.6082582473754883,-1.484629511833191,1.438840389251709
1761400781014519800,10.192519775390625,-3.0957775115966797,-1.051877498626709,1.8123358488082886
1761400781024600300,10.202600341796876,-3.239055633544922,-0.458040714263916,1.87009596824646
1761400781034682400,10.212682373046874,-2.7840824127197266,0.05588964745402336,1.6992098093032837
1761400781044736500,10.222736572265624,-2.5591771602630615,-0.08147767931222916,1.9696049690246582
1761400781054821400,10.2328212890625,-2.6239702701568604,-0.4397101104259491,2.271124839782715
1761400781064924000,10.242923828125,-2.5353848934173584,-0.7449707984924316,2.1805191040039062
1761400781074979600,10.2529794921875,-2.3797616958618164,-0.7223755717277527,1.7869722843170166
1761400781085060400,10.263060302734376,-2.239476442337036,-0.2867804765701294,1.3112742900848389
1761400781095141000,10.27314111328125,-2.37654447555542,0.6749404072761536,0.924984872341156
1761400781105221600,10.2832216796875,-2.6675896644592285,1.8852094411849976,0.7204302549362183
1761400781115302400,10.293302490234375,-2.7678468227386475,2.771138906478882,0.7267150282859802
1761400781125383700,10.3033837890625,-2.3172879219055176,3.096226453781128,0.7939023375511169
1761400781135489800,10.31348974609375,-1.7093851566314697,2.6449193954467773,0.8837596774101257
1761400781145570300,10.3235703125,-1.1724854707717896,1.2639139890670776,0.6878840923309326
1761400781155651300,10.3336513671875,-0.5868787169456482,0.46095865964889526,0.6630442142486572
1761400781165736000,10.34373583984375,-0.03486556187272072,-0.17208324372768402,0.8120084404945374
1761400781175813000,10.353813232421874,0.41270050406455994,-1.2386252880096436,0.8156746029853821
1761400781185893600,10.3638935546875,0.9649381041526794,-2.2192752361297607,0.788739800453186
1761400781195949600,10.373949462890625,1.4558991193771362,-3.074753522872925,0.9285761713981628
1761400781206056200,10.38405615234375,1.9313726425170898,-4.115258693695068,1.1248258352279663
1761400781216136400,10.394136474609375,2.4811410903930664,-5.12733268737793,1.3798831701278687
1761400781226218200,10.40421826171875,3.136404275894165,-5.933505058288574,1.4223802089691162
1761400781236279300,10.414279296875,3.663727045059204,-6.593257427215576,0.848520040512085
1761400781246353700,10.424353759765625,3.9710826873779297,-7.264456748962402,0.04324526712298393
1761400781256460000,10.4344599609375,4.286967754364014,-8.024840354919434,-0.22625206410884857
1761400781266516200,10.44451611328125,4.566939830780029,-8.910171508789062,0.11514613777399063
1761400781276621600,10.45462158203125,4.923226833343506,-9.693224906921387,0.6373065710067749
1761400781286677200,10.46467724609375,5.177386283874512,-10.43228530883789,1.1103858947753906
1761400781296783400,10.474783447265626,5.554622650146484,-11.194015502929688,1.5918447971343994
1761400781306863600,10.484863525390624,6.107982635498047,-12.262652397155762,1.9159599542617798
1761400781316945000,10.49494482421875,6.294206619262695,-13.186439514160156,1.9583821296691895
1761400781327025700,10.505025634765625,6.4240922927856445,-13.007174491882324,2.0319290161132812
1761400781337106700,10.515106689453125,6.434042930603027,-12.964227676391602,1.1688193082809448
1761400781347187200,10.525187255859375,6.248193264007568,-12.8231201171875,-0.30533552169799805
1761400781357268500,10.5352685546875,6.145990371704102,-12.96153450012207,-1.2360066175460815
1761400781367326200,10.545326171875,6.052093029022217,-14.095338821411133,-1.0368390083312988
1761400781377414700,10.55541455078125,6.083217620849609,-15.226823806762695,-0.22161328792572021
1761400781387510800,10.5655107421875,6.065859794616699,-16.44390106201172,0.598026692867279
1761400781397592600,10.575592529296875,6.221034049987793,-17.045669555664062,0.7855974435806274
1761400781407672800,10.5856728515625,6.435464382171631,-18.130765914916992,0.661547839641571
1761400781417753600,10.595753662109376,6.456114292144775,-18.758270263671875,0.4743511974811554
1761400781427834400,10.60583447265625,6.128183841705322,-18.508750915527344,0.3651905655860901
1761400781437916400,10.61591650390625,5.4077534675598145,-18.48712730407715,0.34656068682670593
1761400781447995600,10.62599560546875,4.545092582702637,-19.56773567199707,0.34334349632263184
1761400781458053400,10.636053466796875,4.229581832885742,-20.723087310791016,0.29291561245918274
1761400781468154600,10.646154541015624,4.399420261383057,-21.041141510009766,-0.06494271755218506
1761400781478239000,10.656239013671875,4.622904300689697,-20.904823303222656,-0.5348796248435974
1761400781488315600,10.666315673828125,4.541276931762695,-20.867563247680664,-0.720130980014801
1761400781498400300,10.676400146484376,4.102838516235352,-20.796035766601562,-0.8952817916870117
1761400781508459000,10.686458984375,3.15278959274292,-21.46132469177246,-0.9752631187438965
1761400781518561800,10.696561767578125,2.317662000656128,-22.329896926879883,-0.4793640673160553
1761400781528610800,10.70661083984375,1.9151369333267212,-22.768184661865234,0.08215104788541794
1761400781538723600,10.7167236328125,1.9728221893310547,-22.526744842529297,0.5515642166137695
1761400781548805000,10.72680517578125,2.4800188541412354,-21.757831573486328,0.9207950234413147
1761400781558846500,10.736846435546875,2.880449056625366,-21.01009178161621,1.0807576179504395
1761400781568967000,10.746966796875,2.8446109294891357,-20.13471221923828,1.135001301765442
1761400781579047000,10.757046875,2.6950480937957764,-19.39722442626953,1.0828524827957153
1761400781589128700,10.767128662109375,2.4630351066589355,-19.478851318359375,0.9744400978088379
1761400781599183600,10.77718359375,2.259902000427246,-19.888933181762695,1.048435926437378
1761400781609290800,10.787290771484376,2.2794296741485596,-20.421567916870117,0.99112468957901
1761400781619367000,10.797366943359375,2.484433174133301,-20.317569732666016,0.6879588961601257
1761400781629451000,10.807450927734376,2.7677719593048096,-19.5170841217041,0.28640636801719666
1761400781639532500,10.817532470703124,3.3093104362487793,-18.963573455810547,0.1322796493768692
1761400781649613600,10.827613525390625,3.7707180976867676,-18.338163375854492,0.10093056410551071
1761400781659694000,10.837694091796875,4.00497579574585,-17.529895782470703,0.1437269151210785
1761400781669774600,10.847774658203125,4.146757125854492,-16.75567054748535,0.18577508628368378
1761400781679833300,10.857833251953124,4.331709384918213,-15.863382339477539,0.16901567578315735
1761400781689937000,10.86793701171875,4.468926906585693,-14.91909408569336,0.04189852997660637
1761400781700017200,10.87801708984375,4.4779052734375,-14.09234619140625,-0.06666355580091476
1761400781710094300,10.88809423828125,4.360065937042236,-13.350218772888184,-0.19378070533275604
1761400781720179000,10.898178955078125,4.231751441955566,-12.82551383972168,-0.32875382900238037
1761400781730260700,10.9082607421875,4.191199779510498,-12.08383560180664,-0.5487959384918213
1761400781740340500,10.918340576171875,4.015151023864746,-10.95496940612793,-0.9416694641113281
1761400781750417400,10.92841748046875,3.745878219604492,-9.953594207763672,-1.208922266960144
1761400781760467000,10.938467041015626,3.2953941822052,-8.74609375,-1.15011465549469
1761400781770583000,10.9485830078125,2.901622772216797,-7.186420917510986,-1.0919055938720703
1761400781780665000,10.9586650390625,2.163759708404541,-5.74481201171875,-1.1201871633529663
1761400781790720000,10.968719970703125,1.3536218404769897,-4.520925998687744,-0.9350106120109558
1761400781800826600,10.97882666015625,0.5018097162246704,-3.331756114959717,-0.604461133480072
1761400781810892500,10.988892578125,-0.3125181496143341,-2.3079357147216797,-0.267177939414978
1761400781820987400,10.9989873046875,-1.0702829360961914,-2.0817582607269287,-0.14170680940151215
1761400781831068200,11.009068115234374,-1.8107646703720093,-2.222791910171509,0.13444939255714417
1761400781841149200,11.019149169921874,-2.3541736602783203,-2.1979520320892334,0.5259761810302734
1761400781851230000,11.02922998046875,-2.589703321456909,-2.040907382965088,0.6208464503288269
1761400781861310700,11.039310791015625,-2.572943925857544,-1.9255367517471313,0.46671968698501587
1761400781871368000,11.049367919921876,-2.4367735385894775,-1.8775030374526978,0.36234745383262634
1761400781881468700,11.05946875,-2.421884775161743,-1.4559738636016846,0.5638344883918762
1761400781891530200,11.0695302734375,-2.6541969776153564,-0.6015431880950928,0.9409961104393005
1761400781901634000,11.079634033203124,-2.675969362258911,0.045265376567840576,1.7336264848709106
1761400781911697200,11.089697265625,-2.6461164951324463,1.7253963947296143,1.9151369333267212
1761400781921795800,11.0997958984375,-2.5185506343841553,2.7662007808685303,2.2501754760742188
1761400781931877600,11.109877685546875,-2.323423147201538,2.956390142440796,2.5951650142669678
1761400781952039200,11.1300390625,-1.6826748847961426,2.6232221126556396,2.2810757160186768
1761400781962119200,11.140119140625,-1.4850784540176392,2.64866042137146,1.2662334442138672
1761400781972200700,11.15020068359375,-2.0703110694885254,2.2071547508239746,0.5921908020973206
1761400781982286000,11.1602861328125,-2.1716158390045166,1.7860745191574097,0.2668786644935608
1761400781992363000,11.170363037109375,-2.1983261108398438,1.7833061218261719,0.0975637212395668
1761400782002439400,11.180439453125,-2.206331729888916,1.9830724000930786,-0.1453729271888733
1761400782012498700,11.190498779296876,-1.810615062713623,2.1464767456054688,-0.3957914710044861
1761400782022605000,11.20060498046875,-1.1940332651138306,1.820491075515747,-0.44921210408210754
1761400782032685000,11.21068505859375,-0.6408230662345886,0.9597756266593933,-0.160261869430542
1761400782042766000,11.22076611328125,-0.10220248252153397,0.34005147218704224,0.07900865375995636
1761400782052802600,11.230802490234375,0.1438765525817871,-0.14021043479442596,0.34274494647979736
1761400782062927600,11.240927734375,0.17043723165988922,-1.131185531616211,0.8775497674942017
1761400782073004300,11.25100439453125,0.8149263858795166,-1.5527145862579346,1.0542716979980469
1761400782083066000,11.261066162109374,1.0560673475265503,-1.305662989616394,0.7543231844902039
1761400782093144800,11.271144775390624,0.6904278993606567,-1.6839468479156494,0.21772271394729614
1761400782103226400,11.281226318359375,0.26007014513015747,-2.7533318996429443,-0.3652653992176056
1761400782113333000,11.2913330078125,0.20268413424491882,-4.14683198928833,-0.680701494216919
1761400782123412700,11.301412841796875,0.5271732807159424,-6.304905891418457,-0.26979660987854004
1761400782133489700,11.31148974609375,1.0678887367248535,-7.908123016357422,-0.5202151536941528
1761400782143574800,11.32157470703125,1.4443769454956055,-8.201711654663086,-1.7039234638214111
1761400782153630200,11.331630126953126,1.850867509841919,-7.578995227813721,-1.7013795375823975
1761400782163737000,11.341737060546874,2.589777946472168,-6.822277545928955,-0.3405003845691681
1761400782173817900,11.35181787109375,3.507580280303955,-7.566350936889648,0.6962637901306152
1761400782183899000,11.36189892578125,4.1274542808532715,-8.472332000732422,1.1867010593414307
1761400782193955600,11.37195556640625,4.97200870513916,-8.846051216125488,1.707215428352356
1761400782204025600,11.382025634765625,5.436558723449707,-9.937358856201172,2.1593453884124756
1761400782214141000,11.392140869140626,5.815889835357666,-10.243816375732422,1.6546926498413086
1761400782224221200,11.40222119140625,6.33333683013916,-10.442609786987305,0.6868366003036499
1761400782234303000,11.412302978515624,6.250138282775879,-10.713229179382324,-0.5425859689712524
1761400782244383000,11.422383056640625,5.55941104888916,-11.157504081726074,-1.3940238952636719
1761400782254464500,11.432464599609375,5.017049789428711,-12.256965637207031,-1.73519766330719
1761400782264545000,11.442544921875,4.558559894561768,-13.788805961608887,-1.5997756719589233
1761400782274625800,11.452625732421875,4.381239414215088,-14.634857177734375,-1.0077344179153442
1761400782284707000,11.46270703125,4.658293724060059,-15.079954147338867,-0.5122095346450806
1761400782294762200,11.47276220703125,5.038747310638428,-15.753847122192383,-0.21211130917072296
1761400782304868900,11.482868896484375,5.24030876159668,-16.028507232666016,0.04653729498386383
1761400782314922500,11.492922607421875,4.79356575012207,-16.3057861328125,0.1910123974084854
1761400782325007000,11.503007080078126,4.3243021965026855,-17.20443344116211,0.4239981472492218
1761400782335085600,11.51308544921875,4.29946231842041,-18.232370376586914,0.6100724935531616
1761400782345191400,11.52319140625,4.41737699508667,-19.64105796813965,0.2828150689601898
1761400782355272400,11.5332724609375,4.1554365158081055,-20.220230102539062,-0.12487258017063141
1761400782365353200,11.543353271484374,4.0527849197387695,-20.73139190673828,-0.5134814381599426
1761400782375406600,11.553406494140624,3.993154287338257,-21.302335739135742,-1.157596468925476
1761400782385515800,11.563515869140625,3.7015106678009033,-21.91682243347168,-1.2467057704925537
1761400782395596000,11.573595947265625,3.358915328979492,-22.612337112426758,-1.2132617235183716
1761400782405677600,11.583677490234376,3.3104326725006104,-23.39823341369629,-1.002646803855896
1761400782415757300,11.59375732421875,3.727921724319458,-23.927127838134766,-0.7023240923881531
1761400782425818000,11.603818115234375,4.103811264038086,-24.076541900634766,-0.7306056022644043
1761400782435893800,11.613893798828125,4.15528678894043,-23.932065963745117,-0.7802852988243103
1761400782445985800,11.62398583984375,4.224493980407715,-23.68381690979004,-0.5455787181854248
1761400782456079000,11.6340791015625,4.473042011260986,-23.447914123535156,-0.011447276920080185
1761400782466162000,11.644161865234375,4.805237770080566,-22.74139976501465,0.43207859992980957
1761400782476230000,11.65422998046875,4.933776378631592,-21.97705078125,0.6492775678634644
1761400782486335700,11.664335693359375,4.83673620223999,-20.884920120239258,0.9041104316711426
1761400782496404500,11.674404541015624,4.454636573791504,-20.545318603515625,0.8616881370544434
1761400782506485500,11.684485595703125,4.097301959991455,-19.906814575195312,1.0214263200759888
1761400782516564500,11.694564453125,3.812466859817505,-19.306617736816406,0.8351274728775024
1761400782526638300,11.704638427734375,3.4916439056396484,-19.031583786010742,0.0992097333073616
1761400782536727800,11.714727783203125,3.092560291290283,-18.702306747436523,-0.6209960579872131
1761400782546808800,11.724808837890626,2.7567737102508545,-18.47590446472168,-0.9798270463943481
1761400782556889300,11.734889404296876,2.337339401245117,-18.30060386657715,-1.1587188243865967
1761400782566972700,11.74497265625,2.1041293144226074,-17.790189743041992,-1.079036831855774
1761400782577049000,11.755049072265624,2.161365509033203,-16.99681282043457,-0.7926303744316101
1761400782587132700,11.765132568359375,2.3568670749664307,-16.35636329650879,-0.2983773946762085
1761400782597212700,11.775212646484375,2.7012581825256348,-15.575104713439941,-0.10863690078258514
1761400782607294000,11.7852939453125,3.1768813133239746,-14.722844123840332,0.013841478154063225
1761400782617374700,11.795374755859376,3.6967222690582275,-13.553277015686035,0.162880539894104
1761400782627453000,11.805452880859375,3.9507319927215576,-12.698995590209961,0.39040452241897583
1761400782637534200,11.8155341796875,4.156109809875488,-12.040740013122559,0.5394435524940491
1761400782647624200,11.825624267578124,4.340238571166992,-11.280804634094238,0.04511573910713196
1761400782657698600,11.835698486328125,4.4490251541137695,-9.907879829406738,-0.569819986820221
1761400782667766300,11.845766357421875,4.538733005523682,-8.002768516540527,-0.8993220329284668
1761400782677857500,11.855857421875,3.9461681842803955,-6.259864807128906,-1.3730746507644653
1761400782687927800,11.865927734375,3.2871642112731934,-4.337021350860596,-1.255833625793457
1761400782698009900,11.876009765625,2.7842321395874023,-2.277559280395508,-1.0595839023590088
1761400782708072400,11.886072509765626,1.952770709991455,-0.9284265041351318,-1.2530653476715088
1761400782718183400,11.896183349609375,0.8546552062034607,-0.6963385939598083,-1.2198457717895508
1761400782728264000,11.906263916015625,-0.2082207351922989,-1.174281120300293,-0.694617748260498
1761400782738345200,11.91634521484375,-1.1051485538482666,-2.414926528930664,-0.14926351606845856
1761400782748414000,11.9264140625,-1.8163760900497437,-3.642927408218384,0.11836334317922592
1761400782758506200,11.93650634765625,-2.2777836322784424,-4.554893970489502,0.3553893268108368
1761400782768575000,11.946574951171876,-2.5994296073913574,-5.011887073516846,0.6836942434310913
1761400782778668000,11.95666796875,-3.015871047973633,-5.008969306945801,0.9583540558815002
1761400782788736500,11.966736572265624,-3.3879449367523193,-4.627094268798828,1.0438719987869263
1761400782798817800,11.97681787109375,-3.5760395526885986,-3.866037130355835,0.9820716381072998
1761400782808898300,11.986898193359375,-3.5136406421661377,-2.977339506149292,0.8523358106613159
1761400782818982700,11.996982666015626,-3.1571290493011475,-2.0843770503997803,0.7037456631660461
1761400782829072600,12.00707275390625,-2.7568483352661133,-1.2246341705322266,0.7109282612800598
1761400782839140900,12.017140869140626,-2.548552989959717,-0.3064578175544739,0.6939443945884705
1761400782849234400,12.027234375,-2.364947557449341,0.433200865983963,0.6740425825119019
1761400782859315000,12.03731494140625,-2.071807384490967,1.2779051065444946,0.4685901701450348
1761400782869383000,12.0473828125,-1.9293525218963623,2.0382885932922363,0.44771572947502136
1761400782879476700,12.057476806640626,-1.8923171758651733,2.6839001178741455,0.5526865124702454
1761400782889557500,12.0675576171875,-2.0608839988708496,3.0627076625823975,0.8292916417121887
1761400782899623400,12.07762353515625,-2.1554548740386963,3.2154877185821533,1.0722283124923706
1761400782919800000,12.097800048828125,-1.9722236394882202,2.7474961280822754,1.4137012958526611
1761400782929878000,12.1078779296875,-1.8189198970794678,2.6036195755004883,1.6165350675582886
1761400782939961900,12.1179619140625,-1.6473604440689087,2.5555858612060547,1.7318308353424072
1761400782950030300,12.1280302734375,-1.4241758584976196,2.318859100341797,1.6989853382110596
1761400782960121300,12.138121337890626,-1.0148422718048096,1.795426845550537,1.7376667261123657
1761400782970199000,12.148198974609375,-0.6728454828262329,1.1841572523117065,1.6597055196762085
1761400782980285200,12.15828515625,-0.23500585556030273,0.6033388376235962,1.5283985137939453
1761400782990366500,12.168366455078125,0.1784428507089615,-0.23328502476215363,1.4529063701629639
1761400783000434000,12.178433837890625,0.8521861433982849,-1.088912844657898,1.30775785446167
1761400783010514200,12.18851416015625,1.5327379703521729,-1.7867478132247925,0.6533178091049194
1761400783020606200,12.198606201171875,2.003497838973999,-2.4753053188323975,-0.5374982953071594
1761400783030684700,12.2086845703125,2.2818238735198975,-3.3717093467712402,-1.8860323429107666
1761400783040777700,12.21877783203125,2.3802855014801025,-4.907814025878906,-3.1671547889709473
1761400783050850000,12.22885009765625,2.5288755893707275,-5.824120044708252,-3.3121535778045654
1761400783060919600,12.23891943359375,3.0509612560272217,-6.492027759552002,-2.1418378353118896
1761400783071012600,12.2490126953125,3.9845502376556396,-7.41753625869751,-0.27825114130973816
1761400783081094000,12.259093994140626,5.348871231079102,-8.550666809082031,1.6587328910827637
1761400783091170600,12.269170654296875,6.135066986083984,-9.483133316040039,2.4112603664398193
1761400783101238300,12.27923828125,5.926472187042236,-9.417143821716309,1.4228291511535645
1761400783111336200,12.289336181640625,5.124414443969727,-9.30154800415039,-0.19235914945602417
1761400783121417000,12.2994169921875,4.571653366088867,-10.15485668182373,-1.0779893398284912
1761400783131497700,12.309497802734375,4.649090766906738,-12.190751075744629,-1.1478700637817383
1761400783141578000,12.319577880859375,5.348123073577881,-14.664036750793457,-1.030853509902954
1761400783151659300,12.3296591796875,6.0371294021606445,-15.442675590515137,-1.0910825729370117
1761400783161736700,12.33973681640625,6.496666431427002,-15.635184288024902,-1.3704559803009033
1761400783171821000,12.349821044921875,6.8786163330078125,-16.108936309814453,-1.4011317491531372
1761400783181902600,12.359902587890625,6.896872043609619,-16.560993194580078,-1.6445173025131226
1761400783191982600,12.369982666015625,6.383241176605225,-16.576255798339844,-1.8766800165176392
1761400783202063600,12.380063720703125,5.871405601501465,-16.71586799621582,-1.6580594778060913
1761400783212133600,12.390133544921875,5.882478713989258,-17.871068954467773,-1.1457751989364624
1761400783222224000,12.400223876953126,6.15878438949585,-19.189376831054688,-0.4213046729564667
1761400783232306400,12.410306396484375,6.170082092285156,-20.373159408569336,0.31543606519699097
1761400783242363600,12.42036376953125,6.219163417816162,-21.076082229614258,0.6238391995429993
1761400783262548700,12.440548828125,5.920636177062988,-18.00836181640625,0.07369652390480042
1761400783272629800,12.450629638671876,5.359794616699219,-17.318382263183594,0.29299044609069824
1761400783282696000,12.460696044921875,4.7544355392456055,-18.16742706298828,0.4876689612865448
1761400783292791300,12.470791259765624,3.887584924697876,-19.692533493041992,0.5056254863739014
1761400783302849800,12.480849853515625,3.047893524169922,-21.576021194458008,0.4577414393424988
1761400783312930600,12.4909306640625,2.8301708698272705,-22.91228675842285,0.4123264253139496
1761400783323032800,12.50103271484375,2.9372365474700928,-23.058332443237305,-0.01227028388530016
1761400783333113600,12.511113525390625,3.07108736038208,-22.59400749206543,-0.5560533404350281
1761400783343196000,12.52119580078125,2.80899715423584,-21.962461471557617,-1.0345944166183472
1761400783353275000,12.53127490234375,2.1339070796966553,-21.278244018554688,-1.2111667394638062
1761400783363354400,12.541354248046876,1.4785691499710083,-20.7307186126709,-1.1620856523513794
1761400783373438000,12.55143798828125,1.0890624523162842,-20.853944778442383,-1.107019066810608
1761400783383519000,12.56151904296875,1.0785878896713257,-20.997373580932617,-0.845901370048523
1761400783393589200,12.57158935546875,1.225008249282837,-20.83000373840332,-0.47741878032684326
1761400783403680800,12.5816806640625,1.3334954977035522,-20.218584060668945,-0.1504606157541275
1761400783413747000,12.591746826171875,1.7398364543914795,-19.361459732055664,0.20118775963783264
1761400783423842300,12.60184228515625,2.27209734916687,-18.54481315612793,0.5846341252326965
1761400783433923300,12.61192333984375,2.596885919570923,-17.609952926635742,0.7161656022071838
1761400783444004600,12.622004638671875,2.743530750274658,-17.257780075073242,0.718859076499939
1761400783454072600,12.632072509765624,2.639233350753784,-17.334693908691406,0.8007108569145203
1761400783464143000,12.64214306640625,2.365321636199951,-17.769615173339844,0.8709656596183777
1761400783474246400,12.652246337890626,2.05355167388916,-18.458248138427734,0.5756558775901794
1761400783484325600,12.66232568359375,1.8045547008514404,-18.25908088684082,0.295833557844162
1761400783494408400,12.672408447265624,1.6673370599746704,-17.917383193969727,0.16744448244571686
1761400783504489500,12.682489501953125,1.5528643131256104,-17.63973045349121,0.15008652210235596
1761400783514579200,12.6925791015625,1.7539771795272827,-17.295339584350586,0.4560205936431885
1761400783524651300,12.7026513671875,2.3250691890716553,-16.34102439880371,0.6213701367378235
1761400783534719200,12.71271923828125,2.9198038578033447,-14.948647499084473,0.587851345539093
1761400783544810200,12.722810302734375,3.4282724857330322,-13.651662826538086,0.365115761756897
1761400783554899000,12.73289892578125,3.875913381576538,-12.880655288696289,0.45669397711753845
1761400783564974300,12.742974365234375,4.389469623565674,-11.63679313659668,0.25730186700820923
1761400783575055400,12.753055419921875,4.447379112243652,-10.441338539123535,-0.5911433696746826
1761400783585123600,12.76312353515625,3.8506994247436523,-8.580743789672852,-1.49854576587677
1761400783595223800,12.773223876953125,3.099668264389038,-5.987449645996094,-1.9211971759796143
1761400783605295400,12.78329541015625,2.1525368690490723,-3.8224925994873047,-2.4864532947540283
1761400783615366100,12.7933662109375,1.2428900003433228,-2.170867681503296,-2.6989386081695557
1761400783625441000,12.80344091796875,0.2198176383972168,-1.0608558654785156,-2.2159085273742676
1761400783635538200,12.8135380859375,-0.8427590131759644,-0.721477746963501,-1.4179660081863403
1761400783645618700,12.82361865234375,-1.6635212898254395,-0.7492355108261108,-0.5779004096984863
1761400783655689000,12.83368896484375,-2.3081600666046143,-0.8683470487594604,0.2743605375289917
1761400783665780700,12.84378076171875,-2.643946886062622,-1.1164461374282837,0.9820716381072998
1761400783675861800,12.85386181640625,-2.808248996734619,-1.293991208076477,1.5339350700378418
1761400783685944000,12.863944091796874,-2.9688849449157715,-1.6992098093032837,1.8770540952682495
1761400783696025300,12.874025390625,-3.1738884449005127,-2.034398078918457,1.9520974159240723
1761400783706106400,12.8841064453125,-3.259481191635132,-1.651250958442688,1.8683003187179565
1761400783716194000,12.894194091796875,-3.407921552658081,-0.8557026386260986,1.7675942182540894
1761400783726266000,12.90426611328125,-3.3681180477142334,-0.04953004792332649,1.748216152191162
1761400783736346600,12.9143466796875,-3.2146646976470947,0.49634793400764465,1.7601871490478516
1761400783746418000,12.92441796875,-3.0148236751556396,0.7317278981208801,1.7842040061950684
1761400783756510200,12.93451025390625,-2.954145669937134,0.6085761189460754,1.805078387260437
1761400783766591000,12.944591064453125,-3.0107085704803467,0.08170213550329208,1.517774224281311
1761400783776672000,12.954672119140625,-3.0113821029663086,0.034416649490594864,1.0890624523162842
