time,seconds_elapsed,z,y,x
1761314893048372500,0.26737255859375,9.810572624206543,-0.004785645287483931,-0.11246266216039658
1761314893086215700,0.305215576171875,9.827322959899902,-0.014356935396790504,-0.12442677468061447
1761314893105137400,0.324137451171875,9.839286804199219,0.0023928226437419653,-0.08374879509210587
1761314893124059000,0.343058837890625,9.810572624206543,-0.02632104977965355,-0.10049854964017868
1761314893142980600,0.361980712890625,9.829715728759766,-0.004785645287483931,-0.10049854964017868
1761314893161902000,0.380902099609375,9.829715728759766,-0.019142581149935722,-0.08374879509210587
1761314893180823800,0.39982373046875,9.80817985534668,-0.01196411345154047,-0.09092725813388824
1761314893199745300,0.418745361328125,9.810572624206543,-0.019142581149935722,-0.09810572862625122
1761314893218667000,0.4376669921875,9.824930191040039,-0.01196411345154047,-0.10049854964017868
1761314893237588500,0.45658837890625,9.836894035339355,0,-0.10289137065410614
1761314893256510200,0.47551025390625,9.824930191040039,-0.009571290574967861,-0.10767702013254166
1761314893275431700,0.494431640625,9.829715728759766,-0.014356935396790504,-0.11724831163883209
1761314893294353400,0.513353515625,9.834501266479492,-0.019142581149935722,-0.10289137065410614
1761314893313275000,0.53227490234375,9.810572624206543,-0.014356935396790504,-0.11006984114646912
1761314893332196600,0.551196533203125,9.81535816192627,-0.01196411345154047,-0.10289137065410614
1761314893351118000,0.5701181640625,9.844072341918945,-0.004785645287483931,-0.07657032459974289
1761314893370039800,0.589039794921875,9.827322959899902,0,-0.10289137065410614
1761314893388961300,0.607961181640625,9.817750930786133,0.007178467698395252,-0.11006984114646912
1761314893407882800,0.6268828125,9.836894035339355,-0.02632104977965355,-0.1052841991186142
1761314893426804500,0.645804443359375,9.834501266479492,-0.009571290574967861,-0.11006984114646912
1761314893445726000,0.664725830078125,9.829715728759766,-0.016749758273363113,-0.10049854964017868
1761314893464647700,0.683647705078125,9.812965393066406,-0.009571290574967861,-0.10049854964017868
1761314893483569200,0.702569091796875,9.81535816192627,-0.016749758273363113,-0.11485548317432404
1761314893502491000,0.721490966796875,9.812965393066406,-0.02632104977965355,-0.1052841991186142
1761314893521412400,0.740412353515625,9.827322959899902,-0.009571290574967861,-0.08853443711996078
1761314893540334000,0.759333984375,9.827322959899902,-0.009571290574967861,-0.10289137065410614
1761314893559255600,0.778255615234375,9.851250648498535,-0.004785645287483931,-0.0933200865983963
1761314893578177300,0.79717724609375,9.824930191040039,-0.014356935396790504,-0.10049854964017868
1761314893597098800,0.8160986328125,9.817750930786133,-0.01196411345154047,-0.11485548317432404
1761314893616020500,0.8350205078125,9.834501266479492,-0.007178467698395252,-0.09571290761232376
1761314893634942000,0.85394189453125,9.822537422180176,-0.004785645287483931,-0.11485548317432404
1761314893653863700,0.87286376953125,9.822537422180176,-0.04785645380616188,-0.11006984114646912
1761314893672785200,0.89178515625,9.817750930786133,-0.016749758273363113,-0.11006984114646912
1761314893691707000,0.910706787109375,9.820143699645996,-0.009571290574967861,-0.11006984114646912
1761314893710628400,0.92962841796875,9.80817985534668,-0.007178467698395252,-0.11724831163883209
1761314893729549800,0.9485498046875,9.817750930786133,-0.038285162299871445,-0.11006984114646912
1761314893748471600,0.967471435546875,9.841679573059082,-0.009571290574967861,-0.07178468257188797
1761314893767393000,0.98639306640625,9.80817985534668,-0.009571290574967861,-0.0933200865983963
1761314893786314800,1.005314697265625,9.798608779907227,-0.014356935396790504,-0.09571290761232376
1761314893805236200,1.024236328125,9.832108497619629,-0.02392822690308094,-0.11724831163883209
1761314893824158000,1.043157958984375,9.820143699645996,0.007178467698395252,-0.10767702013254166
1761314893843079400,1.062079345703125,9.810572624206543,-0.007178467698395252,-0.11006984114646912
1761314893862001200,1.081001220703125,9.824930191040039,-0.02153540402650833,-0.10767702013254166
1761314893880922600,1.099922607421875,9.836894035339355,0.014356935396790504,-0.11246266216039658
1761314893899844000,1.118843994140625,9.824930191040039,-0.009571290574967861,-0.11006984114646912
1761314893918765800,1.137765869140625,9.810572624206543,-0.019142581149935722,-0.09571290761232376
1761314893937687300,1.156687255859375,9.817750930786133,-0.02392822690308094,-0.1052841991186142
1761314893956609000,1.175609130859375,9.839286804199219,0.0023928226437419653,-0.09810572862625122
1761314893975530500,1.194530517578125,9.805787086486816,0.016749758273363113,-0.09810572862625122
1761314893994452200,1.2134521484375,9.827322959899902,-0.035892341285943985,-0.11246266216039658
1761314894013373700,1.232373779296875,9.829715728759766,-0.01196411345154047,-0.09571290761232376
1761314894032295400,1.25129541015625,9.81535816192627,0.007178467698395252,-0.11006984114646912
1761314894051217000,1.270216796875,9.80817985534668,-0.007178467698395252,-0.11006984114646912
1761314894070138400,1.289138427734375,9.822537422180176,-0.014356935396790504,-0.11006984114646912
1761314894089060000,1.30806005859375,9.810572624206543,-0.004785645287483931,-0.1052841991186142
1761314894107981600,1.326981689453125,9.822537422180176,-0.016749758273363113,-0.10767702013254166
1761314894126903300,1.3459033203125,9.827322959899902,-0.009571290574967861,-0.11485548317432404
1761314894145824800,1.36482470703125,9.832108497619629,-0.009571290574967861,-0.11246266216039658
1761314894164746500,1.38374658203125,9.829715728759766,-0.01196411345154047,-0.1052841991186142
1761314894183668000,1.40266796875,9.820143699645996,-0.004785645287483931,-0.11724831163883209
1761314894202589700,1.421589599609375,9.829715728759766,-0.03349951654672623,-0.11964113265275955
1761314894221511200,1.44051123046875,9.829715728759766,-0.007178467698395252,-0.0933200865983963
1761314894240432600,1.4594326171875,9.810572624206543,-0.004785645287483931,-0.10289137065410614
1761314894259354400,1.478354248046875,9.822537422180176,-0.02153540402650833,-0.10049854964017868
1761314894278275800,1.49727587890625,9.836894035339355,-0.02392822690308094,-0.1052841991186142
1761314894297197600,1.516197509765625,9.80100154876709,-0.019142581149935722,-0.11246266216039658
1761314894316119000,1.535119140625,9.829715728759766,-0.01196411345154047,-0.11006984114646912
1761314894335040800,1.554040771484375,9.829715728759766,-0.007178467698395252,-0.09092725813388824
1761314894353962200,1.572962158203125,9.315258979797363,0.05742774158716202,-0.380458801984787
1761314894372884000,1.591884033203125,10.112068176269531,-0.09571290761232376,-0.02392822690308094
1761314894391805400,1.610805419921875,10.04985523223877,-0.06699903309345245,0.019142581149935722
1761314894410727000,1.629726806640625,9.578469276428223,0.09092725813388824,-0.2919243574142456
1761314894429648600,1.648648681640625,9.908679008483887,-0.062213387340307236,0.05742774158716202
1761314894448570000,1.667570068359375,9.69093132019043,0.009571290574967861,-0.20578274130821228
1761314894467491800,1.686491943359375,9.89432144165039,-0.016749758273363113,-0.05742774158716202
1761314894486413300,1.705413330078125,9.803394317626953,-0.01196411345154047,-0.08614161610603333
1761314894505335000,1.7243349609375,9.77707290649414,0.007178467698395252,-0.15314064919948578
1761314894524256500,1.743256591796875,9.858428955078125,-0.031106693670153618,-0.059820566326379776
1761314894543178200,1.76217822265625,9.779465675354004,-0.004785645287483931,-0.15314064919948578
1761314894562099700,1.781099609375,9.841679573059082,-0.03349951654672623,-0.08374879509210587
1761314894581021200,1.800021240234375,9.81535816192627,-0.02632104977965355,-0.13639089465141296
1761314894599943000,1.81894287109375,9.839286804199219,-0.019142581149935722,-0.1052841991186142
1761314894618864400,1.837864501953125,9.803394317626953,-0.014356935396790504,-0.0933200865983963
1761314894637786000,1.8567861328125,9.822537422180176,-0.0023928226437419653,-0.1052841991186142
1761314894656707600,1.87570751953125,9.824930191040039,-0.02392822690308094,-0.11964113265275955
1761314894675629300,1.89462939453125,9.80817985534668,-0.01196411345154047,-0.10049854964017868
1761314894694550800,1.91355078125,9.803394317626953,-0.031106693670153618,-0.09810572862625122
1761314894713472500,1.932472412109375,9.822537422180176,-0.02632104977965355,-0.11964113265275955
1761314894732394000,1.95139404296875,9.817750930786133,-0.007178467698395252,-0.11485548317432404
1761314894751315500,1.9703154296875,9.80100154876709,-0.01196411345154047,-0.08614161610603333
1761314894770237200,1.9892373046875,9.80817985534668,-0.019142581149935722,-0.09092725813388824
1761314894789158700,2.00815869140625,9.81535816192627,-0.014356935396790504,-0.11246266216039658
1761314894808080400,2.027080322265625,9.822537422180176,0,-0.0933200865983963
1761314894827001900,2.046001953125,9.80100154876709,-0.02871387079358101,-0.10289137065410614
1761314894845923600,2.064923583984375,9.812965393066406,-0.02871387079358101,-0.1052841991186142
1761314894864845000,2.083844970703125,9.827322959899902,-0.02392822690308094,-0.12681959569454193
1761314894883766800,2.102766845703125,9.78664493560791,-0.0023928226437419653,-0.11724831163883209
1761314894902688300,2.121688232421875,9.820143699645996,-0.0023928226437419653,-0.1052841991186142
1761314894921609700,2.140609619140625,9.827322959899902,-0.019142581149935722,-0.10767702013254166
1761314894940531500,2.159531494140625,9.805787086486816,-0.02392822690308094,-0.10767702013254166
1761314894959453000,2.178452880859375,9.80817985534668,-0.01196411345154047,-0.12921242415905
1761314894978374700,2.197374755859375,9.812965393066406,0.01196411345154047,-0.11485548317432404
1761314894997296000,2.216296142578125,9.829715728759766,-0.016749758273363113,-0.09571290761232376
1761314895016217900,2.2352177734375,9.805787086486816,0.016749758273363113,-0.11246266216039658
1761314895035139300,2.254139404296875,9.812965393066406,-0.01196411345154047,-0.10767702013254166
1761314895054061000,2.27306103515625,9.839286804199219,-0.014356935396790504,-0.11006984114646912
1761314895072982500,2.291982421875,9.81535816192627,-0.016749758273363113,-0.10289137065410614
1761314895091904000,2.310904052734375,9.80817985534668,-0.02392822690308094,-0.11006984114646912
1761314895110825700,2.32982568359375,9.829715728759766,-0.02871387079358101,-0.09810572862625122
1761314895129747200,2.348747314453125,9.836894035339355,-0.009571290574967861,-0.10767702013254166
1761314895148669000,2.3676689453125,9.796216011047363,-0.02632104977965355,-0.10767702013254166
1761314895167590400,2.38659033203125,9.820143699645996,-0.007178467698395252,-0.11006984114646912
1761314895186512100,2.40551220703125,9.839286804199219,-0.014356935396790504,-0.09810572862625122
1761314895205433600,2.42443359375,9.812965393066406,-0.007178467698395252,-0.09092725813388824
1761314895224355300,2.443355224609375,9.80100154876709,-0.014356935396790504,-0.11006984114646912
1761314895243276800,2.46227685546875,9.824930191040039,-0.02632104977965355,-0.11485548317432404
1761314895262198300,2.4811982421875,9.824930191040039,-0.038285162299871445,-0.12921242415905
1761314895281120000,2.5001201171875,9.789037704467773,-0.014356935396790504,-0.09571290761232376
1761314895300041500,2.51904150390625,9.820143699645996,-0.02153540402650833,-0.10289137065410614
1761314895318963200,2.537963134765625,9.81535816192627,-0.038285162299871445,-0.10767702013254166
1761314895337884700,2.556884765625,9.80100154876709,0.019142581149935722,-0.09092725813388824
1761314895356806400,2.575806396484375,9.80817985534668,-0.014356935396790504,-0.11724831163883209
1761314895375727900,2.594727783203125,9.822537422180176,-0.016749758273363113,-0.11246266216039658
1761314895394649600,2.613649658203125,9.824930191040039,-0.014356935396790504,-0.1052841991186142
1761314895413571000,2.632571044921875,9.805787086486816,0.004785645287483931,-0.11964113265275955
1761314895432492800,2.651492919921875,9.812965393066406,0.004785645287483931,-0.09092725813388824
1761314895451414300,2.670414306640625,9.824930191040039,-0.007178467698395252,-0.10049854964017868
1761314895470336000,2.6893359375,9.80100154876709,0.009571290574967861,-0.09571290761232376
1761314895489257500,2.708257568359375,9.80817985534668,-0.016749758273363113,-0.10767702013254166
1761314895508179000,2.727178955078125,9.824930191040039,-0.02153540402650833,-0.11724831163883209
1761314895527100700,2.7461005859375,9.822537422180176,-0.007178467698395252,-0.11006984114646912
1761314895546022100,2.765022216796875,9.80817985534668,-0.01196411345154047,-0.10767702013254166
1761314895564944000,2.78394384765625,9.812965393066406,0.007178467698395252,-0.09810572862625122
1761314895583865300,2.802865234375,9.836894035339355,-0.009571290574967861,-0.10767702013254166
1761314895602787000,2.821787109375,9.810572624206543,-0.016749758273363113,-0.08614161610603333
1761314895621708500,2.84070849609375,9.810572624206543,-0.019142581149935722,-0.11246266216039658
1761314895640630300,2.85963037109375,9.812965393066406,0,-0.10049854964017868
1761314895659551700,2.8785517578125,9.812965393066406,-0.004785645287483931,-0.1052841991186142
1761314895678473200,2.89747314453125,9.80100154876709,-0.004785645287483931,-0.11485548317432404
1761314895697395000,2.91639501953125,9.810572624206543,-0.035892341285943985,-0.1052841991186142
1761314895716316400,2.93531640625,9.812965393066406,-0.009571290574967861,-0.1052841991186142
1761314895735238100,2.954238037109375,9.805787086486816,-0.02392822690308094,-0.10767702013254166
1761314895754159600,2.97315966796875,9.80817985534668,-0.01196411345154047,-0.10289137065410614
1761314895773081300,2.992081298828125,9.822537422180176,-0.02871387079358101,-0.10049854964017868
1761314895792002800,3.0110029296875,9.822537422180176,0.004785645287483931,-0.09810572862625122
1761314895810924500,3.029924560546875,9.81535816192627,-0.031106693670153618,-0.0933200865983963
1761314895829846000,3.048845947265625,9.824930191040039,-0.02392822690308094,-0.1339980661869049
1761314895848767700,3.067767822265625,9.812965393066406,-0.01196411345154047,-0.11006984114646912
1761314895867689200,3.086689208984375,9.817750930786133,-0.007178467698395252,-0.10767702013254166
1761314895886611000,3.10561083984375,9.822537422180176,-0.035892341285943985,-0.11485548317432404
1761314895905532400,3.124532470703125,9.841679573059082,-0.019142581149935722,-0.11006984114646912
1761314895924454000,3.143453857421875,9.805787086486816,-0.01196411345154047,-0.10049854964017868
1761314895943375600,3.162375732421875,9.80100154876709,-0.02871387079358101,-0.0933200865983963
1761314895962297000,3.181297119140625,9.834501266479492,-0.014356935396790504,-0.0933200865983963
1761314895981218800,3.20021875,9.817750930786133,-0.007178467698395252,-0.08614161610603333
1761314896000140500,3.219140625,9.7938232421875,-0.02871387079358101,-0.11246266216039658
1761314896019062000,3.23806201171875,9.822537422180176,-0.019142581149935722,-0.09810572862625122
1761314896037983500,3.2569833984375,9.820143699645996,-0.014356935396790504,-0.10767702013254166
1761314896056905200,3.2759052734375,9.805787086486816,-0.01196411345154047,-0.12203395366668701
1761314896075826700,3.29482666015625,9.812965393066406,-0.019142581149935722,-0.11246266216039658
1761314896094748400,3.31374853515625,9.81535816192627,-0.02392822690308094,-0.10767702013254166
1761314896113670000,3.332669921875,9.80817985534668,-0.02632104977965355,-0.1052841991186142
1761314896132591600,3.351591552734375,9.810572624206543,-0.019142581149935722,-0.09810572862625122
1761314896151513000,3.37051318359375,9.81535816192627,-0.03349951654672623,-0.10289137065410614
1761314896170434800,3.389434814453125,9.827322959899902,-0.007178467698395252,-0.11724831163883209
1761314896189356300,3.408356201171875,9.798608779907227,-0.02153540402650833,-0.12681959569454193
1761314896208278000,3.427278076171875,9.81535816192627,-0.004785645287483931,-0.10049854964017868
1761314896227199500,3.446199462890625,9.834501266479492,-0.02871387079358101,-0.10767702013254166
1761314896246121200,3.465121337890625,9.829715728759766,0.004785645287483931,-0.09092725813388824
1761314896265042700,3.484042724609375,9.817750930786133,-0.019142581149935722,-0.0933200865983963
1761314896283964200,3.502964111328125,9.812965393066406,-0.009571290574967861,-0.11006984114646912
1761314896302886000,3.521885986328125,9.820143699645996,-0.007178467698395252,-0.1052841991186142
1761314896321807400,3.540807373046875,9.80817985534668,-0.016749758273363113,-0.10767702013254166
1761314896340729000,3.55972900390625,9.824930191040039,-0.016749758273363113,-0.10289137065410614
1761314896359650600,3.578650634765625,9.824930191040039,-0.031106693670153618,-0.08135596662759781
1761314896378572300,3.597572265625,9.822537422180176,-0.02153540402650833,-0.0933200865983963
1761314896397493800,3.61649365234375,9.80817985534668,-0.035892341285943985,-0.10767702013254166
1761314896416415500,3.63541552734375,9.829715728759766,-0.019142581149935722,-0.10049854964017868
1761314896435337000,3.6543369140625,9.822537422180176,0.007178467698395252,-0.11485548317432404
1761314896454258700,3.6732587890625,9.810572624206543,0.004785645287483931,-0.09810572862625122
1761314896473180200,3.69218017578125,9.80817985534668,-0.038285162299871445,-0.09571290761232376
1761314896492102000,3.711101806640625,9.827322959899902,-0.0023928226437419653,-0.0933200865983963
1761314896511023400,3.7300234375,9.812965393066406,-0.02392822690308094,-0.11724831163883209
1761314896529945000,3.748945068359375,9.80100154876709,-0.014356935396790504,-0.11006984114646912
1761314896548866600,3.767866455078125,9.822537422180176,-0.019142581149935722,-0.10049854964017868
1761314896567788300,3.786788330078125,9.822537422180176,-0.016749758273363113,-0.09571290761232376
1761314896586709800,3.805709716796875,9.810572624206543,-0.009571290574967861,-0.10767702013254166
1761314896605631200,3.82463134765625,9.822537422180176,-0.02392822690308094,-0.11006984114646912
1761314896624553000,3.843552978515625,9.822537422180176,-0.03349951654672623,-0.10289137065410614
1761314896643474700,3.862474609375,9.810572624206543,-0.0023928226437419653,-0.09092725813388824
1761314896662396200,3.881396240234375,9.81535816192627,-0.004785645287483931,-0.0933200865983963
1761314896681318000,3.90031787109375,9.820143699645996,0.009571290574967861,-0.10767702013254166
1761314896700239400,3.9192392578125,9.820143699645996,-0.014356935396790504,-0.09092725813388824
1761314896719160800,3.938160888671875,9.80817985534668,-0.03349951654672623,-0.10049854964017868
1761314896738082600,3.95708251953125,9.820143699645996,-0.02632104977965355,-0.11006984114646912
1761314896757004000,3.976004150390625,9.812965393066406,-0.019142581149935722,-0.11724831163883209
1761314896775925800,3.99492578125,9.812965393066406,0.014356935396790504,-0.11006984114646912
1761314896794847200,4.01384716796875,9.805787086486816,0.007178467698395252,-0.09571290761232376
1761314896813769000,4.03276904296875,9.820143699645996,0.016749758273363113,-0.11246266216039658
1761314896832690400,4.0516904296875,9.844072341918945,-0.01196411345154047,-0.09810572862625122
1761314896851612200,4.070612060546875,9.817750930786133,0,-0.09810572862625122
1761314896870533600,4.08953369140625,9.824930191040039,-0.02392822690308094,-0.0933200865983963
1761314896889455400,4.108455322265625,9.820143699645996,-0.019142581149935722,-0.11724831163883209
1761314896908376800,4.127376953125,9.817750930786133,-0.007178467698395252,-0.10049854964017868
1761314896927298600,4.146298583984375,9.798608779907227,-0.01196411345154047,-0.11006984114646912
1761314896946220000,4.165219970703125,9.81535816192627,-0.009571290574967861,-0.10049854964017868
1761314896965141800,4.184141845703125,9.824930191040039,0.009571290574967861,-0.12921242415905
1761314896984063200,4.203063232421875,9.810572624206543,-0.02153540402650833,-0.10049854964017868
1761314897002985000,4.22198486328125,9.834501266479492,-0.02153540402650833,-0.1052841991186142
1761314897021906400,4.240906494140625,9.829715728759766,-0.02392822690308094,-0.12203395366668701
1761314897040828200,4.259828125,9.820143699645996,-0.004785645287483931,-0.11724831163883209
1761314897059749600,4.27874951171875,9.822537422180176,-0.014356935396790504,-0.09810572862625122
1761314897078671400,4.29767138671875,9.832108497619629,-0.02392822690308094,-0.10049854964017868
1761314897097592800,4.3165927734375,9.844072341918945,0,-0.10767702013254166
1761314897116514600,4.3355146484375,9.832108497619629,-0.031106693670153618,-0.11006984114646912
1761314897135436000,4.35443603515625,9.827322959899902,-0.009571290574967861,-0.1052841991186142
1761314897154357800,4.373357666015625,9.841679573059082,0,-0.1052841991186142
1761314897173279200,4.392279296875,9.798608779907227,-0.02153540402650833,-0.0933200865983963
1761314897192201000,4.411200927734375,9.810572624206543,-0.02153540402650833,-0.14117653667926788
1761314897211122400,4.430122314453125,9.844072341918945,0.007178467698395252,-0.11724831163883209
1761314897230044000,4.4490439453125,9.822537422180176,-0.014356935396790504,-0.10767702013254166
1761314897248965600,4.467965576171875,9.805787086486816,-0.004785645287483931,-0.0933200865983963
1761314897267887400,4.486887451171875,9.822537422180176,-0.01196411345154047,-0.11006984114646912
1761314897286808800,4.505808837890625,9.822537422180176,0,-0.10049854964017868
1761314897305730300,4.524730224609375,9.80100154876709,-0.019142581149935722,-0.09092725813388824
1761314897324652000,4.543652099609375,9.820143699645996,-0.019142581149935722,-0.11724831163883209
1761314897343573500,4.562573486328125,9.832108497619629,-0.014356935396790504,-0.0933200865983963
1761314897362495200,4.5814951171875,9.829715728759766,0.009571290574967861,-0.10767702013254166
1761314897381416700,4.600416748046875,9.812965393066406,-0.007178467698395252,-0.0933200865983963
1761314897400338400,4.61933837890625,9.834501266479492,-0.014356935396790504,-0.10289137065410614
1761314897419260000,4.638260009765625,9.834501266479492,-0.004785645287483931,-0.0933200865983963
1761314897438181600,4.657181640625,9.812965393066406,-0.02153540402650833,-0.09810572862625122
1761314897457103000,4.67610302734375,9.80100154876709,-0.016749758273363113,-0.09810572862625122
1761314897476024800,4.69502490234375,9.812965393066406,-0.02153540402650833,-0.09571290761232376
1761314897494946300,4.7139462890625,9.817750930786133,-0.016749758273363113,-0.09810572862625122
1761314897513868000,4.732867919921875,9.817750930786133,-0.004785645287483931,-0.09810572862625122
1761314897532789500,4.75178955078125,9.81535816192627,-0.014356935396790504,-0.1052841991186142
1761314897551711200,4.770711181640625,9.856036186218262,-0.009571290574967861,-0.1052841991186142
1761314897570632700,4.7896328125,9.820143699645996,-0.009571290574967861,-0.11006984114646912
1761314897589554400,4.808554443359375,9.827322959899902,-0.0023928226437419653,-0.12203395366668701
1761314897608476000,4.827475830078125,9.832108497619629,-0.004785645287483931,-0.10049854964017868
1761314897627397600,4.846397705078125,9.824930191040039,-0.02632104977965355,-0.11006984114646912
1761314897646319000,4.865319091796875,9.803394317626953,-0.02871387079358101,-0.11006984114646912
1761314897665240800,4.88424072265625,9.834501266479492,-0.014356935396790504,-0.11006984114646912
1761314897684162300,4.903162353515625,9.791430473327637,-0.009571290574967861,-0.12442677468061447
1761314897703084000,4.922083984375,9.805787086486816,-0.019142581149935722,-0.10289137065410614
1761314897722005500,4.941005615234375,9.817750930786133,-0.03349951654672623,-0.11964113265275955
1761314897740927000,4.959927001953125,9.834501266479492,-0.007178467698395252,-0.08135596662759781
1761314897759848700,4.9788486328125,9.812965393066406,-0.019142581149935722,-0.10049854964017868
1761314897778770400,4.9977705078125,9.812965393066406,-0.009571290574967861,-0.10289137065410614
1761314897797692000,5.01669189453125,9.834501266479492,-0.02392822690308094,-0.09092725813388824
1761314897816613400,5.03561328125,9.822537422180176,0.0023928226437419653,-0.11006984114646912
1761314897835535000,5.05453515625,9.80100154876709,-0.007178467698395252,-0.0933200865983963
1761314897854456600,5.07345654296875,9.80817985534668,-0.02871387079358101,-0.10049854964017868
1761314897873378300,5.09237841796875,9.820143699645996,0,-0.10049854964017868
1761314897892299800,5.1112998046875,9.81535816192627,-0.004785645287483931,-0.10289137065410614
1761314897911221500,5.130221435546875,9.829715728759766,-0.038285162299871445,-0.0933200865983963
1761314897930143000,5.14914306640625,9.824930191040039,-0.009571290574967861,-0.10289137065410614
1761314897949064700,5.168064697265625,9.827322959899902,-0.016749758273363113,-0.09571290761232376
1761314897967986200,5.186986083984375,9.824930191040039,-0.016749758273363113,-0.11485548317432404
1761314897986908000,5.205907958984375,9.812965393066406,-0.007178467698395252,-0.1052841991186142
1761314898005829400,5.224829345703125,9.827322959899902,-0.007178467698395252,-0.11485548317432404
1761314898024751000,5.243751220703125,9.810572624206543,0,-0.11964113265275955
1761314898043672600,5.262672607421875,9.829715728759766,-0.009571290574967861,-0.11724831163883209
1761314898062594300,5.28159423828125,9.81535816192627,-0.009571290574967861,-0.10049854964017868
1761314898081515800,5.300515869140625,9.817750930786133,-0.0023928226437419653,-0.11246266216039658
1761314898100437500,5.3194375,9.803394317626953,-0.019142581149935722,-0.10289137065410614
1761314898119359000,5.33835888671875,9.827322959899902,-0.016749758273363113,-0.11006984114646912
1761314898138280400,5.357280517578125,9.829715728759766,-0.014356935396790504,-0.11964113265275955
1761314898157202200,5.3762021484375,9.810572624206543,-0.01196411345154047,-0.09810572862625122
1761314898176123600,5.39512353515625,9.810572624206543,-0.02153540402650833,-0.09810572862625122
1761314898195045400,5.41404541015625,9.812965393066406,-0.02392822690308094,-0.10289137065410614
1761314898213966800,5.432966796875,9.810572624206543,-0.009571290574967861,-0.0933200865983963
1761314898232888600,5.451888671875,9.805787086486816,-0.009571290574967861,-0.10289137065410614
1761314898251810000,5.47081005859375,9.832108497619629,-0.019142581149935722,-0.10767702013254166
1761314898270731800,5.489731689453125,9.839286804199219,0,-0.10289137065410614
1761314898289653200,5.5086533203125,9.803394317626953,-0.01196411345154047,-0.11485548317432404
1761314898308575000,5.527574951171875,9.827322959899902,-0.007178467698395252,-0.12203395366668701
1761314898327496400,5.546496337890625,9.829715728759766,-0.01196411345154047,-0.1052841991186142
1761314898346418200,5.565418212890625,9.841679573059082,-0.004785645287483931,-0.09810572862625122
1761314898365339600,5.584339599609375,9.81535816192627,-0.014356935396790504,-0.09810572862625122
1761314898384261400,5.603261474609375,9.834501266479492,-0.035892341285943985,-0.11246266216039658
1761314898403182800,5.622182861328125,9.812965393066406,0.009571290574967861,-0.0933200865983963
1761314898422104600,5.6411044921875,9.80817985534668,-0.0023928226437419653,-0.10767702013254166
1761314898441026000,5.660026123046875,9.817750930786133,0.0023928226437419653,-0.11724831163883209
1761314898459947800,5.67894775390625,9.829715728759766,-0.007178467698395252,-0.1052841991186142
1761314898478869200,5.697869140625,9.817750930786133,-0.019142581149935722,-0.11724831163883209
1761314898497790700,5.716790771484375,9.81535816192627,-0.016749758273363113,-0.09092725813388824
1761314898516712400,5.73571240234375,9.820143699645996,-0.007178467698395252,-0.08374879509210587
1761314898535634000,5.754634033203125,9.829715728759766,0,-0.08614161610603333
1761314898554555600,5.7735556640625,9.80817985534668,-0.02871387079358101,-0.10049854964017868
1761314898573477000,5.79247705078125,9.822537422180176,-0.007178467698395252,-0.11246266216039658
1761314898592398800,5.81139892578125,9.820143699645996,-0.014356935396790504,-0.11485548317432404
1761314898611320300,5.8303203125,9.81535816192627,-0.007178467698395252,-0.12442677468061447
1761314898630242000,5.849241943359375,9.81535816192627,-0.031106693670153618,-0.1052841991186142
1761314898649163500,5.86816357421875,9.836894035339355,-0.038285162299871445,-0.11724831163883209
1761314898668085200,5.887085205078125,9.822537422180176,0,-0.11006984114646912
1761314898687006700,5.9060068359375,9.822537422180176,-0.019142581149935722,-0.10289137065410614
1761314898705928400,5.924928466796875,9.81535816192627,-0.007178467698395252,-0.11724831163883209
1761314898724850000,5.943849853515625,9.832108497619629,0.009571290574967861,-0.12442677468061447
1761314898743771400,5.962771484375,9.827322959899902,0,-0.12681959569454193
1761314898762693000,5.981693115234375,9.827322959899902,0.0023928226437419653,-0.11246266216039658
1761314898781614600,6.000614501953125,9.844072341918945,-0.01196411345154047,-0.11485548317432404
1761314898800536300,6.019536376953125,9.824930191040039,-0.014356935396790504,-0.09571290761232376
1761314898819457800,6.038457763671875,9.820143699645996,0.007178467698395252,-0.09092725813388824
1761314898838379500,6.057379638671875,9.829715728759766,-0.014356935396790504,-0.08853443711996078
1761314898857301000,6.076301025390625,9.824930191040039,-0.009571290574967861,-0.11006984114646912
1761314898876222700,6.09522265625,9.81535816192627,-0.009571290574967861,-0.09810572862625122
1761314898895144200,6.114144287109375,9.820143699645996,-0.019142581149935722,-0.10767702013254166
1761314898914066000,6.13306591796875,9.834501266479492,-0.01196411345154047,-0.0933200865983963
1761314898932987400,6.1519873046875,9.817750930786133,-0.01196411345154047,-0.09092725813388824
1761314898951909000,6.1709091796875,9.810572624206543,-0.009571290574967861,-0.10049854964017868
1761314898970830600,6.18983056640625,9.824930191040039,-0.02632104977965355,-0.11246266216039658
1761314898989752000,6.208751953125,9.822537422180176,-0.02632104977965355,-0.10767702013254166
1761314899008673800,6.227673828125,9.81535816192627,-0.01196411345154047,-0.11724831163883209
1761314899027595300,6.24659521484375,9.810572624206543,-0.01196411345154047,-0.11246266216039658
1761314899046517000,6.26551708984375,9.832108497619629,0.009571290574967861,-0.11246266216039658
1761314899065438500,6.2844384765625,9.81535816192627,-0.01196411345154047,-0.09092725813388824
1761314899084360200,6.303360107421875,9.827322959899902,-0.02153540402650833,-0.11724831163883209
1761314899103281700,6.32228173828125,9.836894035339355,-0.02392822690308094,-0.11246266216039658
1761314899122203400,6.341203369140625,9.820143699645996,0.004785645287483931,-0.10767702013254166
1761314899141124900,6.360124755859375,9.822537422180176,-0.019142581149935722,-0.09810572862625122
1761314899160046300,6.37904638671875,9.832108497619629,-0.02153540402650833,-0.11485548317432404
1761314899178968000,6.397968017578125,9.829715728759766,0,-0.11006984114646912
1761314899197889500,6.4168896484375,9.805787086486816,-0.009571290574967861,-0.10767702013254166
1761314899216811300,6.435811279296875,9.820143699645996,-0.02153540402650833,-0.09810572862625122
1761314899235732700,6.454732666015625,9.832108497619629,-0.019142581149935722,-0.10767702013254166
1761314899254654500,6.473654541015625,9.827322959899902,-0.01196411345154047,-0.1052841991186142
1761314899273576000,6.492575927734375,9.81535816192627,-0.0023928226437419653,-0.10767702013254166
1761314899292497700,6.51149755859375,9.803394317626953,-0.019142581149935722,-0.09571290761232376
1761314899311419100,6.530419189453125,9.824930191040039,-0.014356935396790504,-0.0933200865983963
1761314899330340900,6.5493408203125,9.817750930786133,-0.019142581149935722,-0.10289137065410614
1761314899349262300,6.568262451171875,9.822537422180176,-0.031106693670153618,-0.1052841991186142
1761314899368184000,6.58718408203125,9.834501266479492,-0.02871387079358101,-0.11006984114646912
1761314899387105500,6.60610546875,9.820143699645996,-0.009571290574967861,-0.11485548317432404
1761314899406027300,6.62502734375,9.80100154876709,0,-0.11485548317432404
1761314899424948700,6.64394873046875,9.822537422180176,-0.02153540402650833,-0.11246266216039658
1761314899443870200,6.6628701171875,9.832108497619629,-0.03349951654672623,-0.10289137065410614
1761314899462792000,6.6817919921875,9.817750930786133,-0.016749758273363113,-0.11006984114646912
1761314899481713400,6.70071337890625,9.824930191040039,-0.01196411345154047,-0.11246266216039658
1761314899500635100,6.71963525390625,9.832108497619629,-0.009571290574967861,-0.12442677468061447
1761314899519556600,6.738556640625,9.817750930786133,-0.01196411345154047,-0.09571290761232376
1761314899538478300,6.757478271484375,9.796216011047363,-0.016749758273363113,-0.11724831163883209
1761314899557399800,6.77639990234375,9.836894035339355,-0.02871387079358101,-0.09810572862625122
1761314899576321300,6.7953212890625,9.81535816192627,0.004785645287483931,-0.12203395366668701
1761314899595243000,6.814242919921875,9.805787086486816,-0.007178467698395252,-0.1052841991186142
1761314899614164500,6.83316455078125,9.822537422180176,-0.031106693670153618,-0.10049854964017868
1761314899633086200,6.852086181640625,9.824930191040039,-0.0023928226437419653,-0.09810572862625122
1761314899652007700,6.871007568359375,9.829715728759766,-0.02153540402650833,-0.10289137065410614
1761314899670929400,6.889929443359375,9.824930191040039,-0.004785645287483931,-0.11006984114646912
1761314899689851000,6.908850830078125,9.829715728759766,-0.004785645287483931,-0.08614161610603333
1761314899708772600,6.927772705078125,9.836894035339355,-0.009571290574967861,-0.11246266216039658
1761314899727694000,6.946694091796875,9.810572624206543,0,-0.1052841991186142
1761314899746615600,6.965615478515625,9.80100154876709,-0.02871387079358101,-0.11964113265275955
1761314899765537300,6.984537353515625,9.841679573059082,0.007178467698395252,-0.10289137065410614
1761314899784458800,7.003458740234375,9.822537422180176,0.007178467698395252,-0.08374879509210587
1761314899803380500,7.02238037109375,9.817750930786133,-0.02392822690308094,-0.09571290761232376
1761314899822302000,7.041302001953125,9.836894035339355,-0.035892341285943985,-0.10767702013254166
1761314899841223400,7.060223388671875,9.844072341918945,-0.0023928226437419653,-0.08853443711996078
1761314899860145200,7.079145263671875,9.810572624206543,-0.0023928226437419653,-0.11485548317432404
1761314899879066600,7.098066650390625,9.822537422180176,-0.02632104977965355,-0.10767702013254166
1761314899897988400,7.11698828125,9.832108497619629,-0.040677983313798904,-0.10049854964017868
1761314899916909800,7.135909912109375,9.80817985534668,0,-0.10289137065410614
1761314899935831600,7.15483154296875,9.80817985534668,-0.02153540402650833,-0.10767702013254166
1761314899954753000,7.1737529296875,9.824930191040039,-0.02392822690308094,-0.11246266216039658
1761314899973674800,7.1926748046875,9.829715728759766,-0.01196411345154047,-0.08135596662759781
1761314899992596200,7.21159619140625,9.812965393066406,-0.009571290574967861,-0.11724831163883209
1761314900011517700,7.230517578125,9.812965393066406,-0.02632104977965355,-0.11724831163883209
1761314900030439400,7.249439453125,9.829715728759766,-0.007178467698395252,-0.1052841991186142
1761314900049361000,7.26836083984375,9.817750930786133,-0.035892341285943985,-0.11964113265275955
1761314900068282600,7.28728271484375,9.810572624206543,-0.03349951654672623,-0.11006984114646912
1761314900087204000,7.3062041015625,9.829715728759766,-0.009571290574967861,-0.11964113265275955
1761314900106125800,7.325125732421875,9.829715728759766,-0.02153540402650833,-0.10049854964017868
1761314900125047300,7.34404736328125,9.812965393066406,-0.016749758273363113,-0.0933200865983963
1761314900143969000,7.362968994140625,9.829715728759766,-0.019142581149935722,-0.10289137065410614
1761314900162890500,7.381890380859375,9.834501266479492,-0.007178467698395252,-0.10049854964017868
1761314900181812000,7.40081201171875,9.820143699645996,-0.031106693670153618,-0.08614161610603333
1761314900219655200,7.4386552734375,9.829715728759766,-0.016749758273363113,-0.10289137065410614
1761314900238577000,7.457576904296875,9.839286804199219,-0.019142581149935722,-0.11246266216039658
1761314900257498400,7.476498291015625,9.820143699645996,-0.02871387079358101,-0.11246266216039658
1761314900276419800,7.495419921875,9.817750930786133,-0.014356935396790504,-0.12203395366668701
1761314900295341600,7.514341552734375,9.820143699645996,-0.02153540402650833,-0.1052841991186142
1761314900314263000,7.533262939453125,9.827322959899902,0,-0.09092725813388824
1761314900333184800,7.552184814453125,9.822537422180176,-0.031106693670153618,-0.11964113265275955
1761314900352106200,7.571106201171875,9.829715728759766,-0.02871387079358101,-0.11964113265275955
1761314900371028000,7.590028076171875,9.832108497619629,-0.02392822690308094,-0.11006984114646912
1761314900389949400,7.608949462890625,9.817750930786133,-0.019142581149935722,-0.10767702013254166
1761314900408871000,7.627870849609375,9.827322959899902,-0.0023928226437419653,-0.11724831163883209
1761314900427792600,7.646792724609375,9.829715728759766,0.0023928226437419653,-0.10767702013254166
1761314900446714000,7.665714111328125,9.820143699645996,-0.007178467698395252,-0.10289137065410614
1761314900465635800,7.6846357421875,9.820143699645996,-0.004785645287483931,-0.10289137065410614
1761314900484557300,7.703557373046875,9.832108497619629,0.0023928226437419653,-0.09810572862625122
1761314900503478800,7.722478759765625,9.81535816192627,-0.016749758273363113,-0.09092725813388824
1761314900522400500,7.741400390625,9.812965393066406,-0.019142581149935722,-0.10049854964017868
1761314900541322000,7.760322021484375,9.827322959899902,-0.035892341285943985,-0.11485548317432404
1761314900560243700,7.77924365234375,9.803394317626953,-0.014356935396790504,-0.1052841991186142
1761314900579165200,7.798165283203125,9.824930191040039,-0.02392822690308094,-0.10289137065410614
1761314900598086700,7.817086669921875,9.81535816192627,-0.004785645287483931,-0.11485548317432404
1761314900617008400,7.83600830078125,9.841679573059082,0,-0.09810572862625122
1761314900635929900,7.854929931640625,9.824930191040039,0.0023928226437419653,-0.09092725813388824
1761314900654851600,7.8738515625,9.803394317626953,0.0023928226437419653,-0.10289137065410614
1761314900673773000,7.89277294921875,9.817750930786133,-0.02153540402650833,-0.09571290761232376
1761314900692694800,7.91169482421875,9.829715728759766,-0.014356935396790504,-0.11006984114646912
1761314900711616300,7.9306162109375,9.803394317626953,-0.02632104977965355,-0.0933200865983963
1761314900730537700,7.949537841796875,9.827322959899902,-0.007178467698395252,-0.10049854964017868
1761314900749459500,7.96845947265625,9.834501266479492,0.0023928226437419653,-0.10289137065410614
1761314900768381000,7.987380859375,9.834501266479492,-0.009571290574967861,-0.09571290761232376
1761314900787302700,8.006302734375,9.820143699645996,-0.031106693670153618,-0.11724831163883209
1761314900806224100,8.02522412109375,9.824930191040039,-0.014356935396790504,-0.11485548317432404
1761314900825145900,8.044145751953126,9.817750930786133,-0.02871387079358101,-0.1052841991186142
1761314900844067300,8.0630673828125,9.827322959899902,-0.007178467698395252,-0.12203395366668701
1761314900862988800,8.08198876953125,9.827322959899902,-0.01196411345154047,-0.11006984114646912
1761314900881910500,8.10091064453125,9.836894035339355,-0.019142581149935722,-0.1052841991186142
1761314900900832000,8.11983203125,9.824930191040039,0,-0.11485548317432404
1761314900919753500,8.13875341796875,9.810572624206543,-0.02392822690308094,-0.09571290761232376
1761314900938675200,8.15767529296875,9.839286804199219,-0.02392822690308094,-0.09810572862625122
1761314900957596700,8.1765966796875,9.812965393066406,-0.014356935396790504,-0.10049854964017868
1761314900976518400,8.195518310546875,9.80100154876709,-0.02153540402650833,-0.11246266216039658
1761314900995439900,8.21443994140625,9.820143699645996,-0.02632104977965355,-0.11006984114646912
1761314901014361300,8.233361328125,9.822537422180176,-0.016749758273363113,-0.1052841991186142
1761314901033283000,8.252282958984376,9.80817985534668,-0.02632104977965355,-0.11724831163883209
1761314901052204500,8.27120458984375,9.810572624206543,-0.035892341285943985,-0.10289137065410614
1761314901071126300,8.290126220703126,9.829715728759766,-0.02392822690308094,-0.1052841991186142
1761314901090047700,8.3090478515625,9.827322959899902,-0.014356935396790504,-0.11246266216039658
1761314901108969200,8.32796923828125,9.822537422180176,-0.014356935396790504,-0.11006984114646912
1761314901127891000,8.346890869140625,9.822537422180176,-0.02871387079358101,-0.10049854964017868
1761314901146812400,8.3658125,9.829715728759766,-0.009571290574967861,-0.10049854964017868
1761314901165734100,8.384734130859375,9.798608779907227,-0.007178467698395252,-0.09571290761232376
1761314901184655600,8.403655517578125,9.820143699645996,0.0023928226437419653,-0.09092725813388824
1761314901203577000,8.4225771484375,9.846465110778809,-0.01196411345154047,-0.09571290761232376
1761314901222498800,8.441498779296875,9.829715728759766,-0.016749758273363113,-0.11246266216039658
1761314901241420300,8.460420166015625,9.817750930786133,-0.009571290574967861,-0.11246266216039658
1761314901260342000,8.479342041015625,9.829715728759766,-0.004785645287483931,-0.11006984114646912
1761314901279263500,8.498263427734376,9.817750930786133,0.004785645287483931,-0.10767702013254166
1761314901298185000,8.51718505859375,9.812965393066406,-0.01196411345154047,-0.11485548317432404
1761314901317106700,8.536106689453124,9.820143699645996,-0.01196411345154047,-0.10767702013254166
1761314901336028200,8.555028076171874,9.851250648498535,-0.02392822690308094,-0.11246266216039658
1761314901354950000,8.573949951171874,9.80817985534668,-0.004785645287483931,-0.0933200865983963
1761314901373871400,8.592871337890625,9.803394317626953,-0.007178467698395252,-0.11485548317432404
1761314901392792800,8.611792724609375,9.822537422180176,-0.019142581149935722,-0.10049854964017868
1761314901411714600,8.630714599609375,9.827322959899902,-0.031106693670153618,-0.1052841991186142
1761314901430636000,8.649635986328125,9.80100154876709,0.004785645287483931,-0.10289137065410614
1761314901449557500,8.6685576171875,9.812965393066406,-0.02871387079358101,-0.11485548317432404
1761314901468479200,8.687479248046875,9.822537422180176,-0.019142581149935722,-0.09571290761232376
1761314901487400700,8.706400634765625,9.827322959899902,-0.031106693670153618,-0.1052841991186142
1761314901506322400,8.725322509765626,9.81535816192627,-0.009571290574967861,-0.09810572862625122
1761314901525244000,8.744243896484376,9.827322959899902,-0.016749758273363113,-0.10289137065410614
1761314901544165400,8.763165283203126,9.834501266479492,-0.014356935396790504,-0.11485548317432404
1761314901563087000,8.782087158203124,9.80817985534668,-0.035892341285943985,-0.09092725813388824
1761314901582008600,8.801008544921874,9.824930191040039,0.004785645287483931,-0.09810572862625122
1761314901600930300,8.819930419921874,9.829715728759766,-0.019142581149935722,-0.11006984114646912
1761314901619851800,8.838851806640625,9.832108497619629,-0.007178467698395252,-0.09571290761232376
1761314901638773200,8.857773193359375,9.820143699645996,-0.031106693670153618,-0.10767702013254166
1761314901657695000,8.876695068359375,9.832108497619629,-0.016749758273363113,-0.11724831163883209
1761314901676616400,8.895616455078125,9.810572624206543,-0.03349951654672623,-0.09810572862625122
1761314901695538000,8.914537841796875,9.817750930786133,-0.009571290574967861,-0.10767702013254166
1761314901714459600,8.933459716796875,9.80100154876709,-0.01196411345154047,-0.11006984114646912
1761314901733381000,8.952381103515625,9.834501266479492,-0.02392822690308094,-0.11485548317432404
1761314901752302800,8.971302734375,9.824930191040039,-0.02392822690308094,-0.09571290761232376
1761314901771224300,8.990224365234376,9.810572624206543,-0.035892341285943985,-0.08374879509210587
1761314901790145800,9.009145751953126,9.832108497619629,-0.01196411345154047,-0.08853443711996078
1761314901809067500,9.028067626953124,9.812965393066406,-0.02153540402650833,-0.11246266216039658
1761314901827989000,9.046989013671874,9.820143699645996,0.019142581149935722,-0.09810572862625122
1761314901846910500,9.065910400390624,9.820143699645996,-0.02871387079358101,-0.12203395366668701
1761314901865832200,9.084832275390625,9.827322959899902,-0.019142581149935722,-0.11006984114646912
1761314901884753700,9.103753662109375,9.817750930786133,-0.016749758273363113,-0.1052841991186142
1761314901903675100,9.122675048828125,9.81535816192627,-0.014356935396790504,-0.09092725813388824
1761314901922596900,9.141596923828125,9.832108497619629,-0.02153540402650833,-0.10767702013254166
1761314901941518300,9.160518310546875,9.812965393066406,-0.02632104977965355,-0.10767702013254166
1761314901960440000,9.179440185546875,9.80817985534668,0.0023928226437419653,-0.1052841991186142
1761314901979361500,9.198361572265625,9.844072341918945,-0.014356935396790504,-0.11246266216039658
1761314901998283000,9.217282958984375,9.832108497619629,0.004785645287483931,-0.10289137065410614
1761314902017204700,9.236204833984376,9.817750930786133,0.004785645287483931,-0.11006984114646912
1761314902036126200,9.255126220703126,9.820143699645996,-0.004785645287483931,-0.10767702013254166
1761314902055048000,9.2740478515625,9.81535816192627,-0.02632104977965355,-0.09810572862625122
1761314902073969400,9.292969482421874,9.822537422180176,-0.02153540402650833,-0.09571290761232376
1761314902092891000,9.311890869140624,9.812965393066406,-0.014356935396790504,-0.1052841991186142
1761314902111812600,9.3308125,9.824930191040039,-0.019142581149935722,-0.11964113265275955
1761314902130734000,9.349734130859375,9.817750930786133,-0.014356935396790504,-0.0933200865983963
1761314902149655600,9.368655517578125,9.81535816192627,0,-0.12681959569454193
1761314902168577300,9.387577392578125,9.805787086486816,-0.007178467698395252,-0.11006984114646912
1761314902187498800,9.406498779296875,9.834501266479492,-0.031106693670153618,-0.11246266216039658
1761314902206420200,9.425420166015625,9.810572624206543,-0.007178467698395252,-0.11724831163883209
1761314902225342000,9.444342041015625,9.805787086486816,-0.019142581149935722,-0.11246266216039658
1761314902244263400,9.463263427734375,9.848857879638672,-0.04307080805301666,-0.1052841991186142
1761314902263185000,9.482184814453126,9.81535816192627,-0.016749758273363113,-0.11006984114646912
1761314902282106600,9.501106689453126,9.812965393066406,-0.02392822690308094,-0.10049854964017868
1761314902301028000,9.520028076171876,9.820143699645996,-0.004785645287483931,-0.08853443711996078
1761314902319949600,9.538949462890624,9.817750930786133,-0.004785645287483931,-0.09571290761232376
1761314902338871300,9.557871337890624,9.824930191040039,0,-0.11724831163883209
1761314902357792800,9.576792724609374,9.812965393066406,-0.014356935396790504,-0.09810572862625122
1761314902376714500,9.595714599609375,9.841679573059082,-0.016749758273363113,-0.11006984114646912
1761314902395636000,9.614635986328125,9.822537422180176,-0.016749758273363113,-0.09092725813388824
1761314902414557400,9.633557373046875,9.798608779907227,-0.014356935396790504,-0.12681959569454193
1761314902433479200,9.652479248046875,9.841679573059082,-0.01196411345154047,-0.11246266216039658
1761314902452400600,9.671400634765625,9.824930191040039,-0.0023928226437419653,-0.09092725813388824
1761314902471322000,9.690322021484375,9.81535816192627,-0.016749758273363113,-0.11246266216039658
1761314902490243800,9.709243896484375,9.80100154876709,-0.016749758273363113,-0.09810572862625122
1761314902509165300,9.728165283203126,9.824930191040039,-0.019142581149935722,-0.0933200865983963
1761314902528086800,9.747086669921876,9.80817985534668,-0.009571290574967861,-0.11485548317432404
1761314902547008500,9.766008544921876,9.812965393066406,-0.02392822690308094,-0.11964113265275955
1761314902565930000,9.784929931640624,9.822537422180176,-0.009571290574967861,-0.10289137065410614
1761314902584851500,9.8038515625,9.829715728759766,-0.02392822690308094,-0.0933200865983963
1761314902603773200,9.822773193359374,9.834501266479492,-0.009571290574967861,-0.09810572862625122
1761314902622694700,9.841694580078125,9.820143699645996,-0.02153540402650833,-0.08853443711996078
1761314902641616100,9.8606162109375,9.817750930786133,-0.0023928226437419653,-0.1052841991186142
1761314902660537900,9.879537841796875,9.822537422180176,-0.01196411345154047,-0.10767702013254166
1761314902679459300,9.898459228515625,9.824930191040039,-0.04546362906694412,-0.11485548317432404
1761314902698381000,9.917381103515625,9.827322959899902,-0.004785645287483931,-0.09571290761232376
1761314902717302500,9.936302490234375,9.812965393066406,-0.014356935396790504,-0.11724831163883209
1761314902736224000,9.95522412109375,9.80817985534668,-0.009571290574967861,-0.11485548317432404
1761314902755145700,9.974145751953126,9.824930191040039,-0.016749758273363113,-0.11724831163883209
1761314902774067200,9.993067138671876,9.841679573059082,-0.02632104977965355,-0.10289137065410614
1761314902792988700,10.01198876953125,9.834501266479492,-0.02871387079358101,-0.11485548317432404
1761314902811910400,10.030910400390624,9.810572624206543,-0.02871387079358101,-0.09571290761232376
1761314902830831900,10.049831787109374,9.822537422180176,-0.019142581149935722,-0.09571290761232376
1761314902849753300,10.06875341796875,9.822537422180176,0,-0.10049854964017868
1761314902868675000,10.087675048828125,9.81535816192627,-0.004785645287483931,-0.09571290761232376
1761314902887596500,10.106596435546875,9.827322959899902,-0.02153540402650833,-0.1052841991186142
1761314902906518000,10.12551806640625,9.829715728759766,-0.016749758273363113,-0.09810572862625122
1761314902925439700,10.144439697265625,9.81535816192627,0.009571290574967861,-0.1052841991186142
1761314902944361200,10.163361328125,9.824930191040039,-0.014356935396790504,-0.10289137065410614
1761314902963282700,10.18228271484375,9.827322959899902,-0.014356935396790504,-0.11246266216039658
1761314902982204400,10.201204345703125,9.827322959899902,0.0023928226437419653,-0.09571290761232376
1761314903001126000,10.2201259765625,9.817750930786133,-0.01196411345154047,-0.09571290761232376
1761314903020047400,10.23904736328125,9.81535816192627,-0.019142581149935722,-0.11246266216039658
1761314903038969000,10.257968994140626,9.839286804199219,-0.02632104977965355,-0.09571290761232376
1761314903057890600,10.276890625,9.832108497619629,-0.016749758273363113,-0.08614161610603333
1761314903076812000,10.29581201171875,9.805787086486816,-0.03349951654672623,-0.11006984114646912
1761314903095733800,10.314733642578124,9.817750930786133,-0.007178467698395252,-0.09092725813388824
1761314903114655200,10.3336552734375,9.829715728759766,-0.01196411345154047,-0.10767702013254166
1761314903133576700,10.35257666015625,9.80817985534668,0,-0.1052841991186142
1761314903152498400,10.37149853515625,9.824930191040039,-0.016749758273363113,-0.08135596662759781
1761314903171420000,10.390419921875,9.836894035339355,-0.009571290574967861,-0.09810572862625122
1761314903190341400,10.40934130859375,9.80817985534668,-0.016749758273363113,-0.11964113265275955
1761314903209263000,10.42826318359375,9.824930191040039,-0.009571290574967861,-0.07896314561367035
1761314903228184600,10.4471845703125,9.841679573059082,-0.02153540402650833,-0.10289137065410614
1761314903247106000,10.46610595703125,9.829715728759766,-0.007178467698395252,-0.09810572862625122
1761314903266027800,10.48502783203125,9.80817985534668,-0.019142581149935722,-0.0933200865983963
1761314903284949200,10.50394921875,9.803394317626953,0.01196411345154047,-0.12681959569454193
1761314903303870700,10.52287060546875,9.832108497619629,-0.02153540402650833,-0.11006984114646912
1761314903322792400,10.54179248046875,9.822537422180176,-0.01196411345154047,-0.11246266216039658
1761314903341714000,10.5607138671875,9.820143699645996,-0.0023928226437419653,-0.11246266216039658
1761314903360635400,10.579635498046875,9.824930191040039,-0.02632104977965355,-0.11964113265275955
1761314903379557000,10.59855712890625,9.820143699645996,-0.014356935396790504,-0.11485548317432404
1761314903398478600,10.617478515625,9.812965393066406,-0.035892341285943985,-0.09092725813388824
1761314903417400000,10.636400146484375,9.824930191040039,-0.01196411345154047,-0.11724831163883209
1761314903436321800,10.65532177734375,9.841679573059082,-0.02632104977965355,-0.1052841991186142
1761314903455243300,10.6742431640625,9.810572624206543,-0.01196411345154047,-0.11485548317432404
1761314903474164700,10.693164794921875,9.817750930786133,-0.014356935396790504,-0.09810572862625122
1761314903493086500,10.71208642578125,9.836894035339355,-0.038285162299871445,-0.10767702013254166
1761314903512008000,10.731008056640626,9.80817985534668,-0.007178467698395252,-0.10767702013254166
1761314903530929400,10.749929443359376,9.803394317626953,-0.007178467698395252,-0.1052841991186142
1761314903549851100,10.76885107421875,9.820143699645996,-0.02632104977965355,-0.09092725813388824
1761314903568772600,10.787772705078124,9.824930191040039,-0.02871387079358101,-0.11006984114646912
1761314903587694000,10.806694091796874,9.80817985534668,-0.03349951654672623,-0.07896314561367035
1761314903606615600,10.825615478515624,9.812965393066406,-0.03349951654672623,-0.11964113265275955
1761314903625537300,10.844537353515625,9.836894035339355,-0.009571290574967861,-0.1052841991186142
1761314903644458800,10.863458740234375,9.827322959899902,-0.02392822690308094,-0.10767702013254166
1761314903663380500,10.88238037109375,9.829715728759766,-0.01196411345154047,-0.0933200865983963
1761314903682302000,10.901302001953125,9.829715728759766,-0.035892341285943985,-0.08853443711996078
1761314903701223400,10.920223388671875,9.824930191040039,0.0023928226437419653,-0.11246266216039658
1761314903720145000,10.939144775390625,9.820143699645996,0.0023928226437419653,-0.0933200865983963
1761314903739066600,10.958066650390625,9.829715728759766,-0.007178467698395252,-0.10049854964017868
1761314903757988000,10.976988037109376,9.822537422180176,0,-0.08853443711996078
1761314903776909600,10.99590966796875,9.832108497619629,-0.014356935396790504,-0.1052841991186142
1761314903795831300,11.014831298828126,9.812965393066406,-0.014356935396790504,-0.09810572862625122
1761314903814752800,11.033752685546874,9.824930191040039,-0.019142581149935722,-0.1052841991186142
1761314903833674200,11.05267431640625,9.81535816192627,-0.007178467698395252,-0.1052841991186142
1761314903852596000,11.071595947265624,9.824930191040039,-0.016749758273363113,-0.11485548317432404
1761314903871517400,11.090517333984375,9.80817985534668,-0.02392822690308094,-0.11246266216039658
1761314903890439000,11.10943896484375,9.851250648498535,-0.019142581149935722,-0.11006984114646912
1761314903909360600,11.128360595703125,9.827322959899902,-0.016749758273363113,-0.1052841991186142
1761314903928282000,11.1472822265625,9.80817985534668,-0.0023928226437419653,-0.09571290761232376
1761314903947203600,11.16620361328125,9.822537422180176,-0.016749758273363113,-0.09571290761232376
1761314903966125300,11.185125244140625,9.824930191040039,-0.01196411345154047,-0.08135596662759781
1761314903985046800,11.204046875,9.810572624206543,-0.016749758273363113,-0.11006984114646912
1761314904003968300,11.22296826171875,9.805787086486816,-0.02153540402650833,-0.11964113265275955
1761314904022889700,11.2418896484375,9.824930191040039,-0.02392822690308094,-0.0933200865983963
1761314904041811500,11.2608115234375,9.829715728759766,-0.035892341285943985,-0.11485548317432404
1761314904060733000,11.27973291015625,9.832108497619629,-0.007178467698395252,-0.1052841991186142
1761314904079654400,11.298654296875,9.812965393066406,-0.01196411345154047,-0.11006984114646912
1761314904098576100,11.317576171875,9.81535816192627,-0.019142581149935722,-0.09810572862625122
1761314904117497600,11.33649755859375,9.824930191040039,-0.02632104977965355,-0.10767702013254166
1761314904136419000,11.355419189453125,9.832108497619629,-0.02871387079358101,-0.11485548317432404
1761314904155340800,11.3743408203125,9.824930191040039,-0.01196411345154047,-0.09571290761232376
1761314904174262300,11.39326220703125,9.822537422180176,0.007178467698395252,-0.12442677468061447
1761314904193183700,11.412183837890625,9.81535816192627,-0.031106693670153618,-0.09092725813388824
1761314904212105200,11.431105224609375,9.832108497619629,-0.035892341285943985,-0.11006984114646912
1761314904231027000,11.45002685546875,9.824930191040039,0,-0.08374879509210587
1761314904249948400,11.468948486328125,9.81535816192627,-0.004785645287483931,-0.1052841991186142
1761314904268870000,11.487869873046876,9.832108497619629,-0.004785645287483931,-0.09571290761232376
1761314904287791600,11.50679150390625,9.822537422180176,-0.01196411345154047,-0.10289137065410614
1761314904306713000,11.525713134765626,9.834501266479492,-0.007178467698395252,-0.10289137065410614
1761314904325634600,11.544634521484374,9.822537422180176,-0.02153540402650833,-0.0933200865983963
1761314904344556300,11.563556396484374,9.824930191040039,-0.01196411345154047,-0.09571290761232376
1761314904363477800,11.582477783203124,9.824930191040039,-0.014356935396790504,-0.1052841991186142
1761314904382399200,11.601399169921875,9.803394317626953,-0.009571290574967861,-0.09571290761232376
1761314904401321000,11.620321044921875,9.824930191040039,-0.004785645287483931,-0.11246266216039658
1761314904420242400,11.639242431640625,9.836894035339355,-0.01196411345154047,-0.1052841991186142
1761314904439164000,11.658163818359375,9.812965393066406,-0.009571290574967861,-0.11246266216039658
1761314904458085400,11.67708544921875,9.820143699645996,-0.02153540402650833,-0.10767702013254166
1761314904477007000,11.696007080078125,9.834501266479492,-0.02153540402650833,-0.11964113265275955
1761314904495928600,11.714928466796875,9.824930191040039,-0.014356935396790504,-0.09571290761232376
1761314904514850000,11.73385009765625,9.822537422180176,-0.031106693670153618,-0.09092725813388824
1761314904533771800,11.752771728515626,9.848857879638672,-0.014356935396790504,-0.11006984114646912
1761314904552693200,11.771693359375,9.832108497619629,-0.02153540402650833,-0.10049854964017868
1761314904571614700,11.79061474609375,9.817750930786133,-0.02871387079358101,-0.11964113265275955
1761314904590536200,11.8095361328125,9.817750930786133,-0.016749758273363113,-0.11246266216039658
1761314904609458000,11.8284580078125,9.832108497619629,-0.02871387079358101,-0.10767702013254166
1761314904628379400,11.84737939453125,9.798608779907227,-0.004785645287483931,-0.10767702013254166
1761314904647300900,11.86630078125,9.817750930786133,-0.016749758273363113,-0.09810572862625122
1761314904666222300,11.885222412109375,9.839286804199219,-0.009571290574967861,-0.09571290761232376
1761314904685144000,11.90414404296875,9.834501266479492,-0.014356935396790504,-0.07657032459974289
1761314904704065500,11.9230654296875,9.810572624206543,-0.004785645287483931,-0.11964113265275955
1761314904722987000,11.941987060546875,9.822537422180176,-0.0023928226437419653,-0.10049854964017868
1761314904741908700,11.96090869140625,9.824930191040039,-0.02153540402650833,-0.12921242415905
1761314904760830200,11.979830322265625,9.827322959899902,-0.009571290574967861,-0.10289137065410614
1761314904779751700,11.998751708984376,9.80817985534668,-0.014356935396790504,-0.1052841991186142
1761314904798673400,12.01767333984375,9.832108497619629,-0.016749758273363113,-0.10049854964017868
1761314904817595000,12.036594970703124,9.829715728759766,-0.009571290574967861,-0.11006984114646912
1761314904836516400,12.055516357421874,9.820143699645996,-0.019142581149935722,-0.11485548317432404
1761314904855437800,12.074437744140624,9.836894035339355,-0.009571290574967861,-0.10767702013254166
1761314904874359600,12.093359619140625,9.817750930786133,0,-0.08614161610603333
1761314904893281000,12.112281005859375,9.803394317626953,-0.03349951654672623,-0.11246266216039658
1761314904912202500,12.131202392578125,9.81535816192627,-0.02153540402650833,-0.11006984114646912
1761314904931124200,12.150124267578125,9.829715728759766,-0.035892341285943985,-0.10767702013254166
1761314904950045700,12.169045654296875,9.81535816192627,0.0023928226437419653,-0.10767702013254166
1761314904968967200,12.18796728515625,9.81535816192627,-0.040677983313798904,-0.10767702013254166
1761314904987888600,12.206888671875,9.836894035339355,-0.014356935396790504,-0.08374879509210587
1761314905006810400,12.225810302734375,9.820143699645996,-0.02871387079358101,-0.11485548317432404
1761314905025731800,12.24473193359375,9.812965393066406,-0.014356935396790504,-0.11485548317432404
1761314905044653300,12.2636533203125,9.812965393066406,-0.004785645287483931,-0.09810572862625122
1761314905063574800,12.28257470703125,9.839286804199219,-0.02392822690308094,-0.12203395366668701
1761314905082496500,12.30149658203125,9.824930191040039,-0.019142581149935722,-0.10767702013254166
1761314905101418000,12.32041796875,9.820143699645996,-0.014356935396790504,-0.11246266216039658
1761314905120339500,12.33933935546875,9.839286804199219,-0.038285162299871445,-0.11964113265275955
1761314905139261000,12.358260986328125,9.81535816192627,-0.02153540402650833,-0.1052841991186142
1761314905158182700,12.3771826171875,9.829715728759766,-0.009571290574967861,-0.11964113265275955
1761314905177104100,12.396104248046875,9.839286804199219,-0.01196411345154047,-0.09810572862625122
1761314905196025600,12.415025634765625,9.832108497619629,-0.02871387079358101,-0.10767702013254166
1761314905214947300,12.433947265625,9.810572624206543,-0.009571290574967861,-0.08853443711996078
1761314905233868800,12.452868896484375,9.820143699645996,0.004785645287483931,-0.11724831163883209
1761314905252790300,12.471790283203125,9.824930191040039,-0.01196411345154047,-0.09571290761232376
1761314905271712000,12.4907119140625,9.812965393066406,0.004785645287483931,-0.10767702013254166
1761314905290633500,12.509633544921876,9.81535816192627,-0.01196411345154047,-0.10289137065410614
1761314905309555000,12.528554931640626,9.827322959899902,-0.014356935396790504,-0.10049854964017868
1761314905328476400,12.547476318359376,9.822537422180176,-0.007178467698395252,-0.11485548317432404
1761314905347398100,12.566398193359374,9.820143699645996,-0.031106693670153618,-0.10049854964017868
1761314905366319600,12.585319580078124,9.810572624206543,-0.009571290574967861,-0.0933200865983963
1761314905385241000,12.604240966796874,9.824930191040039,-0.02392822690308094,-0.1052841991186142
1761314905404162600,12.62316259765625,9.817750930786133,-0.01196411345154047,-0.11485548317432404
1761314905423084300,12.642084228515625,9.820143699645996,-0.004785645287483931,-0.09092725813388824
1761314905442005800,12.661005859375,9.829715728759766,-0.02153540402650833,-0.0933200865983963
1761314905460927200,12.67992724609375,9.827322959899902,-0.01196411345154047,-0.10767702013254166
1761314905479848700,12.6988486328125,9.810572624206543,0,-0.11006984114646912
1761314905498770400,12.7177705078125,9.80817985534668,-0.016749758273363113,-0.08135596662759781
1761314905517692000,12.73669189453125,9.810572624206543,-0.0023928226437419653,-0.10767702013254166
1761314905536613400,12.75561328125,9.81535816192627,-0.04546362906694412,-0.11246266216039658
1761314905555534800,12.774534912109376,9.803394317626953,0.007178467698395252,-0.09810572862625122
1761314905574456600,12.79345654296875,9.820143699645996,-0.007178467698395252,-0.1052841991186142
1761314905593378000,12.8123779296875,9.824930191040039,-0.02871387079358101,-0.11006984114646912
1761314905612299500,12.831299560546874,9.829715728759766,-0.009571290574967861,-0.1052841991186142
1761314905631221000,12.850220947265624,9.822537422180176,0,-0.12921242415905
1761314905650142700,12.869142822265625,9.846465110778809,-0.02632104977965355,-0.11246266216039658
1761314905669064200,12.888064208984375,9.829715728759766,-0.014356935396790504,-0.09571290761232376
1761314905687985700,12.906985595703125,9.81535816192627,-0.014356935396790504,-0.09810572862625122
1761314905706907100,12.9259072265625,9.824930191040039,-0.019142581149935722,-0.11246266216039658
1761314905725828900,12.944828857421875,9.834501266479492,-0.019142581149935722,-0.08614161610603333
1761314905744750300,12.963750244140625,9.803394317626953,0.007178467698395252,-0.1052841991186142
1761314905763671800,12.982671875,9.81535816192627,-0.019142581149935722,-0.10049854964017868
1761314905782593300,13.00159326171875,9.841679573059082,-0.009571290574967861,-0.0933200865983963
1761314905801515000,13.020514892578126,9.822537422180176,0.004785645287483931,-0.1052841991186142
1761314905820436500,13.0394365234375,9.810572624206543,-0.009571290574967861,-0.09092725813388824
1761314905839358000,13.05835791015625,9.839286804199219,-0.016749758273363113,-0.08853443711996078
1761314905858279400,13.077279541015624,9.836894035339355,-0.014356935396790504,-0.09810572862625122
1761314905877201200,13.096201171875,9.812965393066406,-0.014356935396790504,-0.10767702013254166
1761314905896122600,13.11512255859375,9.829715728759766,-0.035892341285943985,-0.1052841991186142
1761314905915044000,13.134044189453125,9.822537422180176,-0.019142581149935722,-0.1052841991186142
1761314905933965600,13.152965576171875,9.836894035339355,-0.014356935396790504,-0.08135596662759781
1761314905952887300,13.17188720703125,9.810572624206543,-0.004785645287483931,-0.09571290761232376
1761314905971808800,13.190808837890625,9.827322959899902,-0.02153540402650833,-0.08374879509210587
1761314905990730200,13.209730224609375,9.827322959899902,-0.007178467698395252,-0.10049854964017868
1761314906009651700,13.228651611328125,9.817750930786133,-0.02153540402650833,-0.10049854964017868
1761314906028573400,13.247573486328125,9.820143699645996,-0.01196411345154047,-0.0933200865983963
1761314906047495000,13.266494873046875,9.832108497619629,-0.01196411345154047,-0.10049854964017868
1761314906066416400,13.28541650390625,9.817750930786133,-0.016749758273363113,-0.09092725813388824
1761314906085337900,13.304337890625,9.803394317626953,-0.01196411345154047,-0.09092725813388824
1761314906104259600,13.323259521484376,9.81535816192627,-0.0023928226437419653,-0.0933200865983963
1761314906123181000,13.34218115234375,9.827322959899902,-0.02153540402650833,-0.11246266216039658
1761314906142102500,13.3611025390625,9.812965393066406,-0.016749758273363113,-0.10767702013254166
1761314906161024000,13.38002392578125,9.820143699645996,-0.02632104977965355,-0.11006984114646912
1761314906179945700,13.39894580078125,9.822537422180176,-0.019142581149935722,-0.10049854964017868
1761314906198867200,13.4178671875,9.796216011047363,-0.009571290574967861,-0.11006984114646912
1761314906217788700,13.43678857421875,9.822537422180176,-0.02153540402650833,-0.10049854964017868
1761314906236710100,13.455710205078125,9.827322959899902,-0.03349951654672623,-0.10767702013254166
1761314906255632000,13.4746318359375,9.817750930786133,-0.02392822690308094,-0.10049854964017868
1761314906274553300,13.49355322265625,9.81535816192627,-0.019142581149935722,-0.11964113265275955
1761314906293474800,13.512474853515625,9.836894035339355,-0.02871387079358101,-0.09571290761232376
1761314906312396300,13.531396240234375,9.817750930786133,-0.02153540402650833,-0.09092725813388824
1761314906331318000,13.550318115234376,9.820143699645996,-0.014356935396790504,-0.08853443711996078
1761314906350239500,13.569239501953126,9.803394317626953,-0.02632104977965355,-0.11246266216039658
1761314906369161000,13.588160888671876,9.844072341918945,0,-0.1052841991186142
1761314906388082400,13.60708251953125,9.820143699645996,-0.004785645287483931,-0.08853443711996078
1761314906407004200,13.626004150390624,9.80817985534668,-0.04307080805301666,-0.11006984114646912
1761314906425925600,13.644925537109375,9.812965393066406,-0.031106693670153618,-0.10767702013254166
1761314906444847000,13.66384716796875,9.810572624206543,-0.016749758273363113,-0.10049854964017868
1761314906463768600,13.6827685546875,9.80817985534668,-0.016749758273363113,-0.11006984114646912
1761314906482690300,13.701690185546875,9.836894035339355,-0.02871387079358101,-0.11246266216039658
1761314906501611800,13.72061181640625,9.820143699645996,-0.01196411345154047,-0.11006984114646912
1761314906520533200,13.739533203125,9.812965393066406,-0.014356935396790504,-0.10767702013254166
1761314906539454700,13.758454833984375,9.805787086486816,-0.02871387079358101,-0.10289137065410614
1761314906558376200,13.777376220703125,9.836894035339355,-0.02392822690308094,-0.11006984114646912
1761314906577298000,13.7962978515625,9.827322959899902,0,-0.11724831163883209
1761314906596219400,13.815219482421876,9.824930191040039,-0.02632104977965355,-0.12681959569454193
1761314906615140900,13.834140869140626,9.834501266479492,-0.014356935396790504,-0.10049854964017868
1761314906634062300,13.853062255859374,9.832108497619629,-0.009571290574967861,-0.0933200865983963
1761314906652984000,13.871984130859374,9.824930191040039,-0.02632104977965355,-0.12203395366668701
1761314906671905500,13.890905517578124,9.812965393066406,-0.02392822690308094,-0.1052841991186142
1761314906690827000,13.909826904296875,9.824930191040039,-0.009571290574967861,-0.12203395366668701
1761314906709748500,13.92874853515625,9.820143699645996,-0.007178467698395252,-0.08614161610603333
1761314906728670200,13.947670166015625,9.822537422180176,-0.014356935396790504,-0.10049854964017868
1761314906747591700,13.966591796875,9.820143699645996,-0.019142581149935722,-0.10767702013254166
1761314906766513200,13.98551318359375,9.829715728759766,-0.038285162299871445,-0.1052841991186142
1761314906785434600,14.0044345703125,9.76989459991455,0,-0.14356936514377594
1761314906804356000,14.023356201171875,9.772287368774414,0,-0.13639089465141296
1761314906823277800,14.04227783203125,9.90149974822998,-0.05742774158716202,-0.05024927482008934
1761314906842199300,14.06119921875,9.812965393066406,-0.004785645287483931,-0.11485548317432404
