time,seconds_elapsed,z,y,x
1761401467627481000,0.117481201171875,-0.011074846610426903,0.05937116965651512,-0.04683078080415726
1761401467637561900,0.127561767578125,-0.015804555267095566,0.06608269363641739,-0.039602987468242645
1761401467647642400,0.137642333984375,-0.01928522251546383,0.07149521261453629,-0.038054171949625015
1761401467657723400,0.147723388671875,-0.02291577309370041,0.07299406826496124,-0.03993606194853783
1761401467667787800,0.157787841796875,-0.025830205529928207,0.0750424936413765,-0.03695501387119293
1761401467677907500,0.167907470703125,-0.029877105727791786,0.08130436390638351,-0.026446400210261345
1761401467687989000,0.177989013671875,-0.03427373617887497,0.09519372135400772,-0.01039203628897667
1761401467698047500,0.188047607421875,-0.03572262451052666,0.11376282572746277,0.0038637060206383467
1761401467708150500,0.198150634765625,-0.03315792605280876,0.1282350718975067,0.008143759332597256
1761401467718219800,0.2082197265625,-0.02847817726433277,0.135712668299675,0.002348200650885701
1761401467728312600,0.2183125,-0.022282924503087997,0.13094964623451233,-0.010974923148751259
1761401467738394000,0.22839404296875,-0.020017992705106735,0.1128801703453064,-0.02274923399090767
1761401467748460000,0.2384599609375,-0.021017227321863174,0.09096362441778183,-0.024397971108555794
1761401467758526200,0.248526123046875,-0.02083403430879116,0.07737404108047485,-0.013556278310716152
1761401467768633900,0.2586337890625,-0.01530493889003992,0.07572530210018158,0.0022649310994893312
1761401467778718000,0.268718017578125,-0.006062021479010582,0.0767078846693039,0.01342304702848196
1761401467788798700,0.278798828125,0.0011824272805824876,0.06583288311958313,0.016720520332455635
1761401467798844400,0.288844482421875,0.005878828465938568,0.047197166830301285,0.015121745876967907
1761401467808909800,0.298909912109375,0.00646171486005187,0.021516844630241394,0.011807618662714958
1761401467819018500,0.3090185546875,0.006211906671524048,0.007927258498966694,0.009959034621715546
1761401467829095400,0.319095458984375,0.008676684461534023,-0.008376914076507092,0.007644142489880323
1761401467839203600,0.32920361328125,0.008643376640975475,-0.030243491753935814,0.0013656201772391796
1761401467849277700,0.339277587890625,0.003180895932018757,-0.052326567471027374,-0.006828100886195898
1761401467859364600,0.349364501953125,-0.005495788529515266,-0.07662461698055267,-0.012623660266399384
1761401467869427200,0.35942724609375,-0.014655436389148235,-0.09442763775587082,-0.015005168505012989
1761401467879527000,0.36952685546875,-0.016803789883852005,-0.10648506879806519,-0.01737002283334732
1761401467889608000,0.37960791015625,-0.011457886546850204,-0.11442898213863373,-0.02687940187752247
1761401467899695400,0.3896953125,-0.002781202085316181,-0.12592017650604248,-0.039353176951408386
1761401467909747700,0.399747802734375,-0.0015654671005904675,-0.14840294420719147,-0.05314261093735695
1761401467919814000,0.40981396484375,-0.009226263500750065,-0.17281757295131683,-0.06271860748529434
1761401467929932300,0.419932373046875,-0.021550152450799942,-0.1831263303756714,-0.06376779824495316
1761401467940013600,0.430013671875,-0.029360834509134293,-0.17439968883991241,-0.05827201157808304
1761401467950094000,0.440093994140625,-0.03114280290901661,-0.15598046779632568,-0.05156048759818077
1761401467960174800,0.4501748046875,-0.026146629825234413,-0.13376416265964508,-0.047613512724637985
1761401467970255400,0.46025537109375,-0.020484302192926407,-0.11171439290046692,-0.045198697596788406
1761401467980337000,0.4703369140625,-0.01300669927150011,-0.09822472929954529,-0.04303368926048279
1761401467990381000,0.480381103515625,-0.006911370437592268,-0.08786600083112717,-0.03858709707856178
1761401468000500500,0.49050048828125,-0.0009825803572311997,-0.07895616441965103,-0.03360757976770401
1761401468010580700,0.500580810546875,0.0011824272805824876,-0.07079575210809708,-0.02446458674967289
1761401468020660000,0.510659912109375,-0.002481431933119893,-0.06533326953649521,-0.012223966419696808
1761401468030741800,0.52074169921875,-0.005179364234209061,-0.06033709645271301,-0.0007660796400159597
1761401468040822300,0.530822265625,-0.0053792111575603485,-0.05654000863432884,0.006211906671524048
1761401468050903000,0.540903076171875,-0.004313361365348101,-0.058888208121061325,0.00559571199119091
1761401468060983800,0.55098388671875,-0.0009992342675104737,-0.06856412440538406,0.004929556045681238
1761401468071065900,0.56106591796875,0.006128637120127678,-0.07605838030576706,0.0020317763555794954
1761401468081147400,0.5711474609375,0.010525267571210861,-0.07229460030794144,-0.002314892830327153
1761401468091227100,0.58122705078125,0.012124042958021164,-0.06506680697202682,-0.004829632584005594
1761401468101308700,0.59130859375,0.008260336704552174,-0.06318491697311401,-0.00567898154258728
1761401468111367400,0.601367431640625,0.004996171221137047,-0.06606604158878326,-0.00584552064538002
1761401468121448200,0.6114482421875,0.0022149693686515093,-0.07017955183982849,-0.011058192700147629
1761401468131552300,0.62155224609375,0.00011657733557512984,-0.0769909992814064,-0.018602412194013596
1761401468141610200,0.6316103515625,-0.002997702918946743,-0.08663361519575119,-0.023998277261853218
1761401468151714800,0.64171484375,-0.00687806261703372,-0.09889088571071625,-0.025530437007546425
1761401468161794300,0.651794189453125,-0.014905245043337345,-0.10835030674934387,-0.028877871111035347
1761401468171875600,0.66187548828125,-0.021566806361079216,-0.11138131469488144,-0.025230666622519493
1761401468181955800,0.671955810546875,-0.022566040977835655,-0.10498621314764023,-0.014322358183562756
1761401468192038000,0.682037841796875,-0.023515313863754272,-0.0942111387848854,-0.0012990045361220837
1761401468202118400,0.692118408203125,-0.018602412194013596,-0.08884858340024948,0.0038137442898005247
1761401468212200400,0.702200439453125,-0.015171707607805729,-0.09106355160474777,0.004246745724231005
1761401468222280200,0.7122802734375,-0.014472243376076221,-0.09889088571071625,0.004246745724231005
1761401468232362000,0.722362060546875,-0.01803617924451828,-0.10661830008029938,0.006861408706754446
1761401468242442000,0.73244189453125,-0.024281393736600876,-0.0987243503332138,0.010991577059030533
1761401468252524000,0.74252392578125,-0.033674195408821106,-0.08690007776021957,0.016887059435248375
1761401468262605300,0.752605224609375,-0.040968604385852814,-0.07697434723377228,0.020517610013484955
1761401468282766300,0.772766357421875,-0.033874042332172394,-0.06766481697559357,0.007361026015132666
1761401468292846300,0.782846435546875,-0.029160987585783005,-0.06943012773990631,-0.0007827335502952337
1761401468302928400,0.792928466796875,-0.02814509905874729,-0.07086236774921417,-0.003264165250584483
1761401468313010000,0.803010009765625,-0.030793070793151855,-0.07405991107225418,-0.0011824272805824876
1761401468323067000,0.81306689453125,-0.03465677425265312,-0.06758154928684235,0.005728943273425102
1761401468333171200,0.823171142578125,-0.037554554641246796,-0.06295175850391388,0.010175535455346107
1761401468343252000,0.833251953125,-0.03798755630850792,-0.05752258747816086,0.01102488487958908
1761401468353333000,0.8433330078125,-0.0370049774646759,-0.04223430156707764,0.014788667671382427
1761401468363414300,0.853414306640625,-0.034673430025577545,-0.04246745631098747,0.017636485397815704
1761401468373479200,0.863479248046875,-0.03800421208143234,0.0002997702977154404,0.024014931172132492
1761401468383576000,0.873576171875,-0.039802830666303635,0.03405723720788956,0.04409953951835632
1761401468393658400,0.883658447265625,-0.04504881426692009,0.04671420156955719,0.069280244410038
1761401468403738400,0.89373828125,-0.05009494721889496,0.058005549013614655,0.07992208749055862
1761401468413819600,0.903819580078125,-0.0444992333650589,0.06363456696271896,0.06861408799886703
1761401468423900200,0.913900146484375,-0.03782101720571518,0.04006929323077202,0.04969525337219238
1761401468433981200,0.923981201171875,-0.03703828528523445,-0.0038637060206383467,0.036255549639463425
1761401468444063000,0.93406298828125,-0.043766461312770844,-0.03602239489555359,0.03152584284543991
1761401468454143200,0.944143310546875,-0.05409188196063042,-0.062185682356357574,0.03200880438089371
1761401468464224500,0.954224609375,-0.061785988509655,-0.08478502929210663,0.03222530707716942
1761401468474305000,0.964304931640625,-0.0658828467130661,-0.1008060872554779,0.02538055181503296
1761401468484386000,0.974385986328125,-0.06370118260383606,-0.10738437622785568,0.013306469656527042
1761401468494466800,0.984466796875,-0.05978751927614212,-0.12089069187641144,0.0019984685350209475
1761401468504547800,0.9945478515625,-0.058938167989254,-0.1430736929178238,-0.0038803599309176207
1761401468514628900,1.00462890625,-0.06120309978723526,-0.17180168628692627,-0.009842458181083202
1761401468524710000,1.0147099609375,-0.06943012773990631,-0.19373486936092377,-0.01978483982384205
1761401468534791200,1.024791259765625,-0.07770711928606033,-0.20830704271793365,-0.035422854125499725
1761401468544871700,1.03487158203125,-0.08401895314455032,-0.20830704271793365,-0.05054460093379021
1761401468554952700,1.04495263671875,-0.08576761186122894,-0.21358633041381836,-0.06568299978971481
1761401468565011500,1.055011474609375,-0.08355264365673065,-0.20247817039489746,-0.07627488672733307
1761401468575114800,1.06511474609375,-0.07226129621267319,-0.19286887347698212,-0.0687306672334671
1761401468585195500,1.075195556640625,-0.06271860748529434,-0.18872204422950745,-0.050661180168390274
1761401468595276300,1.0852763671875,-0.06346803158521652,-0.19386810064315796,-0.0399860255420208
1761401468605358600,1.095358642578125,-0.06634915620088577,-0.21475210785865784,-0.03568931668996811
1761401468615438800,1.10543896484375,-0.06798124313354492,-0.22685949504375458,-0.03537289425730705
1761401468625499100,1.1154990234375,-0.06874731928110123,-0.23017361760139465,-0.040352411568164825
1761401468635601200,1.12560107421875,-0.06853082031011581,-0.2464444786310196,-0.048745978623628616
1761401468645659000,1.135658935546875,-0.06939682364463806,-0.2769877314567566,-0.05537423491477966
1761401468655763700,1.145763671875,-0.06996305286884308,-0.29995349049568176,-0.056923046708106995
1761401468665844000,1.155843994140625,-0.06378445774316788,-0.29827144742012024,-0.0559571199119091
1761401468675894500,1.16589453125,-0.049995023757219315,-0.2762383222579956,-0.058804936707019806
1761401468686005800,1.176005859375,-0.03687174618244171,-0.23821745812892914,-0.06240218132734299
1761401468696087300,1.18608740234375,-0.03180895745754242,-0.18575765192508698,-0.0646338015794754
1761401468706145300,1.196145263671875,-0.029127679765224457,-0.13328120112419128,-0.06285183876752853
1761401468716249000,1.2062490234375,-0.02626320719718933,-0.10240486264228821,-0.04947875067591667
1761401468726322000,1.216322021484375,-0.023065658286213875,-0.08218701928853989,-0.0308929942548275
1761401468736411000,1.226410888671875,-0.01991806924343109,-0.0758751928806305,-0.014871937222778797
1761401468746492000,1.236491943359375,-0.016104325652122498,-0.0634513795375824,-0.004946209955960512
1761401468756557800,1.246557861328125,-0.011624425649642944,-0.04220099374651909,-0.004130168352276087
1761401468766653400,1.2566533203125,-0.006495022680610418,-0.015005168505012989,-0.007077909540385008
1761401468776734200,1.266734130859375,-0.0020983919966965914,0.014455589465796947,-0.010008996352553368
1761401468786799600,1.276799560546875,0.002947741188108921,0.04258403554558754,-0.00576225109398365
1761401468796896500,1.286896484375,0.009892419911921024,0.062102410942316055,0.0044465926475822926
1761401468806980400,1.29698046875,0.013373085297644138,0.07146190851926804,0.01866902783513069
1761401468817058300,1.307058349609375,0.012040773406624794,0.08152086287736893,0.030126914381980896
1761401468827139800,1.317139892578125,0.008776607923209667,0.08265332877635956,0.03548946976661682
1761401468837222000,1.327221923828125,0.002797855995595455,0.07977220416069031,0.0387369841337204
1761401468847301000,1.337301025390625,-0.003996937070041895,0.07480934262275696,0.04121841490268707
1761401468857382700,1.347382568359375,-0.00857676099985838,0.07592514902353287,0.04195118695497513
1761401468867463700,1.357463623046875,-0.010491959750652313,0.07975555211305618,0.04088533669710159
1761401468877521700,1.367521728515625,-0.01284016016870737,0.08456853032112122,0.03702162951231003
1761401468887625700,1.377625732421875,-0.01728675328195095,0.08593414723873138,0.03052660822868347
1761401468897707000,1.38770703125,-0.02224961668252945,0.07547549903392792,0.02120042033493519
1761401468907764700,1.3977646484375,-0.0263464767485857,0.0597042478621006,0.006594946142286062
1761401468917868500,1.40786865234375,-0.028944486752152443,0.041135143488645554,-0.009759188629686832
1761401468927929300,1.417929443359375,-0.0296772588044405,0.028245022520422935,-0.020051300525665283
1761401468938031400,1.42803125,-0.03144257143139839,0.025397205725312233,-0.02521401271224022
1761401468948111600,1.438111572265625,-0.029993683099746704,0.032258614897727966,-0.027462288737297058
1761401468958192400,1.4481923828125,-0.030493300408124924,0.0424174964427948,-0.029111025854945183
1761401468968272600,1.458272705078125,-0.02909437194466591,0.050994258373975754,-0.027562212198972702
1761401468978331400,1.468331298828125,-0.02584685944020748,0.05510777235031128,-0.02504747360944748
1761401468988435200,1.478435302734375,-0.022399501875042915,0.058388590812683105,-0.020017992705106735
1761401468998511000,1.488510986328125,-0.022699272260069847,0.061935871839523315,-0.0075775268487632275
1761401469008614700,1.49861474609375,-0.02291577309370041,0.07072913646697998,0.007777373772114515
1761401469018636000,1.508635986328125,-0.021350305527448654,0.08222033083438873,0.021383613348007202
1761401469028759600,1.518759521484375,-0.020967265591025352,0.09286217391490936,0.031409263610839844
1761401469038839800,1.52883984375,-0.02053426392376423,0.1021883636713028,0.03653866797685623
1761401469048898300,1.538898193359375,-0.01712021417915821,0.1090664193034172,0.03815409541130066
1761401469059001900,1.549001953125,-0.01530493889003992,0.11159781366586685,0.03912002220749855
1761401469069060000,1.55906005859375,-0.01417247299104929,0.11699368059635162,0.03941979259252548
1761401469079164200,1.5691640625,-0.011574463918805122,0.1280185729265213,0.04153483733534813
1761401469089245700,1.57924560546875,-0.0074776033870875835,0.13469678163528442,0.04336676746606827
1761401469099325700,1.58932568359375,-0.0037970903795212507,0.1315658539533615,0.04453254118561745
1761401469109375700,1.599375732421875,-0.0010658499086275697,0.12970061600208282,0.04203445464372635
1761401469119487700,1.60948779296875,0.0026646247133612633,0.12721918523311615,0.04058556631207466
1761401469129546800,1.619546630859375,0.005196018144488335,0.12160681188106537,0.03965294733643532
1761401469139657500,1.629657470703125,0.006644907873123884,0.1211405023932457,0.04088533669710159
1761401469149748500,1.63974853515625,0.00816041324287653,0.12910106778144836,0.04145156964659691
1761401469159789600,1.64978955078125,0.010675152763724327,0.13344773650169373,0.04020252451300621
1761401469169892600,1.659892578125,0.01119142398238182,0.1260700523853302,0.03727144002914429
1761401469179974400,1.669974365234375,0.01144123263657093,0.11334647983312607,0.03260834515094757
1761401469190052400,1.68005224609375,0.01383939478546381,0.09972358494997025,0.0259634368121624
1761401469200114200,1.6901142578125,0.01425574254244566,0.09031412750482559,0.02213303931057453
1761401469210194400,1.7001943359375,0.015021822415292263,0.08391902595758438,0.021100496873259544
1761401469220297700,1.710297607421875,0.017303407192230225,0.08505149185657501,0.019934723153710365
1761401469230379000,1.72037890625,0.020467648282647133,0.08991443365812302,0.0189188364893198
1761401469240473900,1.730473876953125,0.020067954435944557,0.09582656621932983,0.0160377100110054
1761401469250541000,1.740541015625,0.019151991233229637,0.09609302878379822,0.013356431387364864
1761401469260598800,1.750598876953125,0.015571401454508305,0.08756623417139053,0.010974923148751259
1761401469270702800,1.760702880859375,0.01408920343965292,0.07367687672376633,0.010075611993670464
1761401469280784000,1.770783935546875,0.015871170908212662,0.059804171323776245,0.01144123263657093
1761401469290835500,1.78083544921875,0.019385145977139473,0.05197683721780777,0.01269027590751648
1761401469300944400,1.7909443359375,0.023981623351573944,0.061469562351703644,0.011824272572994232
1761401469310982700,1.800982666015625,0.024980857968330383,0.06681546568870544,0.00737767992541194
1761401469321107000,1.81110693359375,0.021616768091917038,0.071295365691185,0.005495788529515266
1761401469331189000,1.82118896484375,0.01678713597357273,0.07054594159126282,0.0000666156192892231
1761401469341252600,1.831252685546875,0.014039241708815098,0.06240218132734299,-0.003480666084215045
1761401469351350300,1.841350341796875,0.014039241708815098,0.050744447857141495,-0.004796324763447046
1761401469361431000,1.85143115234375,0.014239088632166386,0.036755166947841644,-0.004180130083113909
1761401469371512800,1.861512939453125,0.014638782478868961,0.02701263315975666,-0.003930321428924799
1761401469381592800,1.8715927734375,0.014222434721887112,0.018685681745409966,-0.0053958650678396225
1761401469391675000,1.8816748046875,0.013955972157418728,0.00954268779605627,-0.010775076225399971
1761401469401755600,1.891755615234375,0.011724349111318588,0.002947741188108921,-0.017436638474464417
1761401469411831800,1.901831787109375,0.008376914076507092,-0.0011491194600239396,-0.024098200723528862
1761401469421917700,1.911917724609375,0.003513973904773593,-0.008976454846560955,-0.02931087277829647
1761401469431998200,1.921998291015625,0.00019984686514362693,-0.01555474754422903,-0.03164241835474968
1761401469442079200,1.932079345703125,-0.0021150459069758654,-0.017053598538041115,-0.03274157643318176
1761401469452160500,1.942160400390625,-0.0016320826252922416,-0.019634954631328583,-0.030210183933377266
1761401469462241300,1.9522412109375,0.0006328483577817678,-0.020767418667674065,-0.02809513732790947
1761401469472323000,1.962322998046875,0.003097626380622387,-0.020850688219070435,-0.026196591556072235
1761401469482403800,1.97240380859375,0.004046898800879717,-0.02020118571817875,-0.02459781803190708
1761401469492483600,1.982483642578125,0.007177833002060652,-0.015687977895140648,-0.02308231219649315
1761401469502564600,1.992564697265625,0.010042304173111916,-0.011924196034669876,-0.020101262256503105
1761401469512630500,2.002630615234375,0.013656201772391796,-0.010741768404841423,-0.01673717424273491
1761401469522726700,2.0127265625,0.014039241708815098,-0.012473775073885918,-0.015754593536257744
1761401469532808000,2.022807861328125,0.011790964752435684,-0.01620424911379814,-0.01753656193614006
1761401469542889000,2.032888916015625,0.006478368770331144,-0.023781776428222656,-0.01841921918094158
1761401469552969700,2.0429697265625,0.0019318530103191733,-0.03185892105102539,-0.017103560268878937
1761401469563051000,2.053051025390625,-0.0002165007608709857,-0.03643874451518059,-0.015088438056409359
1761401469573109200,2.063109130859375,0.004379977006465197,-0.039553023874759674,-0.01728675328195095
1761401469583213300,2.07321337890625,0.01144123263657093,-0.042317572981119156,-0.020817380398511887
1761401469593292800,2.083292724609375,0.01756986975669861,-0.0420011468231678,-0.02576358988881111
1761401469603375400,2.093375244140625,0.021300343796610832,-0.03928656131029129,-0.028294984251260757
1761401469613457200,2.10345703125,0.02454785630106926,-0.040635526180267334,-0.029960375279188156
1761401469623536400,2.113536376953125,0.02488093450665474,-0.04316692054271698,-0.030926302075386047
1761401469633618000,2.123617919921875,0.022732580080628395,-0.04814643785357475,-0.027578866109251976
1761401469643699000,2.133698974609375,0.0210005734115839,-0.0535256490111351,-0.021433575078845024
1761401469653780000,2.143780029296875,0.022516079246997833,-0.05837193503975868,-0.01615428738296032
1761401469663861000,2.153861083984375,0.023365428671240807,-0.06032044440507889,-0.012940083630383015
1761401469673941500,2.16394140625,0.023398736491799355,-0.0634513795375824,-0.013239854015409946
1761401469684021800,2.174021728515625,0.020184531807899475,-0.07256106287240982,-0.015105091966688633
1761401469694103000,2.18410302734375,0.02066749520599842,-0.0744929164648056,-0.018219372257590294
1761401469704185000,2.19418505859375,0.023498659953475,-0.07292745262384415,-0.02025114744901657
1761401469714265900,2.204265869140625,0.02568032033741474,-0.06599942594766617,-0.01811944879591465
1761401469724347400,2.214347412109375,0.02617993764579296,-0.05918797850608826,-0.016170941293239594
1761401469734428000,2.224427978515625,0.024531202390789986,-0.052293259650468826,-0.01417247299104929
1761401469744509000,2.234509033203125,0.023998277261853218,-0.047996554523706436,-0.012307235971093178
1761401469754589000,2.2445888671875,0.02379843033850193,-0.04516538977622986,-0.011541156098246574
1761401469764671000,2.2546708984375,0.024697741493582726,-0.04045233502984047,-0.011341309174895287
1761401469774751700,2.264751708984375,0.025996744632720947,-0.03394065797328949,-0.012407159432768822
1761401469784833000,2.2748330078125,0.024481240659952164,-0.029244257137179375,-0.012640314176678658
1761401469794913500,2.28491357421875,0.021383613348007202,-0.022516079246997833,-0.010458651930093765
1761401469804994000,2.294994140625,0.018985452130436897,-0.01861906610429287,-0.006828100886195898
1761401469815076000,2.305076171875,0.017886294052004814,-0.016170941293239594,-0.0038137442898005247
1761401469825155600,2.315155517578125,0.017586523666977882,-0.015488131903111935,-0.0013489662669599056
1761401469835238400,2.32523828125,0.018902182579040527,-0.014821975491940975,-0.0002997702977154404
1761401469845318400,2.335318359375,0.021067189052700996,-0.012806852348148823,0.002847817726433277
1761401469855399200,2.345399169921875,0.02238284796476364,-0.009509379975497723,0.004213437903672457
1761401469865481000,2.35548095703125,0.02321554347872734,-0.00654498441144824,0.00626186840236187
1761401469875561000,2.36556103515625,0.023698506876826286,-0.004862940404564142,0.00646171486005187
1761401469885642200,2.375642333984375,0.02249942533671856,-0.0016487365355715156,0.00857676099985838
1761401469895723500,2.3857236328125,0.02166672982275486,0.004146822262555361,0.010575229302048683
1761401469905803800,2.3958037109375,0.022232962772250175,0.00866003055125475,0.016087671741843224
1761401469915885800,2.4058857421875,0.02204976975917816,0.01047530584037304,0.019801493734121323
1761401469925966000,2.415966064453125,0.021483536809682846,0.009675919078290462,0.0189188364893198
1761401469936021500,2.426021484375,0.02091730386018753,0.006944678258150816,0.014155819080770016
1761401469946128400,2.43612841796875,0.02404823899269104,0.0018652373692020774,0.011407924816012383
1761401469956208600,2.446208740234375,0.027445634827017784,-0.0025313934311270714,0.011407924816012383
1761401469966291000,2.456291015625,0.02776205912232399,-0.0025313934311270714,0.013356431387364864
1761401469976372200,2.466372314453125,0.025780243799090385,0.002464778022840619,0.016970328986644745
1761401469986452200,2.4764521484375,0.026479708030819893,0.008793261833488941,0.021233728155493736
1761401469996534000,2.486533935546875,0.02826167643070221,0.015005168505012989,0.024064892902970314
1761401470006614300,2.4966142578125,0.03069314733147621,0.018086140975356102,0.024531202390789986
1761401470016695800,2.50669580078125,0.0263464767485857,0.016720520332455635,0.02438131719827652
1761401470026776800,2.51677685546875,0.017852986231446266,0.016753828153014183,0.02374846860766411
1761401470036857000,2.526857177734375,0.012557044625282288,0.01753656193614006,0.02413150854408741
1761401470046938400,2.5369384765625,0.013373085297644138,0.022099731490015984,0.026313168928027153
1761401470057018000,2.54701806640625,0.017636485397815704,0.024397971108555794,0.028078483417630196
1761401470067100000,2.557099853515625,0.01841921918094158,0.024364663287997246,0.027895290404558182
1761401470077160000,2.567159912109375,0.017386676743626595,0.025030819699168205,0.025480475276708603
1761401470087262500,2.577262451171875,0.014821975491940975,0.02809513732790947,0.022682618349790573
1761401470097343000,2.587343017578125,0.012590352445840836,0.02604670636355877,0.01953503116965294
1761401470107424000,2.597424072265625,0.008793261833488941,0.025996744632720947,0.017686447128653526
1761401470117505500,2.607505615234375,0.0072111408226192,0.030909648165106773,0.018186064437031746
1761401470127562800,2.617562744140625,0.009076378308236599,0.03470673784613609,0.016803789883852005
1761401470137666800,2.627666748046875,0.009809150360524654,0.032291922718286514,0.010941615328192711
1761401470147758600,2.637758544921875,0.011407924816012383,0.025447167456150055,0.004912902135401964
1761401470167910400,2.657910400390625,0.015021822415292263,0.024697741493582726,0.013706163503229618
1761401470177991000,2.667990966796875,0.017436638474464417,0.02476435713469982,0.02363189123570919
1761401470188071700,2.67807177734375,0.019185299053788185,0.02454785630106926,0.03014356829226017
1761401470198152200,2.688152099609375,0.019734878093004227,0.021899884566664696,0.03264165297150612
1761401470208233700,2.698233642578125,0.018885528668761253,0.019718224182724953,0.029377488419413567
1761401470218315800,2.708315673828125,0.016670558601617813,0.01836925745010376,0.027695443481206894
1761401470228395300,2.718395263671875,0.01367285568267107,0.01538820844143629,0.02454785630106926
1761401470238477600,2.7284775390625,0.01400593388825655,0.011990811675786972,0.022765887901186943
1761401470248557300,2.738557373046875,0.015338246710598469,0.003597243456169963,0.020317763090133667
1761401470258637800,2.748637939453125,0.016270864754915237,-0.008310298435389996,0.01408920343965292
1761401470268719900,2.758719970703125,0.016920367255806923,-0.01925191469490528,0.006811446975916624
1761401470278800400,2.76880029296875,0.014455589465796947,-0.028361599892377853,-0.0016320826252922416
1761401470288882200,2.778882080078125,0.01194084994494915,-0.033874042332172394,-0.010575229302048683
1761401470298963000,2.788962890625,0.011058192700147629,-0.03520635515451431,-0.016254210844635963
1761401470309007000,2.799007080078125,0.01219065859913826,-0.0358891636133194,-0.01916864514350891
1761401470319124200,2.809124267578125,0.013189892284572124,-0.03845386579632759,-0.01858575828373432
1761401470329205200,2.819205322265625,0.012124042958021164,-0.03887021541595459,-0.013106622733175755
1761401470339287000,2.829287109375,0.0094594182446599,-0.035123083740472794,-0.0074942572973668575
1761401470349367600,2.839367431640625,0.007760719861835241,-0.025730282068252563,-0.0045631700195372105
1761401470359448600,2.849448486328125,0.006928024347871542,-0.017669793218374252,-0.0038137442898005247
1761401470369530400,2.8595302734375,0.008926493115723133,-0.016853751614689827,-0.0011324655497446656
1761401470379587800,2.869587890625,0.010891653597354889,-0.020650841295719147,0.004713055212050676
1761401470389692200,2.879692138671875,0.012390505522489548,-0.02111715078353882,0.010008996352553368
1761401470399773000,2.88977294921875,0.01632082648575306,-0.015421516261994839,0.010458651930093765
1761401470409854000,2.89985400390625,0.01991806924343109,-0.009892419911921024,0.010891653597354889
1761401470419934000,2.909933837890625,0.021983154118061066,-0.012890121899545193,0.013239854015409946
1761401470430016300,2.920016357421875,0.021866576746106148,-0.01707025244832039,0.01632082648575306
1761401470440096300,2.93009619140625,0.020883996039628983,-0.02258269488811493,0.016753828153014183
1761401470450159000,2.9401591796875,0.01961830072104931,-0.033590927720069885,0.013040007092058659
1761401470460257800,2.9502578125,0.019185299053788185,-0.04328349977731705,0.006311830133199692
1761401470470339600,2.960339599609375,0.02120042033493519,-0.048496171832084656,0.0015321592800319195
1761401470480420900,2.9704208984375,0.022349540144205093,-0.04646439477801323,-0.00016653904458507895
1761401470490502000,2.980501953125,0.02133365161716938,-0.045698314905166626,-0.0012490428052842617
1761401470500582400,2.99058251953125,0.019651608541607857,-0.048529479652643204,-0.0038637060206383467
1761401470510654200,3.000654296875,0.019801493734121323,-0.05037806183099747,-0.0075608729384839535
1761401470520743700,3.01074365234375,0.02651301585137844,-0.048696018755435944,-0.009159647859632969
1761401470530825200,3.0208251953125,0.03202546015381813,-0.04751358926296234,-0.011541156098246574
1761401470540904700,3.03090478515625,0.0324917696416378,-0.05247645452618599,-0.012007465586066246
1761401470550986800,3.04098681640625,0.030793070793151855,-0.053875382989645004,-0.011724349111318588
1761401470561068500,3.051068603515625,0.03194218873977661,-0.05134398862719536,-0.008193721063435078
1761401470571130000,3.061130126953125,0.032291922718286514,-0.04668089374899864,0.00016653904458507895
1761401470581230800,3.07123095703125,0.033341117203235626,-0.040802065283060074,0.007794027682393789
1761401470591329500,3.08132958984375,0.03678847476840019,-0.037587862461805344,0.010874999687075615
1761401470601392000,3.09139208984375,0.04148487746715546,-0.04208441823720932,0.007627488579601049
1761401470611472600,3.10147265625,0.041651416569948196,-0.047030627727508545,-0.00018319295486435294
1761401470621554700,3.1115546875,0.041518185287714005,-0.049445442855358124,-0.00646171486005187
1761401470631613000,3.121613037109375,0.040269140154123306,-0.05027813836932182,-0.008709992282092571
1761401470641716200,3.13171630859375,0.037221476435661316,-0.04856278747320175,-0.008460183627903461
1761401470651774200,3.141774169921875,0.03452354297041893,-0.04416615515947342,-0.007027947809547186
1761401470661855500,3.15185546875,0.03240849822759628,-0.036921706050634384,-0.0053958650678396225
1761401470671936500,3.1619365234375,0.03190888091921806,-0.03264165297150612,-0.006361791864037514
1761401470682040000,3.1720400390625,0.0333244651556015,-0.036588627845048904,-0.007843988947570324
1761401470692100400,3.182100341796875,0.03605570271611214,-0.039802830666303635,-0.008343606255948544
1761401470702202600,3.19220263671875,0.03752124682068825,-0.03648870438337326,-0.006511676590889692
1761401470712259600,3.202259521484375,0.03760451823472977,-0.031958844512701035,-0.0006161945057101548
1761401470722363600,3.21236376953125,0.03577258810400963,-0.02438131719827652,0.005262633785605431
1761401470732445400,3.222445556640625,0.03439031168818474,-0.018236026167869568,0.011308001354336739
1761401470742526200,3.232526123046875,0.03522300720214844,-0.01662059687077999,0.01375612523406744
1761401470752607200,3.242607177734375,0.0354728177189827,-0.017303407192230225,0.012157350778579712
1761401470762688300,3.252688232421875,0.03545616194605827,-0.01786964014172554,0.009909073822200298
1761401470772768500,3.2627685546875,0.0370049774646759,-0.014555512927472591,0.0072111408226192
1761401470782826800,3.27282666015625,0.03887021541595459,-0.009675919078290462,0.007927258498966694
1761401470792930600,3.2829306640625,0.039186637848615646,-0.006528330501168966,0.010658498853445053
1761401470803011600,3.293011474609375,0.038387250155210495,-0.0002664624771568924,0.014888591133058071
1761401470813093000,3.303093017578125,0.03733805567026138,0.008993108756840229,0.019268568605184555
1761401470823174100,3.313174072265625,0.036338821053504944,0.01483862940222025,0.02546382136642933
1761401470833232400,3.323232421875,0.03235853835940361,0.019068721681833267,0.028411561623215675
1761401470843313000,3.33331298828125,0.030443338677287102,0.022682618349790573,0.03217534348368645
1761401470853394200,3.343394287109375,0.028827909380197525,0.024531202390789986,0.03379077464342117
1761401470863475200,3.35347509765625,0.027329057455062866,0.028211714699864388,0.033008038997650146
1761401470873555700,3.3635556640625,0.026829440146684647,0.03227526694536209,0.03244180604815483
1761401470883625200,3.373625244140625,0.026313168928027153,0.035922471433877945,0.03175899758934975
1761401470893706800,3.383706787109375,0.023915007710456848,0.03728809207677841,0.03310796245932579
1761401470903807200,3.39380712890625,0.020301109179854393,0.041601452976465225,0.03635547310113907
1761401470913887500,3.403887451171875,0.017936255782842636,0.04328349977731705,0.03818740323185921
1761401470923949600,3.413949462890625,0.016837097704410553,0.04508212208747864,0.037804365158081055
1761401470934065400,3.4240654296875,0.016420749947428703,0.04483231157064438,0.034223772585392
1761401470944145700,3.434145751953125,0.014921898953616619,0.048662710934877396,0.02881125546991825
1761401470954226700,3.444226806640625,0.011424578726291656,0.05034475401043892,0.022516079246997833
1761401470964284700,3.45428466796875,0.007877296768128872,0.04829632490873337,0.01900210604071617
1761401470974365700,3.46436572265625,0.004879594314843416,0.045198697596788406,0.01866902783513069
1761401470984470300,3.47447021484375,0.005179364234209061,0.04106852784752846,0.02025114744901657
1761401470994550000,3.484550048828125,0.007893950678408146,0.03622224181890488,0.01900210604071617
1761401471004632300,3.49463232421875,0.006611600052565336,0.029860451817512512,0.014105857349932194
1761401471014712800,3.504712890625,0.003031010739505291,0.02897779457271099,0.009159647859632969
1761401471024793600,3.514793701171875,0.0019818146247416735,0.03240849822759628,0.008127105422317982
1761401471034891800,3.524891845703125,0.0038637060206383467,0.03322454169392586,0.0075275651179254055
1761401471044955000,3.534954833984375,0.0045298621989786625,0.032541729509830475,0.008693338371813297
1761401471055037200,3.545037109375,0.005612365901470184,0.03488992899656296,0.010208843275904655
1761401471065118000,3.555117919921875,0.006428407039493322,0.03928656131029129,0.013556278310716152
1761401471075198700,3.56519873046875,0.005695635452866554,0.038470521569252014,0.01350631657987833
1761401471085279200,3.575279296875,0.004879594314843416,0.036305513232946396,0.013373085297644138
1761401471095343600,3.585343505859375,0.0037637825589627028,0.03132599592208862,0.014072549529373646
1761401471105418800,3.595418701171875,0.003414050443097949,0.026862747967243195,0.01383939478546381
1761401471115523800,3.60552392578125,0.0045132082886993885,0.024664433673024178,0.013156584464013577
1761401471125602300,3.615602294921875,0.004746363032609224,0.024914242327213287,0.010775076225399971
1761401471135660800,3.625660888671875,0.004879594314843416,0.027112556621432304,0.009176301769912243
1761401471145765000,3.63576513671875,0.005745597183704376,0.027728751301765442,0.008310298435389996
1761401471155846000,3.645845947265625,0.00592879019677639,0.02701263315975666,0.009775842539966106
1761401471165928000,3.655927978515625,0.004996171221137047,0.022765887901186943,0.01055857539176941
1761401471176008000,3.666008056640625,0.003980283159762621,0.020101262256503105,0.011008230969309807
1761401471186089200,3.676089111328125,0.003364088712260127,0.019718224182724953,0.012257274240255356
1761401471196169700,3.686169677734375,0.0002664624771568924,0.019601646810770035,0.012740237638354301
1761401471206251000,3.6962509765625,-0.0003497319994494319,0.018186064437031746,0.011840926483273506
1761401471216331800,3.706331787109375,0.0021316998172551394,0.014722052030265331,0.00954268779605627
1761401471226412000,3.716412109375,0.0022649310994893312,0.008293644525110722,0.003047664649784565
1761401471236491800,3.72649169921875,0.00039969373028725386,-0.00009992343257181346,-0.004296707455068827
1761401471246574600,3.73657470703125,-0.0020817380864173174,-0.0054125189781188965,-0.00954268779605627
1761401471256655000,3.746655029296875,-0.0017986217280849814,-0.00857676099985838,-0.01292342972010374
1761401471266714000,3.756714111328125,-0.0016820443561300635,-0.010725114494562149,-0.010775076225399971
1761401471276819200,3.766819091796875,-0.0010658499086275697,-0.008759954012930393,-0.007427641656249762
1761401471286898700,3.776898681640625,-0.003197549842298031,-0.00937614869326353,-0.003280819160863757
1761401471296984300,3.786984375,-0.004962863866239786,-0.010741768404841423,-0.0024980856105685234
1761401471307060700,3.797060791015625,-0.003247511340305209,-0.010941615328192711,-0.004296707455068827
1761401471317142000,3.80714208984375,-0.00046630934230051935,-0.009609303437173367,-0.004230091813951731
1761401471327229700,3.817229736328125,0.00046630934230051935,-0.009326186962425709,-0.005629019811749458
1761401471337304000,3.827303955078125,0.0010158881777897477,-0.010625191032886505,-0.006778139155358076
1761401471347384600,3.837384521484375,0.0022316232789307833,-0.01325650792568922,-0.007427641656249762
1761401471357452000,3.8474521484375,0.0021316998172551394,-0.014272396452724934,-0.00807714369148016
1761401471367547100,3.857547119140625,0.0017653139075264335,-0.01333977747708559,-0.0045132082886993885
1761401471377628000,3.8676279296875,0.002964395098388195,-0.010358728468418121,0.0002997702977154404
1761401471387709000,3.877708984375,0.00489624822512269,-0.005179364234209061,0.0045465161092579365
1761401471397768200,3.887768310546875,0.007860642857849598,-0.003014356829226017,0.006428407039493322
1761401471407870700,3.89787060546875,0.007893950678408146,-0.003364088712260127,0.005096094682812691
1761401471417952800,3.907952880859375,0.006495022680610418,-0.00626186840236187,0.0010825038189068437
1761401471428022500,3.9180224609375,0.0012823506258428097,-0.005695635452866554,-0.002814509905874729
1761401471438114300,3.9281142578125,-0.003114280290901661,-0.003513973904773593,-0.002481431933119893
1761401471448194000,3.938194091796875,-0.005079440772533417,0.0003330780891701579,-0.0022149693686515093
1761401471458276000,3.948276123046875,-0.004396630916744471,0.004696401301771402,-0.0015488131903111935
1761401471468356400,3.9583564453125,-0.0018985451897606254,0.003963629249483347,-0.0037471286486834288
1761401471478437400,3.968437255859375,-0.0010158881777897477,-0.00039969373028725386,-0.006828100886195898
1761401471488518700,3.9785185546875,0.0006994639988988638,-0.00008326952229253948,-0.007227794732898474
1761401471498599400,3.988599365234375,0.00044965543202124536,-0.0012823506258428097,-0.005245979875326157
1761401471508681000,3.998680908203125,-0.0021483537275344133,-0.004696401301771402,-0.005579058080911636
1761401471518762000,4.008761962890625,-0.004929556045681238,-0.004796324763447046,-0.006778139155358076
1761401471528843000,4.018843017578125,-0.00609532929956913,-0.008676684461534023,-0.006944678258150816
1761401471538922800,4.0289228515625,-0.008709992282092571,-0.010991577059030533,-0.01005895808339119
1761401471549005000,4.039005126953125,-0.010342074558138847,-0.013806086964905262,-0.012207312509417534
1761401471559075300,4.049075439453125,-0.009675919078290462,-0.016837097704410553,-0.012740237638354301
1761401471569167000,4.0591669921875,-0.006228560581803322,-0.018052833154797554,-0.012806852348148823
1761401471579225000,4.06922509765625,-0.004046898800879717,-0.015921132639050484,-0.012357197701931
1761401471589328600,4.07932861328125,-0.0019151991000398993,-0.014139165170490742,-0.010358728468418121
1761401471599409700,4.08940966796875,0.0009326186846010387,-0.012973391450941563,-0.00791060458868742
1761401471609467000,4.099466796875,0.0015488131903111935,-0.013323123566806316,-0.006311830133199692
1761401471619578400,4.109578369140625,0.0019651607144623995,-0.01653732731938362,-0.004429938737303019
1761401471629652700,4.11965283203125,-0.0003164241788908839,-0.018569104373455048,-0.0037804364692419767
1761401471639734000,4.129734130859375,-0.002864471636712551,-0.017053598538041115,-0.0025980090722441673
1761401471649813800,4.139813720703125,-0.0044799004681408405,-0.010458651930093765,-0.003114280290901661
1761401471659894800,4.149894775390625,-0.004263399634510279,-0.004629785660654306,-0.003297473071143031
1761401471669948000,4.159947998046875,-0.004413284827023745,-0.0010158881777897477,-0.0008993108640424907
1761401471680057600,4.1700576171875,-0.0016154287150129676,0.0019651607144623995,0.0017986217280849814
1761401471690139400,4.180139404296875,-0.0021150459069758654,0.006928024347871542,0.004363323096185923
1761401471700219000,4.190218994140625,-0.0024980856105685234,0.009825804270803928,0.006428407039493322
1761401471710279000,4.20027880859375,-0.002897779457271099,0.011807618662714958,0.006661561783403158
1761401471720381700,4.210381591796875,-0.0016986982664093375,0.01367285568267107,0.005978751927614212
1761401471730455800,4.220455810546875,0.00024980856687761843,0.013539624400436878,0.005629019811749458
1761401471740543200,4.230543212890625,-0.0009659265051595867,0.008909839205443859,0.0044799004681408405
1761401471750624300,4.240624267578125,-0.002881125546991825,0.008310298435389996,0.004163476172834635
1761401471760705300,4.250705322265625,-0.0053459033370018005,0.008093797601759434,0.0020317763555794954
1761401471770787000,4.260787109375,-0.00841022189706564,0.009559341706335545,-0.0003663859097287059
1761401471780866300,4.2708662109375,-0.009992342442274094,0.012074081227183342,-0.0015488131903111935
1761401471790948400,4.2809482421875,-0.009609303437173367,0.013389739207923412,-0.0002664624771568924
1761401471801028900,4.29102880859375,-0.007061255630105734,0.011308001354336739,0.0015654671005904675
1761401471811088600,4.301088623046875,-0.002814509905874729,0.00849349144846201,0.003647205187007785
1761401471821191200,4.311191162109375,-0.002814509905874729,0.005062786862254143,0.004130168352276087
1761401471831271700,4.321271728515625,-0.003230857430025935,0.00472970912232995,0.002914433367550373
1761401471841331500,4.33133154296875,-0.0022982389200478792,0.004912902135401964,-0.0019818146247416735
1761401471851435000,4.34143505859375,0.0006828100886195898,0.003330780891701579,-0.006578292232006788
1761401471861499400,4.35149951171875,-0.00039969373028725386,-0.0012323890114203095,-0.008959800936281681
1761401471871595300,4.36159521484375,-0.0038137442898005247,-0.008110451512038708,-0.009675919078290462
1761401471881654500,4.371654541015625,-0.009176301769912243,-0.015021822415292263,-0.0061785988509655
1761401471891758600,4.381758544921875,-0.011091500520706177,-0.018252680078148842,-0.0018818912794813514
1761401471901839000,4.391839111328125,-0.01055857539176941,-0.012890121899545193,0.0017320060869678855
1761401471911898000,4.401898193359375,-0.006977986078709364,-0.005712289363145828,0.003297473071143031
1761401471921977600,4.4119775390625,-0.0015155053697526455,-0.0004996171337552369,-0.0010825038189068437
1761401471932082400,4.42208251953125,0.0008826569537632167,-0.00019984686514362693,-0.0054624807089567184
1761401471942162400,4.432162353515625,0.0012490428052842617,-0.0012823506258428097,-0.008393567986786366
1761401471952243700,4.44224365234375,0.0017819678178057075,-0.005978751927614212,-0.008027181960642338
1761401471962325000,4.452324951171875,-0.00044965543202124536,-0.007277756463736296,-0.007194486912339926
1761401471972405500,4.462405517578125,-0.0022982389200478792,-0.003380742622539401,-0.003697166917845607
1761401471982464300,4.47246435546875,-0.003563935635611415,0.0005329249543137848,-0.0016986982664093375
1761401471992568000,4.482568115234375,-0.004629785660654306,0.0009659265051595867,-0.0005995405954308808
1761401472002626000,4.4926259765625,-0.004629785660654306,-0.00024980856687761843,-0.0016653904458507895
1761401472012730000,4.502730224609375,-0.004862940404564142,-0.003114280290901661,-0.002331546740606427
1761401472022788900,4.512788818359375,-0.0044465926475822926,-0.005029479041695595,-0.0007827335502952337
1761401472032892200,4.52289208984375,-0.004396630916744471,-0.0020650841761380434,-0.00024980856687761843
1761401472042973000,4.532972900390625,-0.002864471636712551,0.004879594314843416,-0.0006828100886195898
1761401472053056800,4.543056884765625,-0.0020817380864173174,0.007727412041276693,-0.0015488131903111935
1761401472063134000,4.553134033203125,-0.0010825038189068437,0.0082436827942729,-0.0017986217280849814
1761401472073215700,4.5632158203125,0.0004330015217419714,0.009043070487678051,-0.00048296325257979333
1761401472083297300,4.57329736328125,0.0002165007608709857,0.008560107089579105,0.0021483537275344133
1761401472093378300,4.58337841796875,-0.0003330780891701579,0.003930321428924799,0.0013156584464013577
1761401472103458600,4.59345849609375,-0.004013590980321169,-0.0006495022680610418,-0.00009992343257181346
1761401472113540600,4.60354052734375,-0.005828866735100746,-0.0006328483577817678,-0.000016653904822305776
1761401472123597600,4.61359765625,-0.006295176222920418,0.0010658499086275697,-0.0011158116394653916
1761401472133700600,4.62370068359375,-0.005579058080911636,0.003963629249483347,-0.0014655436389148235
1761401472143759000,4.633759033203125,-0.00481297867372632,0.005179364234209061,-0.0020817380864173174
1761401472153862400,4.6438623046875,-0.003963629249483347,0.006062021479010582,-0.003114280290901661
1761401472163944700,4.65394482421875,-0.0013989279977977276,0.00559571199119091,-0.0045964778400957584
1761401472174025500,4.664025390625,0.0007993874605745077,0.00704460171982646,-0.006228560581803322
1761401472184106500,4.6741064453125,0.0017320060869678855,0.006445060949772596,-0.004713055212050676
1761401472194187000,4.68418701171875,0.0012157351011410356,0.003180895932018757,-0.0038470521103590727
1761401472204267800,4.694267822265625,-0.00018319295486435294,-0.002398162381723523,-0.0003663859097287059
1761401472214349300,4.704349365234375,-0.003430704353377223,-0.006744831334799528,-0.0012823506258428097
1761401472224408000,4.714407958984375,-0.005545750260353088,-0.009476072154939175,-0.0020817380864173174
1761401472234512100,4.72451220703125,-0.005495788529515266,-0.007644142489880323,-0.0010158881777897477
1761401472244592000,4.734592041015625,-0.005112748593091965,-0.003563935635611415,0.0022982389200478792
1761401472254650400,4.744650390625,-0.0010325420880690217,0.0025647012516856194,0.005945444107055664
1761401472264754000,4.75475390625,0.0022982389200478792,0.007094563450664282,0.005012825131416321
1761401472274836200,4.764836181640625,0.0026646247133612633,0.010708460584282875,0.004196783993393183
1761401472284893700,4.774893798828125,0.003047664649784565,0.008776607923209667,0.0018818912794813514
1761401472294997000,4.7849970703125,0.003613897366449237,0.0061785988509655,-0.00011657733557512984
1761401472305078800,4.795078857421875,0.003713820828124881,0.003397396532818675,-0.0014488897286355495
1761401472315159000,4.805158935546875,0.003713820828124881,0.0017486599972471595,-0.003147588111460209
1761401472325240600,4.815240478515625,0.0010158881777897477,-0.0015488131903111935,-0.003397396532818675
1761401472335321000,4.825321044921875,-0.002747894264757633,-0.0054624807089567184,-0.0019984685350209475
1761401472345401300,4.8354013671875,-0.007244448643177748,-0.00679479306563735,-0.0011324655497446656
1761401472355482600,4.845482666015625,-0.00849349144846201,-0.005545750260353088,-0.0010825038189068437
1761401472365564000,4.85556396484375,-0.004979517310857773,-0.0013323123566806316,-0.0015654671005904675
1761401472375644400,4.86564453125,0.0012490428052842617,0.0019151991000398993,-0.003480666084215045
1761401472385706200,4.875706298828125,0.004330015275627375,0.0025813551619648933,-0.002331546740606427
1761401472395806200,4.88580615234375,0.0054291728883981705,0.003946975339204073,0.0006328483577817678
1761401472405888300,4.89588818359375,0.006028713658452034,0.004862940404564142,0.003980283159762621
1761401472415959300,4.905959228515625,0.006594946142286062,0.0045298621989786625,0.004613131750375032
1761401472426049800,4.9160498046875,0.005645673722028732,0.006728177424520254,0.003464012173935771
1761401472436125700,4.926125732421875,0.004929556045681238,0.00634513795375824,0.0004330015217419714
1761401472446211800,4.9362119140625,0.005079440772533417,0.003197549842298031,-0.002314892830327153
1761401472456292900,4.94629296875,0.004330015275627375,0.00039969373028725386,-0.004713055212050676
1761401472466373400,4.956373291015625,0.0026979325339198112,-0.0013656201772391796,-0.0037637825589627028
1761401472476455000,4.966454833984375,0.0019485069205984473,0.0005329249543137848,-0.0009326186846010387
1761401472486536000,4.976535888671875,0.003280819160863757,0.0020317763555794954,0.003697166917845607
1761401472496617000,4.986616943359375,0.004246745724231005,0.006761485245078802,0.007027947809547186
1761401472506688000,4.99668798828125,0.0045631700195372105,0.006278522312641144,0.005828866735100746
1761401472516778000,5.006778076171875,0.003230857430025935,0.005962098017334938,0.0026146629825234413
1761401472526859500,5.016859619140625,0.003713820828124881,0.008676684461534023,0.0013156584464013577
1761401472536940000,5.02693994140625,0.003180895932018757,0.010591883212327957,0.0011158116394653916
1761401472547001000,5.0370009765625,0.0020484302658587694,0.012040773406624794,0.003197549842298031
1761401472557079300,5.047079345703125,0.0011990811908617616,0.012240620329976082,0.002747894264757633
1761401472567185000,5.057184814453125,0.0009492725948803127,0.011474540457129478,0.0016154287150129676
1761401472577242000,5.0672421875,-0.00018319295486435294,0.010641844943165779,0.00046630934230051935
1761401472587345700,5.077345703125,-0.0014322358183562756,0.010675152763724327,-0.0004163476114626974
1761401472597426700,5.0874267578125,-0.003397396532818675,0.010292112827301025,-0.0016154287150129676
1761401472607507700,5.0975078125,-0.003314126981422305,0.013406393118202686,-0.0009492725948803127
1761401472617566200,5.107566162109375,-0.0025980090722441673,0.013223200105130672,-0.0005828866851516068
1761401472627647700,5.117647705078125,-0.0005662327748723328,0.012573698535561562,-0.0003330780891701579
1761401472637750500,5.12775048828125,0.0020983919966965914,0.009942381642758846,-0.0016820443561300635
1761401472647831600,5.13783154296875,0.0007993874605745077,0.006428407039493322,-0.0018818912794813514
1761401472657913000,5.1479130859375,-0.0020484302658587694,0.007177833002060652,-0.0009992342675104737
1761401472667993300,5.157993408203125,-0.0026979325339198112,0.006445060949772596,0.0007494257297366858
1761401472678074400,5.168074462890625,-0.002764548175036907,0.006778139155358076,0.0019485069205984473
1761401472688154400,5.178154296875,-0.003164242021739483,0.008626722730696201,0.0045298621989786625
1761401472698237000,5.18823681640625,-0.0017153521766886115,0.012573698535561562,0.004330015275627375
1761401472708317700,5.198317626953125,0.0008493491332046688,0.0144222816452384,0.003047664649784565
1761401472718398000,5.20839794921875,0.0025480473414063454,0.014289050363004208,0.0013156584464013577
1761401472728478700,5.218478759765625,0.0026313168928027153,0.01350631657987833,0.0018818912794813514
1761401472738560800,5.228560791015625,0.0021983154583722353,0.012423813343048096,0.0022482771892100573
1761401472748641800,5.238641845703125,-0.0007993874605745077,0.00849349144846201,0.002947741188108921
1761401472758722800,5.248722900390625,-0.0011158116394653916,0.008510145358741283,0.0008826569537632167
1761401472768803000,5.258802978515625,-0.0014488897286355495,0.005629019811749458,-0.0027145864441990852
1761401472778885000,5.268885009765625,-0.003014356829226017,0.002448124112561345,-0.004962863866239786
1761401472788990200,5.278990234375,-0.005795558914542198,0.0018485834589228034,-0.005695635452866554
1761401472799045400,5.28904541015625,-0.007077909540385008,0.003214203519746661,-0.003630551276728511
1761401472809104100,5.299104248046875,-0.0053792111575603485,0.0075608729384839535,0.00019984686514362693
1761401472819207200,5.309207275390625,-0.0001332312385784462,0.013106622733175755,0.00472970912232995
1761401472829289200,5.319289306640625,0.0021316998172551394,0.012906775809824467,0.003247511340305209
1761401472839347200,5.32934716796875,0.003513973904773593,0.006911370437592268,-0.00003330780964461155
1761401472849450500,5.339450439453125,0.0012823506258428097,0.004829632584005594,-0.003563935635611415
1761401472859532000,5.349531982421875,-0.0019818146247416735,-0.0011990811908617616,-0.003663859097287059
1761401472869638000,5.359637939453125,-0.005146056413650513,-0.003963629249483347,-0.002464778022840619
1761401472879693600,5.369693603515625,-0.005995405837893486,0.0017653139075264335,0.00004996171628590673
1761401472889774800,5.37977490234375,-0.004180130083113909,0.0054291728883981705,0.0014322358183562756
1761401472899833000,5.3898330078125,-0.002398162381723523,0.00662825396284461,0.0019151991000398993
1761401472909916000,5.399916015625,0.00008326952229253948,0.009809150360524654,-0.00004996171628590673
1761401472920017200,5.41001708984375,0.0022149693686515093,0.009059724397957325,-0.0026146629825234413
1761401472930098700,5.4200986328125,0.0014155819080770016,0.003147588111460209,-0.003080972470343113
1761401472940170200,5.430170166015625,0.0003164241788908839,-0.0013323123566806316,-0.004180130083113909
1761401472950261000,5.440260986328125,0.0005495788645930588,-0.00687806261703372,-0.006295176222920418
1761401472960342800,5.4503427734375,-0.0010991577291861176,-0.011724349111318588,-0.01022549718618393
1761401472970423000,5.460423095703125,-0.003613897366449237,-0.01590447872877121,-0.01210738904774189
1761401472980504600,5.470504638671875,-0.005712289363145828,-0.018219372257590294,-0.011674387380480766
1761401472990584600,5.48058447265625,-0.005612365901470184,-0.016887059435248375,-0.009043070487678051
1761401473000665900,5.490665771484375,-0.004013590980321169,-0.011208077892661095,-0.005728943273425102
1761401473010726100,5.50072607421875,-0.004413284827023745,-0.0022982389200478792,-0.003697166917845607
1761401473020827100,5.5108271484375,-0.004213437903672457,0.003147588111460209,-0.004113514441996813
1761401473030908200,5.520908203125,-0.002781202085316181,0.005545750260353088,-0.004263399634510279
1761401473040989200,5.5309892578125,0.0006161945057101548,0.0021816615480929613,-0.004846286494284868
1761401473051070500,5.541070556640625,0.0017320060869678855,-0.0016986982664093375,-0.004713055212050676
1761401473061151200,5.551151123046875,0.0012157351011410356,-0.00646171486005187,-0.005129402503371239
1761401473071232800,5.561232666015625,-0.0022649310994893312,-0.012223966419696808,-0.006828100886195898
1761401473081291000,5.571291015625,-0.005529096350073814,-0.015188361518085003,-0.0075775268487632275
1761401473091394800,5.581394775390625,-0.006062021479010582,-0.012640314176678658,-0.009326186962425709
1761401473101476400,5.591476318359375,-0.0053459033370018005,-0.00929287914186716,-0.009742534719407558
1761401473111543300,5.601543212890625,-0.006578292232006788,-0.008926493115723133,-0.010675152763724327
1761401473121637000,5.61163720703125,-0.004379977006465197,-0.006894716527312994,-0.009509379975497723
1761401473131718100,5.62171826171875,-0.0017653139075264335,-0.0017653139075264335,-0.0075275651179254055
1761401473141776600,5.631776611328125,-0.0012990045361220837,0.002997702918946743,-0.0053792111575603485
1761401473151881000,5.641880859375,-0.0004163476114626974,0.006644907873123884,-0.0025647012516856194
1761401473161960700,5.651960693359375,0.00009992343257181346,0.006911370437592268,-0.0021983154583722353
1761401473172042500,5.66204248046875,-0.00048296325257979333,0.0022316232789307833,-0.003230857430025935
1761401473182092800,5.6720927734375,-0.003114280290901661,-0.003930321428924799,-0.0045631700195372105
1761401473192205600,5.68220556640625,-0.005812212824821472,-0.008526799269020557,-0.004363323096185923
1761401473202284800,5.692284912109375,-0.005479134619235992,-0.010025650262832642,-0.004263399634510279
1761401473212366300,5.702366455078125,-0.005112748593091965,-0.007777373772114515,-0.004196783993393183
1761401473222447000,5.712447021484375,-0.004030244890600443,-0.0013323123566806316,-0.0037304747384041548
1761401473232528600,5.722528564453125,-0.005079440772533417,0.003464012173935771,-0.004180130083113909
1761401473242609400,5.732609375,-0.007077909540385008,0.006361791864037514,-0.003330780891701579
1761401473252672800,5.7426728515625,-0.009992342442274094,0.006211906671524048,-0.0014821975491940975
1761401473262772500,5.7527724609375,-0.00832695234566927,0.00782733503729105,0.0005329249543137848
1761401473272852500,5.7628525390625,-0.0037970903795212507,0.010025650262832642,-0.0002165007608709857
1761401473282910200,5.77291015625,-0.0010158881777897477,0.009076378308236599,-0.004313361365348101
1761401473293013800,5.783013671875,-0.004163476172834635,0.00712787127122283,-0.005912136286497116
1761401473303094800,5.7930947265625,-0.006128637120127678,0.005545750260353088,-0.006245214492082596
1761401473313176300,5.80317626953125,-0.008043835870921612,0.004180130083113909,-0.004613131750375032
1761401473323257000,5.813257080078125,-0.009892419911921024,0.0074942572973668575,-0.0017986217280849814
1761401473333337600,5.823337646484375,-0.010358728468418121,0.012124042958021164,0.0007993874605745077
1761401473343419100,5.833419189453125,-0.009825804270803928,0.01450555119663477,0.0022316232789307833
1761401473353500200,5.843500244140625,-0.007027947809547186,0.013706163503229618,0.0007660796400159597
1761401473363580700,5.85358056640625,-0.004346669185906649,0.012407159432768822,-0.0027145864441990852
1761401473373662000,5.863661865234375,-0.0044465926475822926,0.007794027682393789,-0.003214203519746661
1761401473383744500,5.87374462890625,-0.003380742622539401,0.0013156584464013577,-0.003913667518645525
1761401473393824000,5.883823974609375,-0.0013822740875184536,-0.0016986982664093375,-0.003597243456169963
1761401473403907000,5.893906982421875,-0.0020484302658587694,-0.004429938737303019,-0.003280819160863757
1761401473413986300,5.903986328125,-0.0038303982000797987,-0.007777373772114515,-0.005262633785605431
1761401473424066800,5.91406689453125,-0.002864471636712551,-0.008543453179299831,-0.005129402503371239
1761401473434147600,5.924147705078125,-0.002414816292002797,-0.007144525181502104,-0.00489624822512269
1761401473444205600,5.93420556640625,-0.0005162710440345109,-0.005162710323929787,-0.0002997702977154404
1761401473454308900,5.944308837890625,0.0005828866851516068,-0.0026146629825234413,0.0021983154583722353
1761401473464391400,5.954391357421875,-0.0015654671005904675,-0.0012157351011410356,0.002864471636712551
1761401473474471700,5.9644716796875,-0.0013156584464013577,-0.0014488897286355495,-0.0007827335502952337
1761401473484553200,5.97455322265625,-0.0003497319994494319,-0.002764548175036907,-0.005728943273425102
1761401473494633700,5.9846337890625,0.0005662327748723328,-0.003597243456169963,-0.009392802603542805
1761401473504714800,5.99471484375,0.0017320060869678855,-0.006561638321727514,-0.008127105422317982
1761401473514795500,6.00479541015625,0.0016154287150129676,-0.00832695234566927,-0.005978751927614212
1761401473524853200,6.014853271484375,0.00016653904458507895,-0.010541921481490135,-0.0037804364692419767
1761401473534948900,6.024948974609375,-0.004130168352276087,-0.012940083630383015,-0.0038137442898005247
1761401473545039000,6.0350390625,-0.005728943273425102,-0.015971094369888306,-0.006145291030406952
1761401473555119600,6.04511962890625,-0.006445060949772596,-0.018485834822058678,-0.00782733503729105
1761401473565200000,6.055199951171875,-0.006295176222920418,-0.014622128568589687,-0.00882656965404749
1761401473575283200,6.065283203125,-0.006278522312641144,-0.00737767992541194,-0.006811446975916624
1761401473585362200,6.075362060546875,-0.0054624807089567184,-0.003180895932018757,-0.004713055212050676
1761401473595443200,6.085443115234375,-0.003447358263656497,-0.0025313934311270714,-0.0026313168928027153
1761401473605524200,6.095524169921875,-0.0026812786236405373,-0.004413284827023745,-0.002448124112561345
1761401473615605800,6.105605712890625,-0.0016487365355715156,-0.00481297867372632,-0.002914433367550373
1761401473625686800,6.115686767578125,-0.003247511340305209,-0.003447358263656497,-0.0021483537275344133
1761401473635766800,6.125766845703125,-0.0053125955164432526,-0.003164242021739483,-0.0011824272805824876
1761401473645848300,6.135848388671875,-0.005895482376217842,-0.0045964778400957584,-0.0018818912794813514
1761401473655929000,6.14592919921875,-0.005079440772533417,-0.0074776033870875835,-0.002947741188108921
1761401473665990400,6.155990478515625,-0.004196783993393183,-0.008443529717624187,-0.005945444107055664
1761401473676091400,6.16609130859375,-0.002781202085316181,-0.009259571321308613,-0.005862174555659294
1761401473686172000,6.176171875,-0.004796324763447046,-0.007427641656249762,-0.004629785660654306
1761401473696247800,6.186247802734375,-0.008210374973714352,-0.004862940404564142,-0.0016986982664093375
1761401473706314800,6.196314697265625,-0.010125573724508286,-0.0025313934311270714,0.0007494257297366858
1761401473716414700,6.206414794921875,-0.007177833002060652,-0.002897779457271099,0.0010991577291861176
1761401473726496800,6.216496826171875,-0.003380742622539401,-0.0053459033370018005,-0.003513973904773593
1761401473736554500,6.226554443359375,-0.0016986982664093375,-0.009592649526894093,-0.008693338371813297
1761401473746657800,6.23665771484375,-0.0007993874605745077,-0.007627488579601049,-0.011757656931877136
1761401473756739800,6.24673974609375,-0.0005162710440345109,-0.009242917411029339,-0.012257274240255356
1761401473766820600,6.256820556640625,-0.00024980856687761843,-0.008693338371813297,-0.011324655264616013
1761401473776881400,6.26688134765625,-0.00024980856687761843,-0.003930321428924799,-0.00997568853199482
1761401473786985700,6.27698583984375,0.00046630934230051935,0.0014322358183562756,-0.00929287914186716
1761401473797063200,6.287063232421875,0.0010991577291861176,0.0026646247133612633,-0.008693338371813297
1761401473807104800,6.297104736328125,0.002931087277829647,0.004130168352276087,-0.009359494782984257
1761401473817233400,6.3072333984375,0.004246745724231005,0.005895482376217842,-0.006994639988988638
1761401473827284700,6.31728466796875,0.002814509905874729,0.004629785660654306,-0.002847817726433277
1761401473837387000,6.327386962890625,0.0024980856105685234,0.0011990811908617616,0.0014655436389148235
1761401473847446000,6.337446044921875,0.0038303982000797987,0.0026479708030819893,0.003680513007566333
1761401473857549300,6.34754931640625,0.003563935635611415,0.006128637120127678,0.003580589545890689
1761401473867630300,6.35763037109375,0.003380742622539401,0.008610068820416927,0.004046898800879717
1761401473877710600,6.367710693359375,0.00654498441144824,0.011091500520706177,0.005695635452866554
1761401473887792000,6.377792236328125,0.010691806674003601,0.011474540457129478,0.007161179091781378
1761401473897872600,6.38787255859375,0.008460183627903461,0.01102488487958908,0.007261102553457022
1761401473907953700,6.39795361328125,0.00662825396284461,0.010425344109535217,0.00489624822512269
1761401473918034700,6.40803466796875,0.004313361365348101,0.01160777173936367,0.0011657733703032136
1761401473928115500,6.418115478515625,0.004346669185906649,0.012723583728075027,-0.0006161945057101548
1761401473948277500,6.438277587890625,0.0026812786236405373,0.014072549529373646,0.0009326186846010387
1761401473958359000,6.448359130859375,0.0018818912794813514,0.012007465586066246,0.004013590980321169
1761401473968439600,6.458439453125,0.002398162381723523,0.012507082894444466,0.005645673722028732
1761401473978521000,6.46852099609375,0.0012656967155635357,0.015887824818491936,0.006611600052565336
1761401473988582100,6.47858203125,0.0010325420880690217,0.014488897286355495,0.003031010739505291
1761401473998682000,6.48868212890625,0.00003330780964461155,0.014355666004121304,0.00039969373028725386
1761401474008763600,6.498763671875,-0.00044965543202124536,0.012890121899545193,-0.0007993874605745077
1761401474018845400,6.508845458984375,-0.0019485069205984473,0.014638782478868961,0.00016653904458507895
1761401474028926700,6.5189267578125,-0.0005162710440345109,0.013872702606022358,0.0022482771892100573
1761401474039006500,6.52900634765625,-0.0007660796400159597,0.012507082894444466,0.002997702918946743
1761401474049087500,6.53908740234375,-0.0010825038189068437,0.01144123263657093,0.003164242021739483
1761401474059167700,6.549167724609375,-0.0009492725948803127,0.010725114494562149,0.0009992342675104737
1761401474069249500,6.55924951171875,-0.0012656967155635357,0.008376914076507092,-0.00024980856687761843
1761401474079308300,6.569308349609375,-0.002331546740606427,0.009093032218515873,0.0002165007608709857
1761401474089411800,6.579411865234375,-0.0005995405954308808,0.00920960959047079,0.0018652373692020774
1761401474099470000,6.589469970703125,0.00016653904458507895,0.009076378308236599,0.004096860531717539
1761401474109550300,6.59955029296875,0.0005662327748723328,0.011341309174895287,0.0038970138411968946
1761401474119632100,6.609632080078125,0.0012323890114203095,0.014805321581661701,0.0011158116394653916
1761401474129717500,6.619717529296875,0.0009159647743217647,0.01665390469133854,-0.000016653904822305776
1761401474139793700,6.629793701171875,-0.0019818146247416735,0.012390505522489548,0.0006828100886195898
1761401474149863700,6.63986376953125,-0.008193721063435078,0.006828100886195898,0.0027312403544783592
1761401474159946500,6.649946533203125,-0.00866003055125475,0.0020983919966965914,0.00654498441144824
1761401474170044200,6.660044189453125,-0.005795558914542198,-0.0006495022680610418,0.006145291030406952
1761401474180125400,6.67012548828125,-0.0019151991000398993,-0.003347434801980853,-0.00039969373028725386
1761401474190206200,6.680206298828125,-0.0017320060869678855,-0.005046132951974869,-0.00807714369148016
1761401474200302000,6.690302001953125,-0.002897779457271099,-0.0053792111575603485,-0.012074081227183342
1761401474210364000,6.700364013671875,-0.002897779457271099,-0.006428407039493322,-0.010908307507634163
1761401474220452000,6.7104521484375,-0.0018985451897606254,-0.003946975339204073,-0.00807714369148016
1761401474230545200,6.720545166015625,-0.0017320060869678855,0.0022982389200478792,-0.0054291728883981705
1761401474240603000,6.730602783203125,0.00019984686514362693,0.005529096350073814,-0.003147588111460209
1761401474250707700,6.740707763671875,-0.0010491959983482957,0.004413284827023745,-0.0045132082886993885
1761401474260788700,6.750788818359375,-0.0013822740875184536,0.00003330780964461155,-0.007161179091781378
1761401474270868200,6.7608681640625,-0.0002997702977154404,-0.004246745724231005,-0.00920960959047079
1761401474280949500,6.770949462890625,0.00011657733557512984,-0.012290582060813904,-0.011008230969309807
1761401474291031000,6.781031005859375,-0.0004996171337552369,-0.020933957770466805,-0.011724349111318588
1761401474301112800,6.79111279296875,-0.0015654671005904675,-0.02476435713469982,-0.011324655264616013
1761401474311192800,6.80119287109375,-0.0011158116394653916,-0.0210005734115839,-0.008376914076507092
1761401474321273300,6.8112734375,-0.0003663859097287059,-0.014305704273283482,-0.004746363032609224
1761401474331330000,6.821330078125,-0.0008493491332046688,-0.009093032218515873,-0.0004996171337552369
1761401474341436200,6.831436279296875,-0.000016653904822305776,-0.002481431933119893,0.0020484302658587694
1761401474351485400,6.8414853515625,0.0010158881777897477,0.0018319295486435294,0.0008660030434839427
1761401474361598000,6.851597900390625,-0.0005995405954308808,0.00038303982000797987,-0.0017653139075264335
1761401474371678500,6.861678466796875,-0.00046630934230051935,-0.0022649310994893312,-0.006228560581803322
1761401474381756700,6.871756591796875,-0.0000666156192892231,-0.004146822262555361,-0.010908307507634163
1761401474391841000,6.881841064453125,-0.0012656967155635357,-0.007011293899267912,-0.012940083630383015
1761401474401890600,6.891890625,-0.003647205187007785,-0.007860642857849598,-0.012090735137462616
1761401474411980000,6.90197998046875,-0.005295941606163979,-0.0053459033370018005,-0.009809150360524654
1761401474422061800,6.912061767578125,-0.00626186840236187,-0.006145291030406952,-0.010358728468418121
1761401474432164400,6.922164306640625,-0.00646171486005187,-0.007943912409245968,-0.01022549718618393
1761401474442246100,6.93224609375,-0.004879594314843416,-0.008726646192371845,-0.008460183627903461
1761401474452327700,6.94232763671875,-0.0026979325339198112,-0.007960566319525242,-0.008510145358741283
1761401474462408200,6.952408203125,-0.0007993874605745077,-0.006644907873123884,-0.008127105422317982
1761401474472489000,6.962489013671875,-0.00046630934230051935,-0.003247511340305209,-0.007644142489880323
1761401474482570200,6.9725703125,-0.0019485069205984473,-0.0044465926475822926,-0.006661561783403158
1761401474492650800,6.982650634765625,-0.0013323123566806316,-0.0044965543784201145,-0.006411753129214048
1761401474512813600,7.0028134765625,0.0003497319994494319,-0.002847817726433277,-0.005695635452866554
1761401474522893600,7.0128935546875,-0.0013156584464013577,-0.003247511340305209,-0.005712289363145828
1761401474532974300,7.022974365234375,-0.003347434801980853,-0.004013590980321169,-0.0017320060869678855
1761401474543055600,7.0330556640625,-0.004796324763447046,-0.0013156584464013577,-0.0006161945057101548
1761401474553137400,7.043137451171875,-0.003996937070041895,0.0006828100886195898,-0.0005495788645930588
1761401474563207700,7.053207763671875,-0.0027312403544783592,0.002981049008667469,-0.003280819160863757
1761401474573298400,7.06329833984375,-0.0015987749211490154,0.007361026015132666,-0.004629785660654306
1761401474583379200,7.073379150390625,-0.002881125546991825,0.007810681592673063,-0.006228560581803322
1761401474593449200,7.08344921875,-0.005079440772533417,0.0022649310994893312,-0.004796324763447046
1761401474603541200,7.093541259765625,-0.006728177424520254,-0.002481431933119893,-0.004030244890600443
1761401474613621800,7.103621826171875,-0.006328484043478966,-0.0010491959983482957,-0.003547281725332141
1761401474623703300,7.113703369140625,-0.006894716527312994,0.004763016942888498,-0.003147588111460209
1761401474633784600,7.12378466796875,-0.008859877474606037,0.006944678258150816,-0.003913667518645525
1761401474643865300,7.133865234375,-0.008709992282092571,0.010441998019814491,-0.00551244243979454
1761401474653935600,7.143935546875,-0.006445060949772596,0.012490428984165192,-0.004330015275627375
1761401474664016600,7.1540166015625,-0.005196018144488335,0.014039241708815098,-0.0026146629825234413
1761401474674098700,7.1640986328125,-0.0038970138411968946,0.016220903024077415,-0.0014155819080770016
1761401474684189000,7.17418896484375,-0.0025147395208477974,0.018802259117364883,0.0004330015217419714
1761401474694282000,7.184281982421875,-0.0001498851488577202,0.02241615578532219,0.0013822740875184536
1761401474704351200,7.194351318359375,0.0020817380864173174,0.021799961104989052,0.002314892830327153
1761401474714422800,7.2044228515625,0.002764548175036907,0.018152756616473198,0.0011824272805824876
1761401474724506000,7.214506103515625,0.00016653904458507895,0.009426110424101353,-0.002831163816154003
1761401474734594300,7.22459423828125,-0.0022649310994893312,0.0007993874605745077,-0.004696401301771402
1761401474744664000,7.2346640625,-0.0025480473414063454,-0.004363323096185923,-0.006328484043478966
1761401474754744800,7.244744873046875,-0.0025980090722441673,-0.005279287695884705,-0.005795558914542198
1761401474764837400,7.25483740234375,-0.0027312403544783592,-0.002764548175036907,-0.0022482771892100573
1761401474774918100,7.264918212890625,-0.0002664624771568924,0.0026479708030819893,-0.0006661561783403158
1761401474784989000,7.274989013671875,0.0001498851488577202,0.006661561783403158,-0.00046630934230051935
1761401474795069000,7.28506884765625,-0.00008326952229253948,0.011407924816012383,-0.0012656967155635357
1761401474805161000,7.295160888671875,0.0001332312385784462,0.011874234303832054,-0.0017819678178057075
1761401474815254500,7.305254638671875,-0.00023315467115025967,0.011058192700147629,-0.003930321428924799
1761401474825323500,7.315323486328125,-0.002931087277829647,0.00816041324287653,-0.003613897366449237
1761401474835390700,7.325390625,-0.0044632465578615665,0.007893950678408146,-0.002781202085316181
1761401474845473500,7.3354736328125,-0.006062021479010582,0.006778139155358076,-0.003297473071143031
1761401474855554800,7.345554931640625,-0.006161944940686226,0.0015821210108697414,-0.005179364234209061
1761401474865646800,7.355646728515625,-0.007311064284294844,-0.003330780891701579,-0.006728177424520254
1761401474875716400,7.36571630859375,-0.00799387414008379,-0.005945444107055664,-0.008543453179299831
1761401474885797000,7.375797119140625,-0.006744831334799528,-0.00671152351424098,-0.010092265903949738
1761401474895878100,7.385878173828125,-0.005279287695884705,-0.004829632584005594,-0.010575229302048683
1761401474905971000,7.395970947265625,-0.0014655436389148235,-0.0007161179091781378,-0.007394333835691214
1761401474916052000,7.406052001953125,0.0009992342675104737,0.003563935635611415,-0.004912902135401964
1761401474926133200,7.41613330078125,0.003097626380622387,0.00559571199119091,-0.004230091813951731
1761401474936211200,7.426211181640625,0.0026479708030819893,0.007344372104853392,-0.004862940404564142
1761401474946294500,7.43629443359375,0.0005828866851516068,0.006128637120127678,-0.005129402503371239
1761401474956375800,7.446375732421875,-0.0006161945057101548,0.003280819160863757,-0.005146056413650513
1761401474966461000,7.4564609375,-0.002364854561164975,-0.003130934201180935,-0.005778905004262924
1761401474976537900,7.466537841796875,-0.0045631700195372105,-0.008110451512038708,-0.00712787127122283
1761401474986619000,7.476618896484375,-0.0074609494768083096,-0.006861408706754446,-0.006861408706754446
1761401474996699400,7.486699462890625,-0.006078675389289856,-0.0005162710440345109,-0.004046898800879717
1761401475006764000,7.496763916015625,-0.0019318530103191733,0.007261102553457022,-0.0007660796400159597
1761401475016850400,7.506850341796875,0.002747894264757633,0.010575229302048683,-0.0001332312385784462
1761401475026943200,7.516943115234375,0.003414050443097949,0.008610068820416927,-0.0005495788645930588
1761401475037012700,7.5270126953125,0.00038303982000797987,0.006211906671524048,-0.0016487365355715156
1761401475047104300,7.537104248046875,-0.002981049008667469,0.003980283159762621,-0.0007993874605745077
1761401475057174800,7.5471748046875,-0.006228560581803322,0.003563935635611415,0.00004996171628590673
1761401475067266300,7.557266357421875,-0.006744831334799528,0.002997702918946743,0.0006161945057101548
1761401475077347300,7.567347412109375,-0.004113514441996813,0.004130168352276087,-0.0012823506258428097
1761401475087405800,7.57740576171875,-0.003047664649784565,-0.0005495788645930588,-0.005562404170632362
1761401475097506300,7.58750634765625,-0.0045465161092579365,0.0001332312385784462,-0.008893185295164585
1761401475107591400,7.59759130859375,-0.003380742622539401,0.0013323123566806316,-0.010375382378697395
1761401475117672000,7.607671875,-0.0015987749211490154,0.0026646247133612633,-0.010491959750652313
1761401475127748900,7.617748779296875,-0.0010658499086275697,0.004929556045681238,-0.00841022189706564
1761401475137833500,7.62783349609375,-0.00009992343257181346,0.007893950678408146,-0.00646171486005187
1761401475147914200,7.637914306640625,-0.0009825803572311997,0.008893185295164585,-0.005495788529515266
1761401475157988400,7.64798828125,-0.0014155819080770016,0.004879594314843416,-0.00634513795375824
1761401475168065500,7.6580654296875,-0.0013323123566806316,-0.0012157351011410356,-0.006694869603961706
1761401475178157000,7.668156982421875,-0.002381508471444249,-0.0075442190282046795,-0.00584552064538002
1761401475188227300,7.678227294921875,-0.003414050443097949,-0.011657733470201492,-0.00472970912232995
1761401475198319600,7.688319580078125,-0.0037637825589627028,-0.013056661002337933,-0.0038303982000797987
1761401475208400400,7.698400390625,-0.004429938737303019,-0.009026416577398777,-0.004180130083113909
1761401475218481400,7.7084814453125,-0.004013590980321169,-0.00016653904458507895,-0.003264165250584483
1761401475228536800,7.718536865234375,-0.0017653139075264335,0.0082436827942729,-0.0017653139075264335
1761401475238643500,7.7286435546875,0.00018319295486435294,0.015837863087654114,0.0000666156192892231
1761401475248724500,7.738724365234375,0.0013989279977977276,0.01753656193614006,0.0009326186846010387
1761401475258794200,7.748794189453125,0.0006828100886195898,0.015221669338643551,0.0005662327748723328
1761401475268886000,7.758885986328125,-0.0013323123566806316,0.009942381642758846,-0.003130934201180935
1761401475278944000,7.768944091796875,-0.003480666084215045,0.0075442190282046795,-0.006045367568731308
1761401475289014500,7.7790146484375,-0.005012825131416321,0.004713055212050676,-0.007311064284294844
1761401475299111000,7.78911083984375,-0.009575995616614819,0.0022649310994893312,-0.005495788529515266
1761401475309217500,7.799217529296875,-0.009359494782984257,0.0017153521766886115,-0.00464643957093358
1761401475319268400,7.809268310546875,-0.007777373772114515,0.0015654671005904675,-0.004196783993393183
1761401475329372700,7.81937255859375,-0.005179364234209061,0.0026146629825234413,-0.003497319994494319
1761401475339454500,7.829454345703125,-0.0045298621989786625,0.004879594314843416,-0.003097626380622387
1761401475349534200,7.8395341796875,-0.0044965543784201145,0.006161944940686226,-0.003447358263656497
1761401475359615000,7.849614990234375,-0.004413284827023745,0.00782733503729105,-0.003464012173935771
1761401475369697000,7.859697021484375,-0.003031010739505291,0.007177833002060652,-0.003663859097287059
1761401475379777000,7.869777099609375,-0.003247511340305209,0.005695635452866554,-0.003713820828124881
1761401475389858600,7.879858642578125,-0.004130168352276087,0.00559571199119091,-0.0026146629825234413
1761401475399940000,7.889940185546875,-0.004280053544789553,0.005895482376217842,-0.0025647012516856194
1761401475410020900,7.900020751953125,-0.0025647012516856194,0.0045631700195372105,-0.0015654671005904675
1761401475420102700,7.9101025390625,-0.0021816615480929613,0.0044465926475822926,-0.0008326952229253948
1761401475430182100,7.92018212890625,-0.004663093481212854,0.0045964778400957584,0.0007161179091781378
1761401475440262400,7.930262451171875,-0.0045964778400957584,0.005079440772533417,0.0020817380864173174
1761401475450344700,7.9403447265625,-0.003180895932018757,0.0072111408226192,0.0027145864441990852
1761401475460425700,7.95042578125,-0.0004996171337552369,0.010108919814229012,0.0020650841761380434
1761401475470507300,7.96050732421875,-0.00009992343257181346,0.00807714369148016,-0.0004163476114626974
1761401475480587300,7.970587158203125,-0.0013989279977977276,0.0037637825589627028,-0.0008660030434839427
1761401475490668500,7.98066845703125,-0.00481297867372632,0.0012323890114203095,-0.0008493491332046688
1761401475500726500,7.9907265625,-0.009476072154939175,0.0015155053697526455,-0.0009992342675104737
1761401475510831400,8.000831298828125,-0.010158881545066833,0.002897779457271099,-0.0010658499086275697
1761401475520911600,8.01091162109375,-0.005795558914542198,0.003630551276728511,-0.002381508471444249
1761401475530992400,8.020992431640625,-0.0018652373692020774,0.003480666084215045,-0.003064318560063839
1761401475541073700,8.03107373046875,0.0004163476114626974,0.003047664649784565,-0.003680513007566333
1761401475551153700,8.041153564453126,0.0011491194600239396,0.0018319295486435294,-0.005579058080911636
1761401475561235000,8.05123486328125,0.0004330015217419714,0.0005329249543137848,-0.007327718194574118
1761401475571316700,8.061316650390625,0.00038303982000797987,0.0021650076378136873,-0.008043835870921612
1761401475581397200,8.071397216796875,0.0003164241788908839,0.0053459033370018005,-0.0045798239298164845
1761401475591463400,8.08146337890625,0.0014988514594733715,0.007394333835691214,-0.0015654671005904675
1761401475601559600,8.0915595703125,0.0006495022680610418,0.006694869603961706,0.00039969373028725386
1761401475611640300,8.101640380859376,-0.0002165007608709857,0.0012490428052842617,-0.0004163476114626974
1761401475621721300,8.111721435546874,-0.0011990811908617616,-0.003280819160863757,-0.0013489662669599056
1761401475631803000,8.121802978515625,-0.0015155053697526455,-0.006111983209848404,-0.0004163476114626974
1761401475651964400,8.14196435546875,-0.0012323890114203095,0.0016320826252922416,-0.0014322358183562756
1761401475662046000,8.1520458984375,0.00009992343257181346,0.003064318560063839,-0.0018152756383642554
1761401475672126200,8.162126220703126,0.002398162381723523,0.005695635452866554,-0.0019318530103191733
1761401475682207000,8.17220703125,0.004230091813951731,0.005778905004262924,-0.0010658499086275697
1761401475692287700,8.182287841796875,0.0038803599309176207,0.008360260166227818,0.0004996171337552369
1761401475702368500,8.192368408203125,0.0027145864441990852,0.012357197701931,0.0015654671005904675
1761401475712451000,8.202451171875,0.0026812786236405373,0.013189892284572124,0.0016986982664093375
1761401475722530300,8.2125302734375,0.0005162710440345109,0.011790964752435684,0.0015321592800319195
1761401475732612600,8.222612548828126,-0.0010991577291861176,0.007760719861835241,0.003247511340305209
1761401475742692900,8.23269287109375,-0.002481431933119893,0.004763016942888498,0.004296707455068827
1761401475752773400,8.2427734375,-0.0021483537275344133,0.0021983154583722353,0.004280053544789553
1761401475762854700,8.252854736328125,-0.0015155053697526455,0.0024980856105685234,0.0016986982664093375
1761401475772936000,8.26293603515625,0.0008660030434839427,0.006611600052565336,0.0027312403544783592
1761401475783016700,8.2730166015625,0.002981049008667469,0.013356431387364864,0.004230091813951731
1761401475793098000,8.283097900390626,0.002331546740606427,0.014921898953616619,0.005096094682812691
1761401475803148800,8.293148681640625,0.0011324655497446656,0.013556278310716152,0.003996937070041895
1761401475813259500,8.303259521484375,0.0014488897286355495,0.011957503855228424,0.0014655436389148235
1761401475823341600,8.313341552734375,0.0021816615480929613,0.010375382378697395,-0.0008160413126461208
1761401475833399300,8.3233994140625,0.0012323890114203095,0.010941615328192711,-0.0005828866851516068
1761401475843503600,8.333503662109376,0.0013323123566806316,0.009859112091362476,0.0006661561783403158
1761401475853561600,8.3435615234375,0.0008660030434839427,0.006161944940686226,-0.002364854561164975
1761401475863664600,8.35366455078125,0.0008993108640424907,0.0017486599972471595,-0.004696401301771402
1761401475873746400,8.363746337890625,-0.0006495022680610418,-0.0024980856105685234,-0.008093797601759434
1761401475883826700,8.37382666015625,-0.0020650841761380434,-0.003547281725332141,-0.007077909540385008
1761401475893908200,8.383908203125,-0.002448124112561345,-0.0001498851488577202,-0.003414050443097949
1761401475903989000,8.393989013671876,-0.0016653904458507895,0.0025813551619648933,0.0000666156192892231
1761401475914070000,8.404070068359376,0.00009992343257181346,0.005112748593091965,0.0016320826252922416
1761401475924151000,8.414151123046874,0.0015321592800319195,0.00646171486005187,0.0017819678178057075
1761401475934230800,8.424230712890624,0.0018319295486435294,0.003996937070041895,0.0003330780891701579
1761401475944310800,8.434310791015625,-0.0004996171337552369,0.00039969373028725386,-0.0017153521766886115
1761401475954393600,8.4443935546875,-0.0021983154583722353,-0.0025480473414063454,-0.0022649310994893312
1761401475964474000,8.45447412109375,-0.0016320826252922416,-0.002881125546991825,-0.003380742622539401
1761401475974520800,8.464520751953126,0.0003330780891701579,-0.003380742622539401,-0.005562404170632362
1761401475984636200,8.47463623046875,0.0008493491332046688,-0.002747894264757633,-0.006161944940686226
1761401475994717200,8.48471728515625,0.0010825038189068437,-0.0020983919966965914,-0.005812212824821472
1761401476004798500,8.494798583984375,0.0007827335502952337,-0.0002664624771568924,-0.004696401301771402
1761401476014880300,8.50488037109375,0.0010825038189068437,0.003497319994494319,-0.0037804364692419767
1761401476024978000,8.51497802734375,0.003080972470343113,0.004346669185906649,-0.002331546740606427
1761401476035041500,8.52504150390625,0.004962863866239786,0.0015987749211490154,-0.0015155053697526455
1761401476045122300,8.535122314453124,0.005728943273425102,-0.002348200650885701,-0.0020151224453002214
1761401476055203600,8.54520361328125,0.004613131750375032,-0.004280053544789553,-0.0014488897286355495
1761401476065257200,8.55525732421875,0.003347434801980853,-0.003031010739505291,-0.0001498851488577202
1761401476075365600,8.56536572265625,0.003047664649784565,-0.002314892830327153,0.0020151224453002214
1761401476085446000,8.57544580078125,0.003464012173935771,0.00038303982000797987,0.0018152756383642554
1761401476095527200,8.585527099609376,0.004413284827023745,0.0015321592800319195,0.0015155053697526455
1761401476105607400,8.595607421875,0.005196018144488335,0.0009992342675104737,0.0022982389200478792
1761401476115688400,8.6056884765625,0.006478368770331144,0.003480666084215045,0.002864471636712551
1761401476125770500,8.6157705078125,0.007794027682393789,0.005812212824821472,0.003996937070041895
1761401476135851500,8.6258515625,0.007744065951555967,0.007427641656249762,0.004413284827023745
1761401476145931500,8.635931640625,0.007111217360943556,0.006528330501168966,0.0037804364692419767
1761401476156013600,8.646013671875,0.007344372104853392,0.004246745724231005,0.0012656967155635357
1761401476166093800,8.65609375,0.00634513795375824,0.0015987749211490154,-0.0006994639988988638
1761401476176175400,8.66617529296875,0.004629785660654306,-0.0010658499086275697,-0.003130934201180935
1761401476186255600,8.676255615234375,0.003447358263656497,-0.0026646247133612633,-0.0037304747384041548
1761401476196337400,8.68633740234375,0.003480666084215045,-0.0009492725948803127,-0.0018652373692020774
1761401476206417400,8.69641748046875,0.004013590980321169,0.003230857430025935,0.0022149693686515093
1761401476216467500,8.706467529296875,0.00567898154258728,0.007877296768128872,0.005995405837893486
1761401476226579200,8.7165791015625,0.007344372104853392,0.006145291030406952,0.006028713658452034
1761401476236661500,8.72666162109375,0.008560107089579105,-0.0018652373692020774,0.0015488131903111935
1761401476246741800,8.73674169921875,0.010158881545066833,-0.008776607923209667,-0.0021150459069758654
1761401476256822800,8.74682275390625,0.010342074558138847,-0.012856814078986645,-0.00489624822512269
1761401476266904300,8.756904296875,0.007977220229804516,-0.01392266433686018,-0.00464643957093358
1761401476276987000,8.76698681640625,0.005978751927614212,-0.011707695201039314,-0.002481431933119893
1761401476287065600,8.777065673828124,0.006278522312641144,-0.004946209955960512,0.0015321592800319195
1761401476297147600,8.787147705078125,0.008060489781200886,0.0011824272805824876,0.0045298621989786625
1761401476307232800,8.797232666015624,0.009775842539966106,0.0054125189781188965,0.00592879019677639
1761401476317308200,8.80730810546875,0.010242151096463203,0.006411753129214048,0.0053958650678396225
1761401476327389000,8.817388916015625,0.0094594182446599,0.0012990045361220837,0.004912902135401964
1761401476337470500,8.827470458984376,0.008476837538182735,-0.0037804364692419767,0.003980283159762621
1761401476347552000,8.837552001953124,0.007161179091781378,-0.007860642857849598,0.003347434801980853
1761401476357632500,8.847632568359375,0.006045367568731308,-0.007361026015132666,0.0026479708030819893
1761401476367714000,8.857714111328125,0.0053125955164432526,-0.005129402503371239,0.0004996171337552369
1761401476377789400,8.86778955078125,0.002747894264757633,-0.003147588111460209,-0.00019984686514362693
1761401476387852800,8.877852783203124,0.0009825803572311997,-0.0015321592800319195,0.0019151991000398993
1761401476397956000,8.8879560546875,0.0015321592800319195,0.0022815850097686052,0.004379977006465197
1761401476418097700,8.90809765625,0.006128637120127678,0.0020983919966965914,0.005695635452866554
1761401476428198400,8.918198486328125,0.007027947809547186,-0.00008326952229253948,0.002348200650885701
1761401476438280700,8.92828076171875,0.006977986078709364,-0.0026646247133612633,-0.0012323890114203095
1761401476448361700,8.93836181640625,0.006611600052565336,-0.0074776033870875835,-0.0011824272805824876
1761401476458443500,8.948443603515624,0.0053792111575603485,-0.008693338371813297,0.00008326952229253948
1761401476468523500,8.9585234375,0.006811446975916624,-0.00712787127122283,0.003464012173935771
1761401476478604000,8.96860400390625,0.007410987745970488,-0.004280053544789553,0.006195252761244774
1761401476488709600,8.978709716796875,0.007244448643177748,-0.0021816615480929613,0.005146056413650513
1761401476498766300,8.988766357421875,0.008110451512038708,-0.0014488897286355495,0.003014356829226017
1761401476508847600,8.99884765625,0.009009762667119503,-0.0015155053697526455,0.003147588111460209
1761401476518926000,9.008926025390625,0.008376914076507092,-0.003547281725332141,0.0044965543784201145
1761401476529009700,9.019009765625,0.007727412041276693,-0.00609532929956913,0.006211906671524048
1761401476539090400,9.02909033203125,0.007227794732898474,-0.006911370437592268,0.005479134619235992
1761401476549174000,9.039174072265626,0.0075275651179254055,-0.008010528050363064,0.004046898800879717
1761401476559252200,9.049252197265625,0.009242917411029339,-0.007744065951555967,0.0027312403544783592
1761401476569333000,9.0593330078125,0.009392802603542805,-0.006528330501168966,0.0011657733703032136
1761401476579414300,9.069414306640626,0.008610068820416927,-0.003080972470343113,0.0008160413126461208
1761401476589494800,9.079494873046874,0.007427641656249762,0.0016986982664093375,0.0019151991000398993
1761401476599553300,9.08955322265625,0.006977986078709364,0.005162710323929787,0.004796324763447046
1761401476609677300,9.09967724609375,0.006445060949772596,0.005795558914542198,0.00592879019677639
1761401476619739000,9.10973876953125,0.006911370437592268,0.004679747391492128,0.0053958650678396225
1761401476629819000,9.11981884765625,0.008043835870921612,0.003497319994494319,0.004629785660654306
1761401476639877400,9.12987744140625,0.007810681592673063,-0.0002831163874361664,0.003464012173935771
1761401476649980700,9.139980712890624,0.007660796400159597,-0.004330015275627375,0.002481431933119893
1761401476660061000,9.15006103515625,0.006561638321727514,-0.003996937070041895,0.002348200650885701
1761401476670143200,9.160143310546875,0.005812212824821472,-0.0022649310994893312,0.0045132082886993885
1761401476680223500,9.170223388671875,0.003230857430025935,-0.0015821210108697414,0.005995405837893486
1761401476690305800,9.180305908203126,0.003147588111460209,-0.00003330780964461155,0.006228560581803322
1761401476700386000,9.190385986328126,0.00559571199119091,0.0006661561783403158,0.005962098017334938
1761401476710467300,9.20046728515625,0.007111217360943556,0.0010991577291861176,0.003563935635611415
1761401476720547600,9.210547607421875,0.007794027682393789,0.0005662327748723328,0.002881125546991825
1761401476730628900,9.22062890625,0.008859877474606037,0.003147588111460209,0.002747894264757633
1761401476740686600,9.2306865234375,0.009076378308236599,0.005245979875326157,0.005795558914542198
1761401476750790700,9.240790771484376,0.009842458181083202,0.005962098017334938,0.008976454846560955
1761401476760872400,9.25087255859375,0.009725880809128284,0.004363323096185923,0.008193721063435078
1761401476770969000,9.260968994140624,0.007361026015132666,-0.0004330015217419714,0.00671152351424098
1761401476781038600,9.27103857421875,0.005662327632308006,-0.003680513007566333,0.0061785988509655
1761401476791114500,9.281114501953125,0.005529096350073814,-0.0021816615480929613,0.00654498441144824
1761401476801195800,9.29119580078125,0.00687806261703372,0.003014356829226017,0.008343606255948544
1761401476811277600,9.301277587890626,0.006844754796475172,0.00737767992541194,0.0074942572973668575
1761401476821358000,9.311358154296874,0.005046132951974869,0.007327718194574118,0.006478368770331144
1761401476831418600,9.321418701171876,0.0038303982000797987,0.007877296768128872,0.007794027682393789
1761401476841519900,9.331519775390625,0.003647205187007785,0.008210374973714352,0.009609303437173367
1761401476851578000,9.341578125,0.003713820828124881,0.007694104220718145,0.009609303437173367
1761401476861681200,9.35168115234375,0.003663859097287059,0.00472970912232995,0.005912136286497116
1761401476871763000,9.361762939453126,0.0045465161092579365,-0.0012157351011410356,0.00038303982000797987
1761401476881833200,9.371833251953126,0.002981049008667469,-0.0037970903795212507,-0.003264165250584483
1761401476891925200,9.38192529296875,0.00038303982000797987,-0.003164242021739483,-0.003264165250584483
1761401476902004700,9.392004638671875,-0.0009659265051595867,-0.0016320826252922416,-0.0010991577291861176
1761401476912096800,9.4020966796875,0.0005495788645930588,0.004046898800879717,0.0002165007608709857
1761401476922167800,9.412167724609375,0.0025647012516856194,0.00849349144846201,0.0025480473414063454
1761401476932248000,9.422248046875,0.004763016942888498,0.008293644525110722,0.0018818912794813514
1761401476942329600,9.43232958984375,0.007344372104853392,0.002814509905874729,0.0010658499086275697
1761401476952387800,9.442387939453125,0.008060489781200886,-0.003563935635611415,0.0005495788645930588
1761401476962491400,9.452491455078125,0.008776607923209667,-0.004962863866239786,0.002414816292002797
1761401476972572000,9.462572021484375,0.009392802603542805,-0.006528330501168966,0.004063552711158991
1761401476982653200,9.472653076171875,0.009009762667119503,-0.008027181960642338,0.003913667518645525
1761401476992735000,9.48273486328125,0.007244448643177748,-0.010108919814229012,0.002448124112561345
1761401477002815700,9.492815673828124,0.004996171221137047,-0.009076378308236599,0.0026479708030819893
1761401477012913200,9.5029130859375,0.0044465926475822926,-0.0061785988509655,0.002831163816154003
1761401477022977800,9.512977783203125,0.006578292232006788,-0.003330780891701579,0.003247511340305209
1761401477033058300,9.523058349609375,0.009575995616614819,0.00004996171628590673,0.0038303982000797987
1761401477043138800,9.533138916015625,0.010808384045958519,0.004979517310857773,0.005079440772533417
1761401477053219800,9.5432197265625,0.011890888214111328,0.007361026015132666,0.005545750260353088
1761401477063301600,9.553301513671874,0.010608537122607231,0.004629785660654306,0.003680513007566333
1761401477073381000,9.563381103515624,0.00866003055125475,0.0001498851488577202,0.0007161179091781378
1761401477083462700,9.573462646484375,0.007860642857849598,-0.0038803599309176207,-0.0016820443561300635
1761401477093544400,9.58354443359375,0.006661561783403158,-0.005212672054767609,-0.0009992342675104737
1761401477103625200,9.593625244140625,0.005062786862254143,-0.0024980856105685234,0.0027312403544783592
1761401477113706500,9.60370654296875,0.0045132082886993885,0.0011158116394653916,0.004213437903672457
1761401477123786500,9.613786376953126,0.00472970912232995,0.0037471286486834288,0.003147588111460209
1761401477133868500,9.62386865234375,0.005978751927614212,0.004629785660654306,0.0018652373692020774
1761401477143968000,9.633968017578125,0.006495022680610418,0.0037804364692419767,-0.00038303982000797987
1761401477154011000,9.644010986328125,0.006761485245078802,0.0025480473414063454,-0.0008326952229253948
1761401477164111400,9.654111328125,0.008959800936281681,0.0012656967155635357,0.00016653904458507895
1761401477174192000,9.664192138671876,0.00970922689884901,0.00039969373028725386,0.0012823506258428097
1761401477184272000,9.67427197265625,0.009925727732479572,0.0020317763555794954,0.003430704353377223
1761401477194354400,9.6843544921875,0.009059724397957325,0.0054624807089567184,0.005146056413650513
1761401477204434700,9.6944345703125,0.009526033885776997,0.004413284827023745,0.005179364234209061
1761401477214515500,9.704515380859375,0.006678215693682432,0.003563935635611415,0.005112748593091965
1761401477224596000,9.714595947265625,0.004829632584005594,0.005695635452866554,0.004996171221137047
1761401477234677200,9.72467724609375,0.005262633785605431,0.007843988947570324,0.00592879019677639
1761401477244758500,9.734758544921876,0.006578292232006788,0.008626722730696201,0.006594946142286062
1761401477254840000,9.744840087890625,0.009492726065218449,0.009392802603542805,0.004862940404564142
1761401477264942300,9.7549423828125,0.010125573724508286,0.006928024347871542,0.004330015275627375
1761401477275002000,9.765002197265625,0.007410987745970488,0.003464012173935771,0.004180130083113909
1761401477285083000,9.775082763671875,0.004413284827023745,0.0011990811908617616,0.00481297867372632
1761401477295164200,9.7851640625,0.0045465161092579365,0.002481431933119893,0.004313361365348101
1761401477305244700,9.79524462890625,0.005146056413650513,0.004862940404564142,0.002781202085316181
1761401477315325400,9.805325439453124,0.005129402503371239,0.005645673722028732,-0.00048296325257979333
1761401477325406700,9.81540673828125,0.004429938737303019,0.004313361365348101,-0.003047664649784565
1761401477335487700,9.82548779296875,0.005146056413650513,0.006445060949772596,-0.0017486599972471595
1761401477345547000,9.835547119140625,0.00782733503729105,0.005862174555659294,-0.0001332312385784462
1761401477355626500,9.84562646484375,0.009909073822200298,0.0054291728883981705,0.0016154287150129676
1761401477365707300,9.855707275390625,0.01055857539176941,0.005612365901470184,0.002481431933119893
1761401477375788000,9.8657880859375,0.011507848277688026,0.0015654671005904675,0.0011324655497446656
1761401477385868800,9.875868896484375,0.011324655264616013,-0.003447358263656497,-0.00018319295486435294
1761401477395950300,9.885950439453126,0.01039203628897667,-0.0053459033370018005,-0.0006495022680610418
1761401477406054400,9.896054443359375,0.010508613660931587,-0.0053125955164432526,0.0021650076378136873
1761401477416112400,9.9061123046875,0.01005895808339119,-0.0020151224453002214,0.005229325965046883
1761401477426216000,9.9162158203125,0.011324655264616013,0.0013656201772391796,0.0072111408226192
1761401477436309000,9.92630908203125,0.011124808341264725,0.003264165250584483,0.006694869603961706
1761401477446355000,9.93635498046875,0.011324655264616013,0.002398162381723523,0.004879594314843416
1761401477456459500,9.94645947265625,0.011424578726291656,0.0005995405954308808,0.004246745724231005
1761401477466540800,9.956540771484375,0.010008996352553368,-0.0005162710440345109,0.0038803599309176207
1761401477476621300,9.966621337890626,0.008443529717624187,0.002847817726433277,0.004213437903672457
1761401477486702300,9.976702392578124,0.00832695234566927,0.006611600052565336,0.0054458267986774445
1761401477496783400,9.986783447265625,0.008443529717624187,0.00866003055125475,0.0053125955164432526
1761401477506865200,9.996865234375,0.008709992282092571,0.0075941807590425014,0.003280819160863757
1761401477516946400,10.006946533203125,0.008393567986786366,0.006511676590889692,0.0005162710440345109
1761401477527026200,10.017026123046875,0.0075775268487632275,0.004313361365348101,-0.003097626380622387
1761401477537084400,10.02708447265625,0.007161179091781378,0.0014322358183562756,-0.004280053544789553
1761401477547190000,10.03718994140625,0.006028713658452034,-0.0011158116394653916,-0.0018319295486435294
1761401477557268700,10.047268798828124,0.006428407039493322,-0.0016487365355715156,0.0017486599972471595
1761401477567350000,10.05735009765625,0.00696133216843009,-0.0019318530103191733,0.0045798239298164845
1761401477577408500,10.067408447265626,0.0075941807590425014,-0.0016487365355715156,0.006211906671524048
1761401477587488800,10.07748876953125,0.008393567986786366,-0.003680513007566333,0.003530627815052867
1761401477597592600,10.087592529296876,0.008626722730696201,-0.004146822262555361,-0.000016653904822305776
1761401477607650000,10.097650146484375,0.009426110424101353,-0.002814509905874729,0.0002165007608709857
1761401477617754400,10.10775439453125,0.009892419911921024,-0.0019318530103191733,0.0019818146247416735
1761401477627828200,10.117828125,0.008526799269020557,-0.0006994639988988638,0.005029479041695595
1761401477637916200,10.127916259765625,0.00970922689884901,0.0010658499086275697,0.00626186840236187
1761401477647998500,10.13799853515625,0.011008230969309807,0.0011657733703032136,0.005279287695884705
1761401477658079000,10.148078857421876,0.01055857539176941,-0.00023315467115025967,0.003347434801980853
1761401477668184800,10.158184814453126,0.0094594182446599,-0.0016487365355715156,0.0009159647743217647
1761401477678239500,10.168239501953124,0.008227028883993626,-0.0014821975491940975,0.0002165007608709857
1761401477688321500,10.178321533203125,0.008909839205443859,-0.0006828100886195898,0.0012656967155635357
1761401477698379800,10.1883798828125,0.009559341706335545,0.0022482771892100573,0.0021650076378136873
1761401477708483600,10.198483642578125,0.010208843275904655,0.003380742622539401,0.003314126981422305
1761401477718564400,10.208564453125,0.007077909540385008,0.002997702918946743,0.003197549842298031
1761401477728646100,10.218646240234374,0.004996171221137047,0.003130934201180935,0.0018652373692020774
1761401477738726400,10.228726318359374,0.0026479708030819893,0.004779670853167772,0.00008326952229253948
1761401477748807200,10.23880712890625,0.0045798239298164845,0.006811446975916624,-0.0012323890114203095
1761401477758888200,10.24888818359375,0.006644907873123884,0.004113514441996813,-0.002914433367550373
1761401477768969200,10.25896923828125,0.00737767992541194,-0.0019984685350209475,-0.0026812786236405373
1761401477779050000,10.269050048828126,0.0075442190282046795,-0.005579058080911636,-0.0005662327748723328
1761401477789131800,10.2791318359375,0.007943912409245968,-0.007244448643177748,0.0026812786236405373
1761401477799211500,10.28921142578125,0.008143759332597256,-0.003946975339204073,0.004879594314843416
1761401477809250300,10.299250244140625,0.007794027682393789,0.0015654671005904675,0.005495788529515266
1761401477819373800,10.309373779296875,0.007644142489880323,0.002381508471444249,0.006161944940686226
1761401477829454600,10.31945458984375,0.009259571321308613,-0.0004330015217419714,0.003530627815052867
1761401477839536600,10.32953662109375,0.009925727732479572,-0.003214203519746661,0.0006495022680610418
1761401477849617400,10.339617431640624,0.010908307507634163,-0.0075608729384839535,0.00046630934230051935
1761401477859698200,10.3496982421875,0.010075611993670464,-0.011291347444057465,-0.0002997702977154404
1761401477869778200,10.359778076171875,0.009659265168011189,-0.012307235971093178,-0.0012823506258428097
1761401477879859700,10.369859619140625,0.010508613660931587,-0.011591117829084396,-0.0003497319994494319
1761401477889940700,10.379940673828125,0.010258805006742477,-0.015021822415292263,-0.0004163476114626974
1761401477900021500,10.390021484375,0.0075775268487632275,-0.019351838156580925,-0.002931087277829647
1761401477910102800,10.400102783203126,0.006528330501168966,-0.02025114744901657,-0.0053459033370018005
1761401477920148500,10.4101484375,0.00654498441144824,-0.017103560268878937,-0.006694869603961706
1761401477930265300,10.420265380859375,0.007361026015132666,-0.012540390715003014,-0.005912136286497116
1761401477940345300,10.430345458984375,0.007427641656249762,-0.007760719861835241,-0.002847817726433277
1761401477950427100,10.44042724609375,0.009309533052146435,-0.0037304747384041548,0.0006661561783403158
1761401477960485000,10.450485107421875,0.011208077892661095,-0.003047664649784565,0.003247511340305209
1761401477970590000,10.46058984375,0.01194084994494915,-0.0045964778400957584,0.003364088712260127
1761401477980670200,10.470670166015625,0.011674387380480766,-0.006228560581803322,0.003913667518645525
1761401477990735400,10.4807353515625,0.011374616995453835,-0.006278522312641144,0.003264165250584483
1761401478000832300,10.490832275390625,0.010924961417913437,-0.005662327632308006,0.0044965543784201145
1761401478010914000,10.5009140625,0.009859112091362476,-0.004663093481212854,0.005162710323929787
1761401478020993300,10.5109931640625,0.009426110424101353,-0.004862940404564142,0.004346669185906649
1761401478031074600,10.521074462890626,0.010491959750652313,-0.005562404170632362,0.0009825803572311997
1761401478041155600,10.531155517578124,0.010758422315120697,-0.005012825131416321,-0.0009825803572311997
1761401478051236900,10.54123681640625,0.01260700635612011,-0.0021983154583722353,-0.0005495788645930588
1761401478061317600,10.551317626953125,0.013189892284572124,0.0015488131903111935,0.002997702918946743
1761401478071366100,10.5613662109375,0.012223966419696808,0.0026979325339198112,0.00626186840236187
1761401478081479000,10.57147900390625,0.011840926483273506,0.003064318560063839,0.007927258498966694
1761401478091560000,10.581559814453126,0.013056661002337933,0.003080972470343113,0.008360260166227818
1761401478101641200,10.59164111328125,0.01350631657987833,0.0025147395208477974,0.007843988947570324
1761401478111700000,10.601699951171875,0.010575229302048683,0.0016487365355715156,0.0053625572472810745
1761401478121803300,10.61180322265625,0.006694869603961706,0.0016320826252922416,0.004080206621438265
1761401478131884500,10.621884521484375,0.005745597183704376,0.00472970912232995,0.0044632465578615665
1761401478141965000,10.631965087890626,0.008293644525110722,0.012357197701931,0.007194486912339926
1761401478152023300,10.642023193359375,0.01308996882289648,0.01986810937523842,0.01119142398238182
1761401478162124800,10.652124755859376,0.015105091966688633,0.022849157452583313,0.01127469353377819
1761401478172207600,10.66220751953125,0.01014222763478756,0.019968030974268913,0.009642611257731915
1761401478182289700,10.67228955078125,0.005079440772533417,0.01308996882289648,0.007027947809547186
1761401478192371000,10.682370849609375,0.003414050443097949,0.008726646192371845,0.005295941606163979
1761401478202451000,10.692450927734376,0.004263399634510279,0.006478368770331144,0.004879594314843416
1761401478212514600,10.7025146484375,0.005479134619235992,0.0054458267986774445,0.0053292494267225266
1761401478222613000,10.712613037109374,0.0054624807089567184,0.007344372104853392,0.0053125955164432526
1761401478232694000,10.722694091796875,0.006062021479010582,0.00937614869326353,0.007277756463736296
1761401478242775000,10.732775146484375,0.0075109112076461315,0.012040773406624794,0.008560107089579105
1761401478252856800,10.74285693359375,0.009775842539966106,0.020017992705106735,0.010242151096463203
1761401478262914300,10.752914306640625,0.013456354849040508,0.02797855995595455,0.014622128568589687
1761401478273017300,10.763017333984376,0.013739471323788166,0.03150918707251549,0.02070080302655697
1761401478283098000,10.77309814453125,0.013206546194851398,0.02692936360836029,0.021233728155493736
1761401478293181000,10.783180908203125,0.012174004688858986,0.018086140975356102,0.019185299053788185
1761401478303261700,10.79326171875,0.01119142398238182,0.013955972157418728,0.015671323984861374
1761401478313341700,10.803341796875,0.010242151096463203,0.010075611993670464,0.012706929817795753
1761401478323416600,10.81341650390625,0.007777373772114515,0.006661561783403158,0.01367285568267107
1761401478333481200,10.823481201171875,0.007394333835691214,0.009859112091362476,0.013023353181779385
1761401478343585500,10.83358544921875,0.006378445774316788,0.01383939478546381,0.011158116161823273
1761401478353665500,10.84366552734375,0.003713820828124881,0.012507082894444466,0.010608537122607231
1761401478363746000,10.85374609375,0.0054624807089567184,0.016937021166086197,0.01135796308517456
1761401478373828900,10.863828857421876,0.007860642857849598,0.02684609405696392,0.011724349111318588
1761401478383909000,10.8739091796875,0.007444295566529036,0.030110260471701622,0.012390505522489548
1761401478393989600,10.88398974609375,0.006028713658452034,0.02671286277472973,0.013189892284572124
1761401478404071400,10.894071533203125,0.006245214492082596,0.02454785630106926,0.012140696868300438
1761401478414151400,10.9041513671875,0.005862174555659294,0.019601646810770035,0.008626722730696201
1761401478424214000,10.914214111328125,0.003713820828124881,0.014555512927472591,0.00654498441144824
1761401478434314000,10.92431396484375,0.003147588111460209,0.013023353181779385,0.0038303982000797987
1761401478444394200,10.934394287109376,0.003047664649784565,0.011957503855228424,0.004613131750375032
1761401478454433500,10.94443359375,0.0017320060869678855,0.010358728468418121,0.004146822262555361
1761401478464556800,10.954556884765625,-0.0000666156192892231,0.005662327632308006,0.004196783993393183
1761401478474664200,10.964664306640625,-0.0004163476114626974,0.0009326186846010387,0.003314126981422305
1761401478484719000,10.974718994140625,-0.0006161945057101548,-0.0012323890114203095,0.0014821975491940975
1761401478494777900,10.98477783203125,-0.0008493491332046688,0.0008826569537632167,-0.0003663859097287059
1761401478504880400,10.99488037109375,0.0012823506258428097,0.0037471286486834288,0.0010658499086275697
1761401478514938600,11.004938720703125,0.005012825131416321,0.008293644525110722,0.004396630916744471
1761401478525043000,11.01504296875,0.007727412041276693,0.009659265168011189,0.005545750260353088
1761401478535123700,11.025123779296875,0.007311064284294844,0.005545750260353088,0.003630551276728511
1761401478545204200,11.035204345703125,0.007027947809547186,0.003197549842298031,0.0009659265051595867
1761401478555262500,11.045262451171874,0.005495788529515266,0.002314892830327153,-0.0002997702977154404
1761401478565366500,11.055366455078126,0.003164242021739483,0.0004996171337552369,0.00019984686514362693
1761401478575448000,11.065447998046874,0.0004163476114626974,-0.004979517310857773,0.0014155819080770016
1761401478585527800,11.07552783203125,-0.0012157351011410356,-0.009959034621715546,0.0008826569537632167
1761401478595586300,11.08558642578125,-0.0013323123566806316,-0.009059724397957325,-0.0009825803572311997
1761401478605690400,11.0956904296875,-0.00018319295486435294,-0.004829632584005594,-0.002314892830327153
1761401478615748000,11.105748046875,0.0007993874605745077,-0.0003497319994494319,-0.002781202085316181
1761401478625852400,11.115852294921876,0.00016653904458507895,0.003047664649784565,-0.0008160413126461208
1761401478635932700,11.1259326171875,-0.0016820443561300635,0.0053625572472810745,0.0025813551619648933
1761401478646015000,11.136014892578125,0.0003164241788908839,0.005728943273425102,0.003480666084215045
1761401478656095700,11.146095703125,0.0020317763555794954,0.0009492725948803127,0.0017153521766886115
1761401478666177000,11.156177001953125,0.002364854561164975,-0.006778139155358076,-0.003547281725332141
1761401478676257300,11.16625732421875,0.0021983154583722353,-0.01433901209384203,-0.009359494782984257
1761401478686338000,11.176338134765626,0.0012323890114203095,-0.018352603539824486,-0.010275458917021751
1761401478696419300,11.18641943359375,0.0012490428052842617,-0.015671323984861374,-0.007177833002060652
1761401478706500000,11.1965,0.0016653904458507895,-0.010525267571210861,-0.0026313168928027153
1761401478716562200,11.206562255859374,0.0015488131903111935,-0.004629785660654306,-0.0003330780891701579
1761401478726662100,11.216662109375,0.003530627815052867,-0.0021483537275344133,-0.0005162710440345109
1761401478736743700,11.22674365234375,0.005162710323929787,-0.0022149693686515093,-0.0016487365355715156
1761401478746792400,11.23679248046875,0.006478368770331144,-0.00559571199119091,-0.0037471286486834288
1761401478756904700,11.24690478515625,0.006361791864037514,-0.010425344109535217,-0.004613131750375032
1761401478766990300,11.256990234375,0.005295941606163979,-0.01573793962597847,-0.0053625572472810745
1761401478777066200,11.267066162109375,0.003064318560063839,-0.01786964014172554,-0.004929556045681238
1761401478787148300,11.277148193359375,0.002897779457271099,-0.016254210844635963,-0.0025480473414063454
1761401478797231000,11.287231201171876,0.0025313934311270714,-0.014155819080770016,-0.0017486599972471595
1761401478807288000,11.2972880859375,0.0027145864441990852,-0.012723583728075027,-0.0022815850097686052
1761401478817391000,11.30739111328125,0.002997702918946743,-0.01119142398238182,-0.0021483537275344133
1761401478827472100,11.31747216796875,0.0054291728883981705,-0.006428407039493322,-0.0012490428052842617
1761401478837533400,11.327533447265624,0.007444295566529036,-0.003414050443097949,-0.0021983154583722353
1761401478847633400,11.33763330078125,0.008143759332597256,-0.004429938737303019,-0.0027145864441990852
1761401478857692000,11.34769189453125,0.006611600052565336,-0.006511676590889692,-0.0045798239298164845
1761401478867795200,11.357795166015626,0.004663093481212854,-0.00737767992541194,-0.003164242021739483
1761401478877853400,11.367853515625,0.0037970903795212507,-0.00712787127122283,0.0005329249543137848
1761401478887957200,11.377957275390624,0.004263399634510279,-0.006111983209848404,0.0019984685350209475
1761401478898038800,11.388038818359375,0.005112748593091965,-0.005862174555659294,0.0025147395208477974
1761401478908118800,11.398118896484375,0.005295941606163979,-0.005096094682812691,0.0013489662669599056
1761401478918200800,11.408200927734375,0.004713055212050676,-0.0019651607144623995,-0.0005828866851516068
1761401478928281900,11.41828173828125,0.0038137442898005247,0.00044965543202124536,-0.0026146629825234413
1761401478938367200,11.4283671875,0.0038137442898005247,-0.0001498851488577202,-0.002381508471444249
1761401478948443100,11.438443115234374,0.002797855995595455,-0.0008660030434839427,-0.002314892830327153
1761401478958524000,11.44852392578125,0.0024980856105685234,0.0006994639988988638,-0.0010158881777897477
1761401478968605000,11.45860498046875,0.0009825803572311997,0.003164242021739483,0.0007660796400159597
1761401478978670600,11.468670654296876,0.0013323123566806316,0.003064318560063839,0.0026979325339198112
1761401478988768300,11.478768310546876,0.0026479708030819893,0.002364854561164975,0.004196783993393183
1761401478998855000,11.48885498046875,0.003530627815052867,0.0025980090722441673,0.006145291030406952
1761401479008929500,11.498929443359375,0.003680513007566333,0.0053292494267225266,0.006911370437592268
1761401479019015200,11.50901513671875,0.0017819678178057075,0.0075775268487632275,0.0053792111575603485
1761401479029090800,11.5190908203125,-0.00004996171628590673,0.008709992282092571,0.003697166917845607
1761401479039172900,11.5291728515625,-0.0018319295486435294,0.007860642857849598,0.003447358263656497
1761401479049253400,11.53925341796875,-0.0010991577291861176,0.006761485245078802,0.004013590980321169
1761401479059334000,11.549333984375,0.0014988514594733715,0.007744065951555967,0.003031010739505291
1761401479069414700,11.55941455078125,0.0026979325339198112,0.0053459033370018005,-0.0001498851488577202
1761401479079496200,11.56949609375,-0.0018319295486435294,0.0013323123566806316,-0.002314892830327153
1761401479089576400,11.579576416015625,-0.007161179091781378,-0.002964395098388195,-0.0012823506258428097
1761401479099658200,11.589658203125,-0.00609532929956913,0.0006828100886195898,0.002398162381723523
1761401479109738500,11.599738525390626,-0.0012990045361220837,0.005862174555659294,0.005645673722028732
1761401479119800600,11.609800537109376,0.0004330015217419714,0.007794027682393789,0.006894716527312994
1761401479129901300,11.6199013671875,0.0015155053697526455,0.008027181960642338,0.004280053544789553
1761401479139981800,11.62998193359375,0.003014356829226017,0.005912136286497116,0.0010825038189068437
1761401479150040300,11.640040283203126,0.0037637825589627028,0.0020151224453002214,-0.0010491959983482957
1761401479160144400,11.650144287109375,0.0020650841761380434,0.0008660030434839427,-0.0018985451897606254
1761401479170225700,11.6602255859375,0.0001498851488577202,0.0018818912794813514,-0.0006661561783403158
1761401479180305400,11.670305419921876,-0.0013822740875184536,0.002481431933119893,0.0015821210108697414
1761401479190386700,11.68038671875,0.0005162710440345109,-0.00004996171628590673,0.0014322358183562756
1761401479200467500,11.690467529296875,0.003364088712260127,-0.0008993108640424907,0.0006828100886195898
1761401479210548700,11.700548828125,0.004962863866239786,-0.0006828100886195898,0.0012490428052842617
1761401479220630800,11.710630859375,0.004862940404564142,0.00044965543202124536,0.0021816615480929613
1761401479230710800,11.720710693359376,0.0020817380864173174,0.002398162381723523,0.004363323096185923
1761401479240749300,11.730749267578124,0.0005662327748723328,0.0045465161092579365,0.006495022680610418
1761401479250872300,11.740872314453124,0.0016653904458507895,0.0054291728883981705,0.0072111408226192
1761401479260953900,11.750953857421875,0.002481431933119893,0.005962098017334938,0.004829632584005594
1761401479271010800,11.7610107421875,0.002964395098388195,0.0017486599972471595,-0.0004330015217419714
1761401479281115000,11.771114990234375,0.0019984685350209475,-0.003364088712260127,-0.005162710323929787
1761401479291196400,11.781196533203126,0.0014821975491940975,-0.004829632584005594,-0.005162710323929787
1761401479301277000,11.79127685546875,-0.00024980856687761843,-0.0019651607144623995,-0.0019651607144623995
1761401479311335700,11.801335693359375,-0.0011491194600239396,0.003563935635611415,0.0016154287150129676
1761401479321444000,11.811444091796876,-0.0019485069205984473,0.007877296768128872,0.002947741188108921
1761401479331520000,11.82152001953125,-0.0012823506258428097,0.009859112091362476,0.002797855995595455
1761401479341601500,11.8316015625,-0.0007327718194574118,0.012407159432768822,0.003663859097287059
1761401479351681500,11.841681640625,-0.0007327718194574118,0.013123276643455029,0.003180895932018757
1761401479361765000,11.85176513671875,0.0002831163874361664,0.010974923148751259,0.002947741188108921
1761401479371843600,11.861843505859374,0.0014488897286355495,0.009026416577398777,0.0005329249543137848
1761401479381913300,11.871913330078126,0.0009992342675104737,0.006611600052565336,0.000016653904822305776
1761401479392006700,11.882006591796875,0.00003330780964461155,0.00576225109398365,-0.0012656967155635357
1761401479402066700,11.892066650390625,-0.00011657733557512984,0.003547281725332141,-0.0025147395208477974
1761401479412168400,11.90216845703125,0.0005162710440345109,-0.0013989279977977276,-0.003097626380622387
1761401479422249700,11.912249755859374,0.00044965543202124536,-0.005046132951974869,-0.002897779457271099
1761401479432329700,11.922329833984374,-0.0008160413126461208,-0.0075275651179254055,-0.0016320826252922416
1761401479442410500,11.932410400390625,-0.00008326952229253948,-0.006411753129214048,0.0004996171337552369
1761401479452492500,11.942492431640625,-0.0003330780891701579,-0.0021316998172551394,0.0015987749211490154
1761401479462573000,11.952572998046875,0.0014821975491940975,0.003680513007566333,0.003080972470343113
1761401479472653600,11.962653564453126,0.0010825038189068437,0.007077909540385008,0.002931087277829647
1761401479482734600,11.972734619140626,-0.0007494257297366858,0.010858345776796341,0.003330780891701579
1761401479492815400,11.9828154296875,0.00046630934230051935,0.0115245021879673,0.003680513007566333
1761401479502897000,11.99289697265625,0.0026646247133612633,0.008293644525110722,0.0019485069205984473
1761401479512956000,12.002955810546876,0.0026646247133612633,0.006411753129214048,0.00011657733557512984
1761401479523059200,12.01305908203125,-0.0005329249543137848,0.003946975339204073,-0.0011990811908617616
1761401479533140200,12.02314013671875,-0.0045798239298164845,0.0009659265051595867,-0.0019151991000398993
