time,seconds_elapsed,z,y,x
1761401159826849000,0.12484912109375,-0.19356833398342133,-0.427156001329422,-0.1359957903623581
1761401159836955600,0.13495556640625,-0.22349540889263153,-0.32959744334220886,-0.085667684674263
1761401159847007200,0.14500732421875,-0.24932560324668884,-0.22842495143413544,0.0054624807089567184
1761401159857117400,0.155117431640625,-0.27265772223472595,-0.16860413551330566,0.11667725443840027
1761401159867198500,0.165198486328125,-0.2329215109348297,-0.24126511812210083,0.24309705197811127
1761401159877279700,0.17527978515625,-0.15083441138267517,-0.5319423675537109,0.3839724361896515
1761401159887361000,0.185361083984375,-0.12828503549098969,-0.8077476620674133,0.5263466835021973
1761401159897441500,0.195441650390625,-0.16274195909500122,-0.9495223760604858,0.6122475266456604
1761401159907522800,0.205522705078125,-0.19888092577457428,-0.7154350876808167,0.6271860599517822
1761401159917603800,0.215603759765625,-0.20052966475486755,-0.47182178497314453,0.44204458594322205
1761401159927684600,0.2256845703125,-0.1430070847272873,-0.44622471928596497,0.14775344729423523
1761401159937766400,0.235766357421875,-0.11977488547563553,-0.3872365951538086,-0.11133135110139847
1761401159947847000,0.245846923828125,-0.152932807803154,-0.3626720905303955,-0.3053992986679077
1761401159957928200,0.25592822265625,-0.17971228063106537,-0.20497626066207886,-0.4248078167438507
1761401159968007400,0.26600732421875,-0.18728981912136078,0.17281757295131683,-0.515005350112915
1761401159978086400,0.27608642578125,-0.1497519165277481,0.610365629196167,-0.6136963963508606
1761401159988169000,0.2861689453125,-0.0654665008187294,1.0424845218658447,-0.6958833932876587
1761401159998253000,0.296253173828125,0.045565083622932434,1.3071815967559814,-0.7716087102890015
1761401160008333600,0.30633349609375,0.16685546934604645,1.2633485794067383,-0.8486829996109009
1761401160018414600,0.31641455078125,0.30085280537605286,1.006678581237793,-0.9169140458106995
1761401160028495600,0.32649560546875,0.4580489993095398,0.6667890548706055,-1.0179699659347534
1761401160038577000,0.336576904296875,0.5714954137802124,0.4227260649204254,-1.142924189567566
1761401160048654300,0.346654296875,0.5777905583381653,0.39977699518203735,-1.2223466634750366
1761401160058739500,0.356739501953125,0.4246745705604553,0.48612749576568604,-1.2698602676391602
1761401160068820200,0.3668203125,0.13722817599773407,0.5710623860359192,-1.276271939277649
1761401160078901000,0.37690087890625,-0.13118280470371246,0.5114080905914307,-1.2526401281356812
1761401160088982300,0.386982177734375,-0.30883002281188965,0.49611982703208923,-1.2136366367340088
1761401160099063000,0.39706298828125,-0.322602778673172,0.6806950569152832,-1.1430574655532837
1761401160109144300,0.407144287109375,-0.23710164427757263,0.8133267760276794,-0.9966862201690674
1761401160119221200,0.41722119140625,-0.08748295903205872,0.794624388217926,-0.8041670918464661
1761401160129306000,0.42730615234375,0.05314261093735695,0.8543286919593811,-0.6429905891418457
1761401160139362600,0.437362548828125,0.14583824574947357,0.9486730098724365,-0.5664159655570984
1761401160149469400,0.447469482421875,0.10938284546136856,0.9983183145523071,-0.5550246834754944
1761401160159550500,0.457550537109375,0.02454785630106926,0.9908573627471924,-0.5519770383834839
1761401160169620200,0.4676201171875,0.029327526688575745,1.0541088581085205,-0.5503283143043518
1761401160179708400,0.47770849609375,0.12287250906229019,1.1353133916854858,-0.5199182629585266
1761401160189793000,0.48779296875,0.2817007899284363,1.157263159751892,-0.43616577982902527
1761401160199849500,0.497849365234375,0.4261900782585144,0.9637947678565979,-0.3167905807495117
1761401160209955600,0.50795556640625,0.6011060476303101,0.5529263019561768,-0.0913633182644844
1761401160220031700,0.51803173828125,0.6631418466567993,0.05181029811501503,0.21385279297828674
1761401160230095000,0.52809521484375,0.5309264659881592,-0.3413717448711395,0.5377212762832642
1761401160240194600,0.538194580078125,0.38810259103775024,-0.7909272313117981,0.8553945422172546
1761401160250254000,0.548254150390625,0.31943854689598083,-1.227526068687439,1.1900380849838257
1761401160260361000,0.55836083984375,0.264980286359787,-1.450671672821045,1.5337246656417847
1761401160270441200,0.568441162109375,0.19843128323554993,-1.4178467988967896,1.806648850440979
1761401160280523000,0.57852294921875,0.12458786368370056,-1.205009937286377,1.9390474557876587
1761401160290603500,0.588603515625,0.11990811675786972,-0.8586919903755188,1.962945818901062
1761401160300659500,0.598659423828125,0.17246784269809723,-0.5475970506668091,1.9778177738189697
1761401160310762500,0.608762451171875,0.14555512368679047,-0.3930155038833618,2.001516342163086
1761401160320815600,0.618815673828125,0.00003330780964461155,-0.5206510424613953,1.9657769203186035
1761401160330928600,0.6289287109375,-0.14958536624908447,-0.8401561975479126,1.8877867460250854
1761401160341009000,0.6390087890625,-0.1116977408528328,-0.9781837463378906,1.7514911890029907
1761401160351070500,0.649070556640625,0.1566799432039261,-0.7498087286949158,1.5437004566192627
1761401160361197800,0.65919775390625,0.42219313979148865,-0.4643774926662445,1.2003135681152344
1761401160371227100,0.66922705078125,0.5457817912101746,-0.4486894905567169,0.6065018773078918
1761401160381334000,0.679333984375,0.7300072908401489,-0.45288628339767456,-0.002931087277829647
1761401160391414300,0.689414306640625,0.9646441340446472,-0.05489126965403557,-0.6091831922531128
1761401160401470500,0.699470458984375,0.9278056621551514,0.6041037440299988,-1.5129739046096802
1761401160411598600,0.7095986328125,0.5871500968933105,1.0912470817565918,-2.5827207565307617
1761401160421645000,0.71964501953125,0.21168778836727142,1.6422581672668457,-3.561004638671875
1761401160431739100,0.7297392578125,-0.2002132385969162,1.660660743713379,-4.444627285003662
1761401160441815600,0.739815673828125,-0.5095928311347961,1.0012826919555664,-5.098609447479248
1761401160451910700,0.74991064453125,-0.46765831112861633,0.20795731246471405,-5.656848430633545
1761401160461981700,0.759981689453125,-0.24313035607337952,-0.8120943903923035,-6.090632915496826
1761401160472049700,0.770049560546875,0.1285015344619751,-2.014756202697754,-6.225329399108887
1761401160482120200,0.7801201171875,0.6084170937538147,-3.2560715675354004,-5.823037624359131
1761401160492225500,0.7902255859375,1.0228828191757202,-3.9623804092407227,-4.9246931076049805
1761401160502302700,0.800302734375,1.2671289443969727,-3.884589910507202,-3.7747907638549805
1761401160512357600,0.810357666015625,1.3286818265914917,-3.1098668575286865,-2.688872814178467
1761401160522468900,0.82046875,1.09119713306427,-2.115795373916626,-1.9195290803909302
1761401160532550000,0.8305498046875,0.615445077419281,-1.048180103302002,-1.3914836645126343
1761401160542643000,0.840642822265625,0.12235623598098755,0.058138780295848846,-1.0383542776107788
1761401160552686600,0.8506865234375,-0.26358136534690857,1.1304337978363037,-0.6929023861885071
1761401160562778600,0.860778564453125,-0.6182096004486084,1.9128841161727905,-0.21178770065307617
1761401160572874000,0.8708740234375,-0.9412786960601807,2.0798895359039307,0.32241958379745483
1761401160582955300,0.880955322265625,-1.1713191270828247,1.6330819129943848,0.8856379985809326
1761401160593013200,0.89101318359375,-1.3372752666473389,0.942877471446991,1.5332417488098145
1761401160603092700,0.9010927734375,-1.4452425241470337,0.28896191716194153,2.2621498107910156
1761401160613173000,0.911173095703125,-1.577657699584961,-0.09757522493600845,3.0591723918914795
1761401160623279600,0.921279541015625,-1.8705998659133911,-0.14503885805606842,3.8307645320892334
1761401160633355800,0.931355712890625,-2.2539727687835693,-0.0008826569537632167,4.5314106941223145
1761401160643415800,0.941415771484375,-2.530510902404785,0.22417820990085602,5.1769328117370605
1761401160653522000,0.95152197265625,-2.591580629348755,0.42420825362205505,5.693787097930908
1761401160663628500,0.961628662109375,-2.5676825046539307,0.26043376326560974,6.082522392272949
1761401160673684200,0.971684326171875,-2.5964603424072266,0.3050495684146881,6.499252796173096
1761401160683740400,0.981740478515625,-2.530327796936035,0.4514040946960449,6.837244033813477
1761401160693821200,0.9918212890625,-2.3654372692108154,0.6172603368759155,7.035192489624023
1761401160703915800,1.001915771484375,-2.1142632961273193,0.6528996825218201,7.167424201965332
1761401160714009600,1.012009521484375,-1.8016360998153687,0.32425153255462646,7.211373805999756
1761401160724090400,1.02209033203125,-1.5538592338562012,-0.15844525396823883,7.264416694641113
1761401160734147000,1.03214697265625,-1.3581758737564087,-0.7670955061912537,7.336711406707764
1761401160744251400,1.04225146484375,-1.1374616622924805,-0.9911904335021973,7.336394786834717
1761401160754307600,1.0523076171875,-0.9275558590888977,-0.9590317606925964,7.176284313201904
1761401160764410000,1.06241015625,-0.7750394344329834,-0.9477071166038513,6.893167972564697
1761401160774495500,1.07249560546875,-0.6771144866943359,-1.048729658126831,6.559523582458496
1761401160784597500,1.082597412109375,-0.6438233256340027,-1.2490261793136597,6.208242416381836
1761401160794657000,1.092656982421875,-0.6727511286735535,-1.4199285507202148,5.860409259796143
1761401160804713200,1.102713134765625,-0.7296575307846069,-1.4666094779968262,5.561355113983154
1761401160814824000,1.112823974609375,-0.7810681462287903,-1.4137166738510132,5.277972221374512
1761401160824901400,1.1229013671875,-0.8342107534408569,-1.3668025732040405,4.963862895965576
1761401160834982400,1.132982421875,-0.8681181073188782,-1.355744481086731,4.624456405639648
1761401160845039600,1.14303955078125,-0.8752626180648804,-1.3818577527999878,4.288496971130371
1761401160855143200,1.15314306640625,-0.8464180827140808,-1.4532197713851929,3.968142509460449
1761401160865199600,1.16319970703125,-0.7634149789810181,-1.3352601528167725,3.6752169132232666
1761401160875306000,1.173305908203125,-0.6244714856147766,-1.0341242551803589,3.4134676456451416
1761401160885353500,1.183353515625,-0.4413118362426758,-0.6221732497215271,3.1319832801818848
1761401160895467800,1.1934677734375,-0.25127410888671875,-0.3180729150772095,2.7905282974243164
1761401160905548500,1.203548583984375,-0.09118013083934784,-0.1887553632259369,2.380875587463379
1761401160915655000,1.213655029296875,0.033840734511613846,-0.042151033878326416,1.9320029020309448
1761401160925685500,1.223685546875,0.15414854884147644,0.22364528477191925,1.449439287185669
1761401160935792400,1.23379248046875,0.2711588740348816,0.5207343101501465,0.9663594961166382
1761401160945873200,1.243873046875,0.376977801322937,0.7250277400016785,0.5206510424613953
1761401160955955500,1.25395556640625,0.46697548031806946,0.8327618837356567,0.146620973944664
1761401160966022000,1.26402197265625,0.5429506301879883,0.8606571555137634,-0.1504347175359726
1761401160986172700,1.284172607421875,0.6912702918052673,0.8883026242256165,-0.5777239799499512
1761401161006359800,1.30435986328125,0.9094031453132629,1.394981026649475,-0.9566502571105957
1761401161016415200,1.314415283203125,0.9888588786125183,1.6006234884262085,-1.1179766654968262
1761401161026497000,1.3244970703125,1.0158382654190063,1.6495859622955322,-1.2696937322616577
1761401161036608500,1.3346083984375,0.9738204479217529,1.5736607313156128,-1.4945048093795776
1761401161046684000,1.344683837890625,0.8618395924568176,1.5058960914611816,-1.8250681161880493
1761401161056752600,1.354752685546875,0.7211806774139404,1.4797160625457764,-2.2271432876586914
1761401161066846000,1.364845947265625,0.5705461502075195,1.4940884113311768,-2.7009801864624023
1761401161076914400,1.37491455078125,0.41842934489250183,1.5153387784957886,-3.223346710205078
1761401161087006200,1.385006103515625,0.29154324531555176,1.512757420539856,-3.7935597896575928
1761401161097089300,1.39508935546875,0.21558479964733124,1.5252645015716553,-4.488044261932373
1761401161107170300,1.40517041015625,0.19913074374198914,1.5590553283691406,-5.266581058502197
1761401161117251800,1.415251953125,0.19983020424842834,1.569097638130188,-6.068349838256836
1761401161127331800,1.425331787109375,0.16302508115768433,1.4619296789169312,-6.912053108215332
1761401161137411800,1.435411865234375,0.16968663036823273,1.3066320419311523,-7.82332181930542
1761401161147489300,1.4454892578125,0.2331213653087616,1.0741102695465088,-8.777740478515625
1761401161157576000,1.455575927734375,0.35249653458595276,0.8696336150169373,-9.65310287475586
1761401161167657000,1.465656982421875,0.5492624640464783,0.7676950693130493,-10.443696975708008
1761401161177725000,1.475724853515625,0.7768380641937256,0.6429240107536316,-11.214822769165039
1761401161187819500,1.485819580078125,1.114046335220337,0.7210974097251892,-11.909090995788574
1761401161197875700,1.495875732421875,1.5736441612243652,0.9461582899093628,-12.353633880615234
1761401161207968800,1.50596875,1.9941551685333252,0.9955537915229797,-12.445429801940918
1761401161218062300,1.516062255859375,2.280902147293091,0.8160413503646851,-12.111618995666504
1761401161228130800,1.526130859375,2.3548121452331543,1.350381851196289,-10.6963529586792
1761401161238224100,1.53622412109375,2.256704092025757,1.4821308851242065,-8.435102462768555
1761401161248292600,1.546292724609375,2.119542360305786,0.993571937084198,-5.899379253387451
1761401161258386700,1.55638671875,1.9996843338012695,0.5675317645072937,-3.8136277198791504
1761401161268465200,1.566465087890625,1.750825047492981,0.6598110795021057,-2.5121748447418213
1761401161278535700,1.57653564453125,1.3240853548049927,1.0929291248321533,-1.842421531677246
1761401161288627700,1.586627685546875,0.8150753974914551,1.7795530557632446,-1.433801293373108
1761401161298698000,1.596697998046875,0.3769111633300781,2.4924399852752686,-1.0436168909072876
1761401161308779300,1.606779296875,0.0728941410779953,2.84468674659729,-0.4894416034221649
1761401161318872800,1.616872802734375,-0.1108650416135788,2.6086177825927734,0.20605877041816711
1761401161328930000,1.626929931640625,-0.1374613344669342,2.0293614864349365,0.9318026304244995
1761401161339034600,1.63703466796875,-0.1232222393155098,1.3501321077346802,1.646188497543335
1761401161349103400,1.647103271484375,-0.21095500886440277,0.7422478795051575,2.3665032386779785
1761401161359184400,1.657184326171875,-0.41213417053222656,0.3464345335960388,3.071463108062744
1761401161369251800,1.667251953125,-0.6515340805053711,0.36340487003326416,3.6977663040161133
1761401161379359200,1.677359130859375,-0.9340009689331055,0.5268296003341675,4.200381278991699
1761401161389420800,1.6874208984375,-1.137911319732666,0.5653334259986877,4.520069599151611
1761401161399519200,1.697519287109375,-1.2496258020401,0.4540354013442993,4.701547145843506
1761401161409603000,1.70760302734375,-1.3046503067016602,0.2794192135334015,4.77237606048584
1761401161419678200,1.71767822265625,-1.3190724849700928,0.07992208749055862,4.729342460632324
1761401161429764600,1.7277646484375,-1.2700600624084473,-0.13436371088027954,4.6020402908325195
1761401161439832800,1.737832763671875,-1.2433972358703613,-0.41719695925712585,4.479600429534912
1761401161449927200,1.74792724609375,-1.1969494819641113,-0.6906707286834717,4.420762538909912
1761401161460006000,1.758005859375,-1.1102159023284912,-1.0295610427856445,4.423543453216553
1761401161470088700,1.768088623046875,-1.0395866632461548,-1.3608571290969849,4.503982067108154
1761401161480140800,1.778140869140625,-0.9803321361541748,-1.5673822164535522,4.631434440612793
1761401161490236000,1.78823583984375,-0.9101858735084534,-1.6020723581314087,4.777172565460205
1761401161500319500,1.798319580078125,-0.8674019575119019,-1.5003669261932373,4.935784339904785
1761401161510400500,1.808400390625,-0.8653868436813354,-1.3291481733322144,5.108668804168701
1761401161520491500,1.818491455078125,-0.9030080437660217,-1.149369239807129,5.297257423400879
1761401161530563600,1.8285634765625,-0.9814645648002625,-1.0338743925094604,5.528813362121582
1761401161540636000,1.838635986328125,-1.075209379196167,-0.9381644129753113,5.807366371154785
1761401161550738000,1.848738037109375,-1.1588619947433472,-0.8607237339019775,6.137396812438965
1761401161560818700,1.858818603515625,-1.2448793649673462,-0.7465779185295105,6.4921417236328125
1761401161570887200,1.86888720703125,-1.3672856092453003,-0.5474305152893066,6.850533962249756
1761401161580981000,1.87898095703125,-1.519302487373352,-0.2837992012500763,7.189524173736572
1761401161591047000,1.889046875,-1.655464768409729,-0.0014488897286355495,7.536324977874756
1761401161601130000,1.8991298828125,-1.7066588401794434,0.0878160372376442,7.85443115234375
1761401161611211300,1.909211181640625,-1.6309335231781006,-0.006028713658452034,8.15436840057373
1761401161621304600,1.9193046875,-1.4217438697814941,-0.1729341447353363,8.368886947631836
1761401161631373300,1.929373291015625,-1.1015392541885376,-0.24123181402683258,8.46068286895752
1761401161641467100,1.939467041015625,-0.7280920743942261,-0.1520334929227829,8.444512367248535
1761401161651544300,1.94954443359375,-0.340439110994339,0.035006508231163025,8.344239234924316
1761401161661616400,1.959616455078125,0.060470327734947205,0.15674655139446259,8.170289039611816
1761401161671710500,1.96971044921875,0.4784500300884247,0.26181602478027344,7.944462299346924
1761401161681781200,1.97978125,0.9220434427261353,0.4775673747062683,7.686643123626709
1761401161691860200,1.989860107421875,1.3827570676803589,0.8400729298591614,7.405491828918457
1761401161701953300,1.999953369140625,1.8317463397979736,1.2675286531448364,7.094863414764404
1761401161712046000,2.010046142578125,2.182410955429077,1.3613067865371704,6.624523639678955
1761401161722100700,2.020100830078125,2.3517978191375732,1.1849919557571411,5.894050121307373
1761401161732183600,2.03018359375,2.422360420227051,1.2591850757598877,5.053877353668213
1761401161742265300,2.040265380859375,2.443077802658081,1.4139164686203003,4.194169521331787
1761401161752359000,2.05035888671875,2.4001107215881348,1.4783005714416504,3.3292653560638428
1761401161762439700,2.060439697265625,2.2340548038482666,1.3082973957061768,2.349999189376831
1761401161772503000,2.0705029296875,1.8209545612335205,0.9373483657836914,1.2351034879684448
1761401161782600400,2.080600341796875,1.2026450634002686,0.6171271204948425,0.22074751555919647
1761401161792668400,2.09066845703125,0.6055693030357361,0.5214004516601562,-0.578323483467102
1761401161802751200,2.100751220703125,0.08856546878814697,0.588682234287262,-1.251807451248169
1761401161812831500,2.11083154296875,-0.34430283308029175,0.770209789276123,-1.8493661880493164
1761401161822915300,2.120915283203125,-0.6634415984153748,1.0970593690872192,-2.325101613998413
1761401161832995000,2.1309951171875,-0.8585920333862305,1.4322024583816528,-2.6821112632751465
1761401161843086000,2.141086181640625,-0.9469243884086609,1.6304172277450562,-2.942728281021118
1761401161853169400,2.15116943359375,-0.9306868314743042,1.783599853515625,-3.1197259426116943
1761401161863238100,2.161238037109375,-0.8128271102905273,1.955451488494873,-3.2465455532073975
1761401161873331500,2.17133154296875,-0.6143625378608704,1.9308370351791382,-3.403841733932495
1761401161883395300,2.181395263671875,-0.38796937465667725,1.708890438079834,-3.6143970489501953
1761401161893493800,2.19149365234375,-0.2075076550245285,1.3989613056182861,-3.8327128887176514
1761401161903574800,2.20157470703125,-0.1050361767411232,1.0666159391403198,-4.05469274520874
1761401161913653800,2.21165380859375,-0.11076512187719345,0.8181397318840027,-4.3051676750183105
1761401161923725600,2.2217255859375,-0.30313438177108765,0.8517473340034485,-4.58621883392334
1761401161933817600,2.231817626953125,-0.5539588332176208,1.2225298881530762,-4.900228500366211
1761401161943893500,2.2418935546875,-0.7628820538520813,1.6463217735290527,-5.258720397949219
1761401161953980200,2.251980224609375,-0.9309033155441284,1.8023521900177002,-5.687741279602051
1761401161964051200,2.26205126953125,-1.1186261177062988,1.7225966453552246,-6.167273998260498
1761401161974140000,2.272139892578125,-1.3015859127044678,1.5529932975769043,-6.658114433288574
1761401161984211500,2.28221142578125,-1.4486066102981567,1.4207112789154053,-7.171388149261475
1761401161994304300,2.29230419921875,-1.548080325126648,1.3879530429840088,-7.689157962799072
1761401162004390000,2.302389892578125,-1.6144129037857056,1.3262836933135986,-8.236222267150879
1761401162014475800,2.312475830078125,-1.6467547416687012,1.0732609033584595,-8.852350234985352
1761401162024547600,2.322547607421875,-1.5962268114089966,0.6202080845832825,-9.56636905670166
1761401162034603500,2.332603515625,-1.423509120941162,0.14570501446723938,-10.35374927520752
1761401162044687000,2.34268701171875,-1.1471543312072754,-0.17579862475395203,-11.18491268157959
1761401162054765000,2.35276513671875,-0.819255530834198,-0.45476818084716797,-12.01264476776123
1761401162064848400,2.362848388671875,-0.4724879264831543,-0.772674560546875,-12.79979133605957
1761401162074927000,2.372927001953125,-0.0791393592953682,-1.0495290756225586,-13.47277545928955
1761401162085008400,2.38300830078125,0.36608612537384033,-1.2058593034744263,-13.82352352142334
1761401162095098000,2.39309814453125,0.6887888312339783,-0.9291046857833862,-13.513644218444824
1761401162105194200,2.4031943359375,0.8394067883491516,-0.40865352749824524,-12.31428050994873
1761401162115277300,2.41327734375,0.9998671412467957,-0.33202889561653137,-10.32348918914795
1761401162125358000,2.423358154296875,1.221530556678772,-0.9012926816940308,-8.120027542114258
1761401162135439600,2.433439697265625,1.4057061672210693,-1.166789174079895,-6.108235836029053
1761401162145518800,2.443518798828125,1.5021655559539795,-0.9306701421737671,-4.5575408935546875
1761401162155599600,2.453599609375,1.4782005548477173,-0.47830015420913696,-3.4515883922576904
1761401162165669400,2.46366943359375,1.3291314840316772,0.14522205293178558,-2.6469383239746094
1761401162175753200,2.473753173828125,1.1527000665664673,0.7435302138328552,-1.944743037223816
1761401162185832400,2.48383251953125,0.9737871289253235,1.1882727146148682,-1.1943514347076416
1761401162195925800,2.49392578125,0.8432038426399231,1.3314464092254639,-0.33610910177230835
1761401162205984800,2.50398486328125,0.7626655697822571,1.1003735065460205,0.6372949481010437
1761401162216088000,2.514088134765625,0.6617096066474915,0.6804952025413513,1.6725850105285645
1761401162226166800,2.524166748046875,0.4834628701210022,0.32075420022010803,2.698798656463623
1761401162236228400,2.534228271484375,0.16788801550865173,0.15874502062797546,3.6550159454345703
1761401162246320000,2.544320068359375,-0.2140359878540039,0.18061159551143646,4.456634998321533
1761401162256399400,2.5543994140625,-0.5616695880889893,0.2783700227737427,5.003166198730469
1761401162266492700,2.56449267578125,-0.8399563431739807,0.36410433053970337,5.314743995666504
1761401162276574000,2.574573974609375,-1.0620861053466797,0.38109129667282104,5.505797386169434
1761401162286653000,2.58465283203125,-1.219681978225708,0.26224905252456665,5.618427753448486
1761401162296723700,2.5947236328125,-1.3168408870697021,-0.02000133879482746,5.668622970581055
1761401162306805800,2.6048056640625,-1.3995275497436523,-0.3919496536254883,5.697517395019531
1761401162316898600,2.614898681640625,-1.4661098718643188,-0.7250277400016785,5.715253829956055
1761401162326967000,2.624967041015625,-1.5528934001922607,-1.0200016498565674,5.73715353012085
1761401162337048800,2.635048828125,-1.6678719520568848,-1.2695938348770142,5.7479119300842285
1761401162347141600,2.6451416015625,-1.826350450515747,-1.422410011291504,5.75435733795166
1761401162357219000,2.655218994140625,-2.006695508956909,-1.428521990776062,5.802570343017578
1761401162367292700,2.665292724609375,-2.1393439769744873,-1.3248014450073242,5.931771278381348
1761401162377386200,2.67538623046875,-2.238934278488159,-1.1618596315383911,6.148888111114502
1761401162387466200,2.68546630859375,-2.2861149311065674,-0.8238186836242676,6.438816070556641
1761401162397540400,2.695540283203125,-2.189971923828125,-0.2949239909648895,6.7074432373046875
1761401162407615500,2.705615478515625,-1.954369068145752,0.2603338360786438,6.911037445068359
1761401162417707500,2.71570751953125,-1.6942683458328247,0.6650903224945068,7.0884013175964355
1761401162427777500,2.725777587890625,-1.4243584871292114,0.8619061708450317,7.247745990753174
1761401162437868500,2.73586865234375,-1.13861083984375,0.8042836785316467,7.3310322761535645
1761401162447939300,2.745939208984375,-0.8539122939109802,0.5425009727478027,7.308948993682861
1761401162458033400,2.756033447265625,-0.5752425193786621,0.17486600577831268,7.194620132446289
1761401162468114400,2.766114501953125,-0.31640753149986267,-0.186756893992424,6.997321128845215
1761401162478180900,2.776180908203125,-0.09038074314594269,-0.4742865562438965,6.748462200164795
1761401162488275000,2.78627490234375,0.08898181468248367,-0.732138991355896,6.4649457931518555
1761401162498346200,2.79634619140625,0.2211138904094696,-1.0039973258972168,6.141010761260986
1761401162508413400,2.806413330078125,0.331013023853302,-1.2719420194625854,5.757238388061523
1761401162518520600,2.8165205078125,0.4612964987754822,-1.4208945035934448,5.332080841064453
1761401162528588300,2.82658837890625,0.6253207921981812,-1.384205937385559,4.874614715576172
1761401162538681600,2.836681640625,0.7759553790092468,-1.2217971086502075,4.409337997436523
1761401162548750000,2.84675,0.8740136027336121,-1.0588053464889526,3.9464590549468994
1761401162558844000,2.856843994140625,0.9093864560127258,-0.9471242427825928,3.5002012252807617
1761401162568914000,2.866913818359375,0.902608335018158,-0.8693671226501465,3.0837535858154297
1761401162579006500,2.87700634765625,0.8956469893455505,-0.7060756087303162,2.673168182373047
1761401162589063400,2.8870634765625,0.9023918509483337,-0.43564948439598083,2.2313899993896484
1761401162599168500,2.89716845703125,0.9226430058479309,-0.14993511140346527,1.7597848176956177
1761401162609247700,2.907247802734375,0.9532695412635803,0.08305302262306213,1.2802855968475342
1761401162619318000,2.917318115234375,0.9918566346168518,0.23087307810783386,0.7963064312934875
1761401162629411600,2.92741162109375,1.0274959802627563,0.3387737274169922,0.2882291376590729
1761401162639464000,2.9374638671875,1.0638347864151,0.5513774752616882,-0.20918969810009003
1761401162649551400,2.94755126953125,1.0917301177978516,0.8161079287528992,-0.6498686671257019
1761401162659654100,2.957654052734375,1.0845355987548828,1.0006499290466309,-1.0178866386413574
1761401162669735700,2.967735595703125,1.0360894203186035,1.089148759841919,-1.3176569938659668
1761401162679804200,2.97780419921875,0.9594980478286743,1.142574429512024,-1.5588887929916382
1761401162689911300,2.987911376953125,0.8662195801734924,1.2012628316879272,-1.766129970550537
1761401162699957200,2.997957275390625,0.7573696374893188,1.2644476890563965,-1.9474244117736816
1761401162710046500,3.00804638671875,0.6408588886260986,1.3346939086914062,-2.091080904006958
1761401162720115200,3.018115234375,0.5275956988334656,1.4215773344039917,-2.2015461921691895
1761401162730222800,3.028222900390625,0.4188290536403656,1.4869438409805298,-2.2972230911254883
1761401162740299500,3.038299560546875,0.316773921251297,1.4819977283477783,-2.380875587463379
1761401162750383900,3.0483837890625,0.21869908273220062,1.4344674348831177,-2.4469082355499268
1761401162760465000,3.05846484375,0.1262032836675644,1.3649873733520508,-2.510026454925537
1761401162770521600,3.068521484375,0.03652201220393181,1.2771546840667725,-2.613680362701416
1761401162780627500,3.07862744140625,-0.040685489773750305,1.2109886407852173,-2.8008036613464355
1761401162790708200,3.088708251953125,-0.1185091882944107,1.1819109916687012,-3.0852692127227783
1761401162800785700,3.09878564453125,-0.23102296888828278,1.0520105361938477,-3.4877939224243164
1761401162810871000,3.10887109375,-0.3622557520866394,0.8788765072822571,-3.9785845279693604
1761401162820952000,3.1189521484375,-0.4736537039279938,0.6956169605255127,-4.5432353019714355
1761401162831033300,3.129033447265625,-0.5096427798271179,0.5949773788452148,-5.182362079620361
1761401162841114400,3.1391142578125,-0.5002000331878662,0.6044034957885742,-5.937300205230713
1761401162851195000,3.14919482421875,-0.4324852526187897,0.6870402097702026,-6.777656078338623
1761401162861276700,3.159276611328125,-0.29307541251182556,0.7583855390548706,-7.685827255249023
1761401162871352800,3.169352783203125,-0.12388839572668076,0.762865424156189,-8.722616195678711
1761401162881462500,3.179462646484375,0.13069984316825867,0.7024117708206177,-9.874750137329102
1761401162891503600,3.189503662109375,0.502997875213623,0.6164109706878662,-11.072431564331055
1761401162901600500,3.1996005859375,0.9514209032058716,0.36693549156188965,-12.283936500549316
1761401162911660500,3.20966064453125,1.452886700630188,-0.021283689886331558,-13.416869163513184
1761401162921762000,3.219761962890625,1.979549765586853,-0.3745463192462921,-14.351469039916992
1761401162931839700,3.22983984375,2.4318530559539795,-0.5953105092048645,-14.873452186584473
1761401162941924600,3.239924560546875,2.6738343238830566,-0.6141460537910461,-14.770181655883789
1761401162951991600,3.249991455078125,2.706176280975342,0.017719754949212074,-13.47360897064209
1761401162962086100,3.260086181640625,2.6878902912139893,0.2453453242778778,-10.806002616882324
1761401162972168200,3.270168212890625,2.822603702545166,-0.078789621591568,-7.39738130569458
1761401162982248200,3.280248291015625,2.7197659015655518,-0.4541020095348358,-4.414950370788574
1761401162992330500,3.29033056640625,2.4148995876312256,-0.4313361346721649,-2.469041347503662
1761401163002407000,3.300406982421875,1.9412457942962646,0.2760384678840637,-1.3140597343444824
1761401163012492300,3.3104921875,1.4701567888259888,1.2188493013381958,-0.7029613256454468
1761401163022540500,3.32054052734375,0.9201282262802124,1.926923394203186,-0.26904383301734924
1761401163032654300,3.330654296875,0.4137662649154663,2.193119525909424,0.29778847098350525
1761401163042722600,3.34072265625,0.12154019623994827,1.9705066680908203,1.1207078695297241
1761401163052791600,3.35079150390625,-0.05409188196063042,1.2429641485214233,2.1266369819641113
1761401163062872000,3.3608720703125,-0.30440008640289307,0.342054545879364,3.133465528488159
1761401163072953000,3.370953125,-0.6483198404312134,-0.24857617914676666,3.961730718612671
1761401163083059200,3.38105908203125,-1.067332148551941,-0.2496420294046402,4.557107925415039
1761401163093140700,3.391140625,-1.511258602142334,0.06295175850391388,4.911802768707275
1761401163103218700,3.40121875,-1.918429970741272,0.46885737776756287,5.107253074645996
1761401163113303000,3.411302978515625,-2.1614603996276855,0.8019354939460754,5.207576274871826
1761401163123381800,3.4213818359375,-2.224245548248291,0.9258238673210144,5.236137390136719
1761401163133464800,3.43146484375,-2.0996909141540527,0.8183895349502563,5.205660820007324
1761401163143545600,3.441545654296875,-1.87278151512146,0.343903124332428,5.0999250411987305
1761401163153601500,3.4516015625,-1.628285527229309,-0.3519636392593384,4.899945259094238
1761401163163707600,3.461707763671875,-1.4391804933547974,-1.055790901184082,4.606503486633301
1761401163173776100,3.471776123046875,-1.3554613590240479,-1.5691808462142944,4.257987022399902
1761401163183870000,3.481869873046875,-1.3977289199829102,-1.942028522491455,3.892683744430542
1761401163193926400,3.491926513671875,-1.5302773714065552,-2.215202569961548,3.5454165935516357
1761401163204032000,3.502031982421875,-1.7156352996826172,-2.343487501144409,3.2513585090637207
1761401163214113500,3.512113525390625,-1.9217606782913208,-2.3161251544952393,3.0532937049865723
1761401163224194300,3.5221943359375,-2.083470106124878,-2.2414324283599854,2.9376821517944336
1761401163234275600,3.532275634765625,-2.187307119369507,-2.0639350414276123,2.9480576515197754
1761401163244348400,3.542348388671875,-2.2723920345306396,-1.8428711891174316,3.1072356700897217
1761401163254425600,3.552425537109375,-2.3253514766693115,-1.569380760192871,3.3528807163238525
1761401163264518700,3.5625185546875,-2.3366260528564453,-1.3530797958374023,3.599325180053711
1761401163274574300,3.57257421875,-2.313926935195923,-1.1715855598449707,3.8312973976135254
1761401163284664800,3.582664794921875,-2.305266857147217,-1.0043137073516846,4.044450759887695
1761401163294762000,3.592761962890625,-2.3301644325256348,-0.8235522508621216,4.2606682777404785
1761401163304830500,3.60283056640625,-2.3788936138153076,-0.645555317401886,4.483980655670166
1761401163314932200,3.61293212890625,-2.4333019256591797,-0.6161445379257202,4.705044746398926
1761401163324993000,3.622992919921875,-2.4569339752197266,-0.6694037318229675,4.904641628265381
1761401163335086000,3.633086181640625,-2.399794340133667,-0.7194486856460571,5.0663676261901855
1761401163345167400,3.64316748046875,-2.2467451095581055,-0.7533227205276489,5.1839776039123535
1761401163355248000,3.653248046875,-2.0074782371520996,-0.7481266856193542,5.2507429122924805
1761401163365329400,3.663329345703125,-1.6985150575637817,-0.6738836169242859,5.272842884063721
1761401163375410400,3.673410400390625,-1.3405060768127441,-0.5856512188911438,5.250576496124268
1761401163385490000,3.683489990234375,-0.9660097360610962,-0.528378427028656,5.162927150726318
1761401163395570400,3.6935703125,-0.591913104057312,-0.49760201573371887,5.006513595581055
1761401163405652000,3.70365185546875,-0.22064758837223053,-0.4423610270023346,4.792827129364014
1761401163415731000,3.71373095703125,0.1531493067741394,-0.29529038071632385,4.518720626831055
1761401163425815800,3.72381591796875,0.5273125767707825,-0.06410087645053864,4.219250202178955
1761401163435894500,3.73389453125,0.8865206837654114,0.18221037089824677,3.931004285812378
1761401163445963300,3.74396337890625,1.207474708557129,0.36971667408943176,3.654766082763672
1761401163456045800,3.7540458984375,1.4642945528030396,0.4600141644477844,3.3671364784240723
1761401163466118400,3.764118408203125,1.6343642473220825,0.44212785363197327,3.049379825592041
1761401163476221200,3.77422119140625,1.6878232955932617,0.42510756850242615,2.6863081455230713
1761401163486302200,3.78430224609375,1.6759490966796875,0.5217502117156982,2.3334951400756836
1761401163496383500,3.794383544921875,1.6386443376541138,0.7065918445587158,2.036489486694336
1761401163506459400,3.80445947265625,1.5459986925125122,0.9339177012443542,1.7814016342163086
1761401163516543200,3.814543212890625,1.397795557975769,1.199730634689331,1.5238323211669922
1761401163536698600,3.83469873046875,0.9582324028015137,1.7730246782302856,0.862755537033081
1761401163546788000,3.8447880859375,0.6840924620628357,1.9729547500610352,0.46677565574645996
1761401163556869600,3.85486962890625,0.4117678105831146,2.1280691623687744,0.09694238007068634
1761401163566933500,3.86493359375,0.155164435505867,2.21525239944458,-0.25212347507476807
1761401163577031700,3.87503173828125,-0.0719948336482048,2.2487101554870605,-0.5889986753463745
1761401163587100200,3.88510009765625,-0.2688106894493103,2.1954009532928467,-0.9383642673492432
1761401163597194000,3.895194091796875,-0.41359972953796387,2.1026220321655273,-1.2944414615631104
1761401163607274800,3.905274658203125,-0.529477596282959,2.0638184547424316,-1.6629424095153809
1761401163617356000,3.91535595703125,-0.644939124584198,2.059105396270752,-2.076075792312622
1761401163627437300,3.925437255859375,-0.7492924928665161,2.0218505859375,-2.529261827468872
1761401163637510000,3.935510009765625,-0.8418382406234741,1.9532698392868042,-3.0708634853363037
1761401163647599600,3.945599609375,-0.9185461401939392,1.8202718496322632,-3.7122886180877686
1761401163657667300,3.955667236328125,-0.9545185565948486,1.7442134618759155,-4.430121898651123
1761401163667748600,3.96574853515625,-0.9192955493927002,1.7437803745269775,-5.2230143547058105
1761401163677842200,3.97584228515625,-0.8234356641769409,1.6627591848373413,-6.102756977081299
1761401163687910400,3.985910400390625,-0.6972490549087524,1.4035577774047852,-7.066651344299316
1761401163698002700,3.996002685546875,-0.5398696064949036,1.1345139741897583,-8.116979598999023
1761401163708073000,4.006072998046875,-0.33590924739837646,0.9542520642280579,-9.23597240447998
1761401163718167000,4.0161669921875,-0.08896516263484955,0.746128261089325,-10.337844848632812
1761401163728235300,4.0262353515625,0.22322894632816315,0.5864173173904419,-11.393136024475098
1761401163738329000,4.0363291015625,0.5972423553466797,0.2715252637863159,-12.349470138549805
1761401163748400400,4.046400390625,1.0360394716262817,-0.13298143446445465,-13.139214515686035
1761401163758478800,4.056478759765625,1.4813148975372314,-0.4188457131385803,-13.759206771850586
1761401163768558800,4.066558837890625,1.8657702207565308,-0.5233156681060791,-14.146309852600098
1761401163778653200,4.076653076171875,2.1452393531799316,-0.41518184542655945,-14.224432945251465
1761401163788721400,4.086721435546875,2.280419111251831,-0.16803790628910065,-13.876649856567383
1761401163798805000,4.096804931640625,2.2771050930023193,0.25412192940711975,-12.787850379943848
1761401163808883700,4.1068837890625,2.254772186279297,0.3895514905452728,-10.253426551818848
1761401163818977500,4.1169775390625,2.3452861309051514,-0.1292676031589508,-6.966028690338135
1761401163829056300,4.12705615234375,2.324601888656616,-0.549928605556488,-4.197166919708252
1761401163839128000,4.137128173828125,2.044633150100708,-0.29952049255371094,-2.428389072418213
1761401163849207800,4.147207763671875,1.6223235130310059,0.5458983182907104,-1.4442598819732666
1761401163859302000,4.157302001953125,0.9321523904800415,1.4614300727844238,-0.8019354939460754
1761401163869382400,4.16738232421875,0.30624866485595703,2.0763423442840576,-0.1957000344991684
1761401163879464000,4.1774638671875,0.06559973210096359,2.229175090789795,0.5157048106193542
1761401163889529600,4.187529541015625,0.12313897162675858,1.886038064956665,1.3681182861328125
1761401163899626000,4.1976259765625,0.2604004442691803,1.2919433116912842,2.311678647994995
1761401163909706800,4.207706787109375,0.33389413356781006,0.8001201748847961,3.2155191898345947
1761401163919788000,4.2177880859375,0.21455225348472595,0.5086268782615662,3.924475908279419
1761401163929856300,4.227856201171875,-0.0646338015794754,0.4886755347251892,4.425158977508545
1761401163939949800,4.23794970703125,-0.3944477438926697,0.6544984579086304,4.759253025054932
1761401163950031000,4.248031005859375,-0.732755184173584,0.8083305954933167,4.966577529907227
1761401163960109800,4.25810986328125,-1.0006499290466309,0.8820740580558777,5.065851211547852
1761401163970204700,4.26820458984375,-1.1453722715377808,0.8932654857635498,5.082022190093994
1761401163980274400,4.2782744140625,-1.148836374282837,0.8035009503364563,5.018454551696777
1761401163990367000,4.288366943359375,-1.056557059288025,0.5832030773162842,4.88822078704834
1761401164000436000,4.29843603515625,-0.9534027576446533,0.2538221776485443,4.734422206878662
1761401164010504200,4.308504150390625,-0.8586253523826599,-0.160427063703537,4.545017242431641
1761401164020594400,4.318594482421875,-0.7634482979774475,-0.5510943531990051,4.312461853027344
1761401164030676500,4.328676513671875,-0.666139543056488,-0.8825404047966003,4.031610488891602
1761401164040758800,4.3387587890625,-0.5933453440666199,-1.2249280214309692,3.7198328971862793
1761401164050841000,4.348841064453125,-0.546564519405365,-1.5763087272644043,3.405773401260376
1761401164060922400,4.35892236328125,-0.5307766199111938,-1.9313700199127197,3.110100030899048
1761401164071003400,4.36900341796875,-0.5876830220222473,-2.2799527645111084,2.8318631649017334
1761401164081071900,4.37907177734375,-0.7360026836395264,-2.483880043029785,2.5761759281158447
1761401164091166000,4.389166015625,-0.8954305052757263,-2.4851956367492676,2.3780109882354736
1761401164101247500,4.39924755859375,-1.1000070571899414,-2.5069456100463867,2.2442636489868164
1761401164111306200,4.40930615234375,-1.3564772605895996,-2.5922136306762695,2.1252214908599854
1761401164121409300,4.4194091796875,-1.6283022165298462,-2.690704822540283,2.013024091720581
1761401164131490000,4.429489990234375,-1.8687679767608643,-2.765031099319458,1.9505219459533691
1761401164141571300,4.4395712890625,-2.119858980178833,-2.681495189666748,2.0203185081481934
1761401164151612700,4.44961279296875,-2.436849355697632,-2.436383008956909,2.2444300651550293
1761401164161732900,4.45973291015625,-2.8299813270568848,-2.1688380241394043,2.5340747833251953
1761401164171814400,4.469814453125,-3.206226348876953,-1.8852053880691528,2.817824125289917
1761401164181895200,4.479895263671875,-3.4851460456848145,-1.5651006698608398,3.0618038177490234
1761401164191977000,4.48997705078125,-3.6064364910125732,-1.2659798860549927,3.242415428161621
1761401164202057200,4.50005712890625,-3.5515618324279785,-1.0353232622146606,3.3852226734161377
1761401164212135000,4.510135009765625,-3.35156512260437,-0.9016757011413574,3.490541934967041
1761401164222219500,4.520219482421875,-3.0560247898101807,-0.8780604600906372,3.5273802280426025
1761401164232300500,4.530300537109375,-2.702495813369751,-0.8784767985343933,3.5063297748565674
1761401164242382000,4.540382080078125,-2.3195557594299316,-0.8900013566017151,3.4304046630859375
1761401164252462300,4.55046240234375,-1.9264237880706787,-0.8926492929458618,3.292243719100952
1761401164262544400,4.56054443359375,-1.5281623601913452,-0.8688341975212097,3.099524736404419
1761401164272624400,4.570624267578125,-1.1174936294555664,-0.8200882077217102,2.8767621517181396
1761401164282702000,4.5807021484375,-0.6936184763908386,-0.7460949420928955,2.6342146396636963
1761401164292787000,4.590786865234375,-0.2784033417701721,-0.6718518137931824,2.3870041370391846
1761401164302843100,4.600843017578125,0.11018223315477371,-0.6273859143257141,2.152333974838257
1761401164312924200,4.610924072265625,0.46267879009246826,-0.6078342199325562,1.9280225038528442
1761401164323004700,4.621004638671875,0.7728910446166992,-0.5670154690742493,1.7066588401794434
1761401164333088300,4.631088134765625,1.0362892150878906,-0.49173983931541443,1.4985016584396362
1761401164343167000,4.6411669921875,1.2666794061660767,-0.39156660437583923,1.2975057363510132
1761401164353246000,4.651245849609375,1.4769182205200195,-0.27488934993743896,1.0878996849060059
1761401164363342000,4.661342041015625,1.6651073694229126,-0.17989547550678253,0.862205982208252
1761401164373436000,4.671435791015625,1.843653917312622,-0.07529230415821075,0.6478701829910278
1761401164383494400,4.681494384765625,2.0093603134155273,0.09584322571754456,0.48043185472488403
1761401164403681800,4.701681884765625,2.2017626762390137,0.3639877438545227,0.262265682220459
1761401164413760300,4.71176025390625,2.1981489658355713,0.4122174382209778,0.20231163501739502
1761401164433909200,4.7319091796875,2.0578064918518066,0.4958033859729767,0.10630187392234802
1761401164444001800,4.742001708984375,1.9144495725631714,0.601089358329773,0.036638591438531876
1761401164454084000,4.752083984375,1.7096232175827026,0.7512909770011902,-0.04906240478157997
1761401164464165400,4.762165283203125,1.4372819662094116,0.9875099658966064,-0.12473774701356888
1761401164474229200,4.772229248046875,1.1040539741516113,1.275406002998352,-0.20112921297550201
1761401164484327700,4.78232763671875,0.7301571369171143,1.5941118001937866,-0.2747061550617218
1761401164494408400,4.792408447265625,0.38062500953674316,1.9330687522888184,-0.3383573889732361
1761401164504489500,4.802489501953125,0.09451091289520264,2.289778709411621,-0.45668336749076843
1761401164514558000,4.812557861328125,-0.09939050674438477,2.4763190746307373,-0.7409988641738892
1761401164524651300,4.8226513671875,-0.1999301314353943,2.714186906814575,-1.1903711557388306
1761401164534730800,4.832730712890625,-0.22081412374973297,3.0040314197540283,-1.7961403131484985
1761401164544813600,4.8428134765625,-0.19983020424842834,3.2450966835021973,-2.4920902252197266
1761401164554894600,4.85289453125,-0.18096132576465607,3.2709600925445557,-3.273175001144409
1761401164564975600,4.8629755859375,-0.12137366086244583,3.1051039695739746,-4.125871658325195
1761401164575057200,4.87305712890625,0.0407521054148674,2.8203887939453125,-5.017521858215332
1761401164585121800,4.883121826171875,0.312560498714447,2.501516342163086,-5.949257850646973
1761401164595218400,4.893218505859375,0.6287015676498413,2.0895488262176514,-6.888854503631592
1761401164605298000,4.9032978515625,0.9231259226799011,1.5592718124389648,-7.741334438323975
1761401164615371000,4.91337109375,1.231489658355713,1.0923795700073242,-8.456469535827637
1761401164625464300,4.92346435546875,1.559554934501648,0.6394599676132202,-8.971158981323242
1761401164635541000,4.933541015625,1.9126176834106445,0.2744230329990387,-9.209443092346191
1761401164645622500,4.94362255859375,2.2777047157287598,0.059354517608881,-9.110801696777344
1761401164655701500,4.953701416015625,2.56648325920105,-0.1262865662574768,-8.688875198364258
1761401164665791500,4.96379150390625,2.7778546810150146,-0.1950005739927292,-8.001667976379395
1761401164675874800,4.973874755859375,2.903308629989624,-0.09979020059108734,-7.061855316162109
1761401164685948700,4.98394873046875,2.9233765602111816,0.1627919226884842,-5.960515975952148
1761401164696029700,4.99402978515625,2.774374008178711,0.47521916031837463,-4.832930088043213
1761401164706110500,5.0041103515625,2.4843461513519287,0.8010528087615967,-3.7998383045196533
1761401164716190200,5.014190185546875,2.0807721614837646,1.0877331495285034,-2.932236433029175
1761401164726259700,5.024259765625,1.646188497543335,1.3476839065551758,-2.225977659225464
1761401164736353500,5.034353515625,1.2161680459976196,1.5349071025848389,-1.6180601119995117
1761401164746435000,5.04443505859375,0.8416050672531128,1.5694472789764404,-1.0485631227493286
1761401164756504300,5.05450439453125,0.5629852414131165,1.4416619539260864,-0.4706893265247345
1761401164766597400,5.064597412109375,0.39934399724006653,1.1662895679473877,0.11632752418518066
1761401164776678100,5.07467822265625,0.31735682487487793,0.7513242363929749,0.6957501769065857
1761401164786766000,5.08476611328125,0.20359398424625397,0.24084876477718353,1.2521570920944214
1761401164796825900,5.094825927734375,0.020550917834043503,-0.1496020257472992,1.8458855152130127
1761401164816989700,5.11498974609375,-0.36895060539245605,-0.23836733400821686,3.101639986038208
1761401164827083800,5.125083740234375,-0.5494622588157654,-0.11637748777866364,3.637862205505371
1761401164837164300,5.135164306640625,-0.721497118473053,-0.050244830548763275,4.070464134216309
1761401164847243500,5.145243408203125,-0.8485164642333984,-0.08481834083795547,4.413334846496582
1761401164857314300,5.155314208984375,-0.9527366161346436,-0.22934092581272125,4.70930814743042
1761401164867408000,5.165407958984375,-1.0470809936523438,-0.4555342495441437,4.982448577880859
1761401164877489200,5.1754892578125,-1.1320158243179321,-0.6745830774307251,5.26421594619751
1761401164887570000,5.18556982421875,-1.2393336296081543,-0.8226029872894287,5.547865390777588
1761401164897631000,5.195630859375,-1.34028959274292,-0.8701498508453369,5.7856831550598145
1761401164907719200,5.20571923828125,-1.406288981437683,-0.9253408908843994,5.934385776519775
1761401164917789000,5.215788818359375,-1.443343997001648,-1.000849723815918,5.9902262687683105
1761401164927882000,5.225882080078125,-1.4392471313476562,-1.1266865730285645,5.953704357147217
1761401164937975600,5.2359755859375,-1.3890355825424194,-1.2791364192962646,5.877746105194092
1761401164948056000,5.24605615234375,-1.3130605220794678,-1.3983118534088135,5.796108245849609
1761401164958137000,5.25613720703125,-1.2281588315963745,-1.4217438697814941,5.752475261688232
1761401164968210400,5.26621044921875,-1.1737005710601807,-1.3592417240142822,5.8033528327941895
1761401164978296800,5.276296875,-1.240349531173706,-1.1962332725524902,5.9820661544799805
1761401164988381000,5.286380859375,-1.4250080585479736,-0.9895250797271729,6.264582633972168
1761401164998460200,5.296460205078125,-1.660943865776062,-0.7771544456481934,6.641294002532959
1761401165008544000,5.3065439453125,-1.8534296751022339,-0.6169105768203735,7.076427459716797
1761401165018610700,5.316610595703125,-1.9163814783096313,-0.3792760372161865,7.587868690490723
1761401165028704300,5.326704345703125,-1.8210045099258423,-0.023282159119844437,8.117579460144043
1761401165038783700,5.33678369140625,-1.6254876852035522,0.31888896226882935,8.571881294250488
1761401165048866800,5.34686669921875,-1.3890522718429565,0.4865271747112274,8.881760597229004
1761401165058947800,5.35694775390625,-1.1119312047958374,0.6299339532852173,9.08763599395752
1761401165069029000,5.367029052734375,-0.819871723651886,0.7345038056373596,9.175802230834961
1761401165079097000,5.37709716796875,-0.5659496188163757,0.5121408700942993,9.093781471252441
1761401165089191000,5.38719091796875,-0.3050995469093323,0.07026282697916031,8.83418083190918
1761401165099271700,5.397271728515625,0.04504881426692009,-0.1981315016746521,8.429590225219727
1761401165109351200,5.40735107421875,0.517470121383667,-0.19696573913097382,7.920097351074219
1761401165119422000,5.417421875,1.0600709915161133,-0.12758556008338928,7.3287506103515625
1761401165129515300,5.427515380859375,1.609000325202942,-0.08266998082399368,6.68894100189209
1761401165139597000,5.43759716796875,2.10308837890625,-0.015138399787247181,6.014174461364746
1761401165149665800,5.447665771484375,2.472522020339966,0.02454785630106926,5.289629936218262
1761401165159758600,5.457758544921875,2.6724355220794678,0.0160377100110054,4.55547571182251
1761401165169837600,5.467837646484375,2.732689380645752,0.004996171221137047,3.838675022125244
1761401165179909000,5.4779091796875,2.674433946609497,0.21764987707138062,3.1572306156158447
1761401165190011600,5.48801171875,2.4397804737091064,0.4702063500881195,2.393232822418213
1761401165200083000,5.4980830078125,2.1441903114318848,0.8232524991035461,1.5205681324005127
1761401165210164200,5.508164306640625,1.858392596244812,1.2977055311203003,0.6600108742713928
1761401165220228400,5.518228271484375,1.5522271394729614,1.4781672954559326,-0.19406795501708984
1761401165230326000,5.528325927734375,1.2014293670654297,1.445392370223999,-0.9905076622962952
1761401165240404700,5.53840478515625,0.8100959062576294,1.3318626880645752,-1.694767951965332
1761401165250488300,5.54848828125,0.41101837158203125,1.1970493793487549,-2.33146333694458
1761401165260571000,5.55857080078125,0.05380876734852791,1.0991077423095703,-2.9443771839141846
1761401165270637600,5.568637451171875,-0.2269427627325058,1.0021820068359375,-3.513291120529175
1761401165280730600,5.578730712890625,-0.4344504177570343,0.9101525545120239,-4.0196533203125
1761401165290812400,5.5888125,-0.5645840167999268,0.8350767493247986,-4.512908458709717
1761401165300879000,5.598879150390625,-0.6300005912780762,0.7539389133453369,-5.067783355712891
1761401165310967600,5.608967529296875,-0.6281686425209045,0.6499686241149902,-5.695652008056641
1761401165321042700,5.619042724609375,-0.5424177050590515,0.5595712065696716,-6.335878372192383
1761401165331124200,5.629124267578125,-0.3564934730529785,0.44800668954849243,-6.938965797424316
1761401165341217500,5.639217529296875,-0.08178732544183731,0.31306010484695435,-7.451406478881836
1761401165351296000,5.6492958984375,0.2462446391582489,0.15479804575443268,-7.852782249450684
1761401165361365000,5.659364990234375,0.5730774998664856,0.04368319362401962,-8.176017761230469
1761401165371435500,5.669435546875,0.8618395924568176,0.07975555211305618,-8.492459297180176
1761401165381516800,5.679516845703125,1.0744932889938354,0.18895520269870758,-8.77620792388916
1761401165391597800,5.689597900390625,1.1413754224777222,0.3743298053741455,-8.986347198486328
1761401165401678800,5.699678955078125,1.0050132274627686,0.65694659948349,-9.03707504272461
1761401165411754500,5.70975439453125,0.5775241255760193,1.3602076768875122,-8.765982627868652
1761401165421849900,5.719849853515625,-0.39304879307746887,2.693169593811035,-7.929490089416504
1761401165431929300,5.729929443359375,-1.640009880065918,3.6723692417144775,-6.807999610900879
1761401165442017500,5.740017578125,-2.6501357555389404,4.057940483093262,-5.865588665008545
1761401165452108800,5.75010888671875,-3.1108994483947754,4.576176643371582,-4.933769226074219
1761401165462190300,5.7601904296875,-3.067216157913208,4.7779221534729,-4.034474849700928
1761401165472272000,5.77027197265625,-2.634897470474243,4.214603900909424,-3.433335781097412
1761401165482356700,5.780356689453125,-1.8009699583053589,3.14137601852417,-3.197050094604492
1761401165492431600,5.790431640625,-0.9271395206451416,1.4332683086395264,-3.453636884689331
1761401165502514700,5.8005146484375,-0.09179632365703583,-0.43989625573158264,-4.208241939544678
1761401165512605000,5.81060498046875,0.7244115471839905,-1.8841395378112793,-5.4259419441223145
1761401165522676500,5.820676513671875,1.434983730316162,-2.6051535606384277,-6.84803581237793
1761401165532757800,5.8307578125,1.799404501914978,-2.794741630554199,-8.140212059020996
1761401165542838800,5.8408388671875,1.7634153366088867,-2.5288288593292236,-9.007781028747559
1761401165552927500,5.850927490234375,1.5089936256408691,-1.9399133920669556,-9.349052429199219
1761401165562987800,5.86098779296875,1.2381012439727783,-1.1781971454620361,-9.070216178894043
1761401165573081600,5.87108154296875,1.143457055091858,-0.4420945644378662,-8.190306663513184
1761401165583150600,5.881150634765625,1.2220635414123535,0.021067189052700996,-6.7757744789123535
1761401165593244200,5.891244140625,1.4852784872055054,0.23948314785957336,-5.216419219970703
1761401165603325200,5.9013251953125,1.7885794639587402,0.41456565260887146,-3.7290756702423096
1761401165613406700,5.91140673828125,1.9246251583099365,0.6769312620162964,-2.460014820098877
1761401165623475500,5.921475341796875,1.8735642433166504,1.0481468439102173,-1.5169376134872437
1761401165633568300,5.931568359375,1.6672557592391968,1.4325355291366577,-0.8317793011665344
1761401165643649800,5.94164990234375,1.3725649118423462,1.7203983068466187,-0.26141634583473206
1761401165653710600,5.951710693359375,1.053759217262268,1.8635720014572144,0.28744640946388245
1761401165663811800,5.961811767578125,0.7265598773956299,1.8318629264831543,0.8448359370231628
1761401165673892600,5.971892578125,0.4282718300819397,1.6176104545593262,1.360890507698059
1761401165683972000,5.98197216796875,0.15088437497615814,1.2561208009719849,1.8107457160949707
1761401165694041900,5.992041748046875,-0.12925095856189728,0.8790929913520813,2.2283756732940674
1761401165704135700,6.0021357421875,-0.39351511001586914,0.5836361050605774,2.5830538272857666
1761401165714217000,6.012217041015625,-0.5870001912117004,0.447357177734375,2.846085786819458
1761401165724292000,6.0222919921875,-0.7091732025146484,0.31036216020584106,2.9851291179656982
1761401165734379300,6.032379150390625,-0.7351866364479065,0.10443663597106934,3.028745651245117
1761401165744471000,6.042470947265625,-0.6952672004699707,-0.19498391449451447,3.0350077152252197
1761401165754539000,6.0525390625,-0.6455219984054565,-0.5736437439918518,3.0896823406219482
1761401165764622600,6.06262255859375,-0.6255040168762207,-0.8153085708618164,3.280752658843994
1761401165774690600,6.072690673828125,-0.6949008107185364,-0.918729305267334,3.557490587234497
1761401165784771800,6.082771728515625,-0.8641711473464966,-0.9592482447624207,3.850965738296509
1761401165794864600,6.09286474609375,-1.0811715126037598,-0.9439932703971863,4.13248348236084
1761401165804934400,6.102934326171875,-1.277321219444275,-0.9070882201194763,4.339407920837402
1761401165815014700,6.1130146484375,-1.4227098226547241,-0.8862042427062988,4.470524311065674
1761401165825108500,6.1231083984375,-1.5207014083862305,-0.8898347616195679,4.558589935302734
1761401165835161300,6.133161376953125,-1.5679484605789185,-0.9181797504425049,4.627920150756836
1761401165845270800,6.143270751953125,-1.572445034980774,-1.0224831104278564,4.671886444091797
1761401165855351600,6.1533515625,-1.49678635597229,-1.1767982244491577,4.696451187133789
1761401165865432000,6.16343212890625,-1.3727813959121704,-1.3196054697036743,4.703212738037109
1761401165875514000,6.17351416015625,-1.243430495262146,-1.5519773960113525,4.68520975112915
1761401165885595400,6.183595458984375,-1.1166943311691284,-1.8161749839782715,4.647471904754639
1761401165895676200,6.19367626953125,-1.0756757259368896,-2.0263304710388184,4.623207092285156
1761401165905757400,6.20375732421875,-1.1666560173034668,-2.1202919483184814,4.638162612915039
1761401165915851500,6.2138515625,-1.338524341583252,-2.1235060691833496,4.715703010559082
1761401165925894400,6.223894287109375,-1.5617698431015015,-2.1120481491088867,4.853497505187988
1761401165946056400,6.244056396484375,-1.9540525674819946,-1.85689377784729,5.311962604522705
1761401165956162300,6.254162353515625,-2.067016124725342,-1.66059410572052,5.608219146728516
1761401165966243000,6.2642431640625,-2.1241722106933594,-1.473037838935852,5.916766166687012
1761401165976324900,6.274324951171875,-2.1328988075256348,-1.2931424379348755,6.218751430511475
1761401165986405600,6.284405517578125,-2.087733507156372,-1.13100004196167,6.508245944976807
1761401165996484400,6.294484375,-1.9767684936523438,-0.9721883535385132,6.78098726272583
1761401166006565000,6.304565185546875,-1.8043506145477295,-0.7555210590362549,7.021852493286133
1761401166016636700,6.31463671875,-1.5941283702850342,-0.501215934753418,7.2130560874938965
1761401166026729500,6.3247294921875,-1.3639215230941772,-0.2624155879020691,7.3469367027282715
1761401166036810800,6.334810791015625,-1.1104323863983154,-0.07725746184587479,7.409238815307617
1761401166046892000,6.34489208984375,-0.8246347308158875,-0.004346669185906649,7.4039764404296875
1761401166056981800,6.354981689453125,-0.49870118498802185,0.10340409725904465,7.333796977996826
1761401166067051800,6.3650517578125,-0.14174138009548187,0.2283250391483307,7.218385219573975
1761401166077128200,6.375128173828125,0.218532532453537,0.32145366072654724,7.088184833526611
1761401166087215600,6.385215576171875,0.5615196824073792,0.3995938003063202,6.956269264221191
1761401166097297200,6.395297119140625,0.876128613948822,0.5112415552139282,6.803936004638672
1761401166107371000,6.40537109375,1.1675386428833008,0.6974655389785767,6.583488464355469
1761401166117459200,6.415459228515625,1.4445596933364868,0.9200283288955688,6.24185037612915
1761401166127527400,6.42552734375,1.7226799726486206,1.1437069177627563,5.75642204284668
1761401166137609000,6.43560888671875,1.9812151193618774,1.4718388319015503,5.20151424407959
1761401166147702300,6.445702392578125,2.0950446128845215,1.679046630859375,4.4625468254089355
1761401166157762800,6.4557626953125,2.1605610847473145,1.9277560710906982,3.624905586242676
1761401166167864800,6.46586474609375,2.124472141265869,2.076925039291382,2.726194143295288
1761401166177941000,6.47594091796875,1.9168810844421387,2.140909433364868,1.8843227624893188
1761401166188026600,6.486026611328125,1.5625193119049072,2.0735111236572266,1.1437901258468628
1761401166198095000,6.49609521484375,1.0581225156784058,1.973787546157837,0.4766014516353607
1761401166208188200,6.506188232421875,0.44807329773902893,1.8522472381591797,-0.13136599957942963
1761401166218269700,6.516269775390625,-0.16783805191516876,1.707391619682312,-0.6433736681938171
1761401166228353500,6.526353515625,-0.7167174220085144,1.558322548866272,-1.050045371055603
1761401166238431700,6.536431640625,-1.1881895065307617,1.416248083114624,-1.4433772563934326
1761401166248501000,6.5465009765625,-1.579772710800171,1.2599844932556152,-1.891600489616394
1761401166258592500,6.556592529296875,-1.8884196281433105,1.1667559146881104,-2.4117519855499268
1761401166268675300,6.56667529296875,-2.0941286087036133,1.1865407228469849,-3.0582730770111084
1761401166278745600,6.57674560546875,-2.207125425338745,1.2274260520935059,-3.8551957607269287
1761401166288836900,6.5868369140625,-2.2310237884521484,1.2360528707504272,-4.828166961669922
1761401166298905600,6.596905517578125,-2.1186764240264893,1.3016525506973267,-5.966894149780273
1761401166308987100,6.606987060546875,-1.8185064792633057,1.5305604934692383,-7.330432891845703
1761401166319078100,6.617078125,-1.3444863557815552,1.745195984840393,-8.916367530822754
1761401166329136600,6.62713671875,-0.709839403629303,1.9301209449768066,-10.768648147583008
1761401166339230000,6.63722998046875,0.05728943273425102,2.040419816970825,-12.707279205322266
1761401166349323500,6.647323486328125,0.8442363739013672,1.6473709344863892,-14.479354858398438
1761401166359405000,6.657405029296875,1.5522438287734985,0.8605072498321533,-16.178003311157227
1761401166369493800,6.66749365234375,2.1852588653564453,0.27767056226730347,-17.83263397216797
1761401166379566800,6.67756689453125,2.654815673828125,-0.26238226890563965,-19.36124610900879
1761401166389645600,6.6876455078125,2.6552319526672363,-0.372514545917511,-20.35868263244629
1761401166399716000,6.697716064453125,2.114962577819824,0.15483134984970093,-20.334684371948242
1761401166409810000,6.707809814453125,1.2211642265319824,1.9519542455673218,-18.126110076904297
1761401166419890700,6.717890625,0.9998171925544739,1.8661199808120728,-14.089603424072266
1761401166429972000,6.727971923828125,1.8272831439971924,0.2475602924823761,-9.748796463012695
1761401166440052700,6.738052734375,2.6681721210479736,-1.4917569160461426,-6.8621416091918945
1761401166450132000,6.748132080078125,3.079540252685547,-2.129018545150757,-5.669455528259277
1761401166460202200,6.7582021484375,3.022667169570923,-1.5222668647766113,-5.29362678527832
1761401166470298600,6.768298583984375,2.6616437435150146,-0.2855311930179596,-4.961248397827148
1761401166480377300,6.77837744140625,2.1338648796081543,0.8179232478141785,-4.1064863204956055
1761401166490445300,6.7884453125,1.6591119766235352,1.4949710369110107,-2.6437573432922363
1761401166500525000,6.798525146484375,1.353895902633667,1.7935922145843506,-0.9829800724983215
1761401166510621400,6.808621337890625,1.1278024911880493,1.8668694496154785,0.38818585872650146
1761401166520697600,6.818697509765625,0.8437367677688599,1.8635553121566772,1.2916935682296753
1761401166530782700,6.82878271484375,0.4875430762767792,1.7860146760940552,1.8339946269989014
1761401166540863700,6.83886376953125,0.03916998580098152,1.766096591949463,2.3308472633361816
1761401166550944800,6.84894482421875,-0.3169737756252289,1.7305572032928467,2.8806259632110596
1761401166561025500,6.859025634765625,-0.5754257440567017,1.6219737529754639,3.511708974838257
1761401166571107000,6.869107177734375,-0.7367520928382874,1.517353892326355,4.240450382232666
1761401166581169200,6.879169189453125,-0.7722249031066895,1.4413788318634033,5.018354415893555
1761401166591269000,6.88926904296875,-0.7630652785301208,1.2956738471984863,5.780953407287598
1761401166601350100,6.89935009765625,-0.7692272067070007,1.0179365873336792,6.469825744628906
1761401166611417900,6.90941796875,-0.8197051882743835,0.6266864538192749,7.061588764190674
1761401166621512200,6.91951220703125,-0.9153319001197815,0.1816108375787735,7.572147369384766
1761401166631593200,6.92959326171875,-1.0495957136154175,-0.2984546422958374,7.928457736968994
1761401166641657000,6.939656982421875,-1.2453457117080688,-0.7091232538223267,8.14326000213623
1761401166651730200,6.949730224609375,-1.4985016584396362,-0.9807484745979309,8.237421035766602
1761401166661836500,6.95983642578125,-1.7609672546386719,-1.162292718887329,8.220050811767578
1761401166671917600,6.96991748046875,-1.9117517471313477,-1.2131370306015015,8.135565757751465
1761401166681987000,6.979987060546875,-1.9941385984420776,-1.1738505363464355,8.058008193969727
1761401166692079400,6.990079345703125,-2.074993371963501,-1.1175602674484253,8.00464916229248
1761401166702156300,7.00015625,-2.092180013656616,-1.0045301914215088,7.9892778396606445
1761401166712231400,7.0102314453125,-2.039537191390991,-0.976834774017334,7.987978935241699
1761401166722322200,7.020322265625,-2.0040810108184814,-1.176748275756836,7.975222110748291
1761401166732404200,7.030404296875,-1.9991847276687622,-1.4947712421417236,7.946160793304443
1761401166742484500,7.040484375,-1.9891756772994995,-1.7932424545288086,7.898313999176025
1761401166752566300,7.050566162109375,-1.9855451583862305,-2.0302109718322754,7.818192481994629
1761401166762647000,7.06064697265625,-1.9982187747955322,-2.2437973022460938,7.715953826904297
1761401166772724200,7.07072412109375,-2.006695508956909,-2.44815731048584,7.600892066955566
1761401166782809300,7.080809326171875,-1.982564091682434,-2.6663568019866943,7.476054668426514
1761401166792889900,7.090889892578125,-1.936099648475647,-2.898545503616333,7.307616710662842
1761401166802971100,7.10097119140625,-1.857143521308899,-3.0618703365325928,7.0386061668396
1761401166813027000,7.111027099609375,-1.7228131294250488,-3.0300281047821045,6.634416103363037
1761401166823107800,7.12110791015625,-1.5358397960662842,-2.8290488719940186,6.105571269989014
1761401166833215200,7.13121533203125,-1.3087137937545776,-2.5439505577087402,5.487444877624512
1761401166843291400,7.14129150390625,-1.014089584350586,-2.2996878623962402,4.85651159286499
1761401166853351000,7.151350830078125,-0.6433070302009583,-1.969673991203308,4.237203121185303
1761401166863457800,7.161457763671875,-0.1862572729587555,-1.5256974697113037,3.662043809890747
1761401166873538000,7.1715380859375,0.3034341335296631,-1.1798125505447388,3.149719715118408
1761401166883620000,7.1816201171875,0.7375681400299072,-1.061070203781128,2.6544992923736572
1761401166893675800,7.19167578125,1.0876832008361816,-1.038920521736145,2.1681885719299316
1761401166903778000,7.201778076171875,1.370949387550354,-1.006062388420105,1.6563807725906372
1761401166913863400,7.211863525390625,1.6058361530303955,-0.9416950345039368,1.11451256275177
1761401166923944400,7.2219443359375,1.8325790166854858,-0.873114287853241,0.5627521276473999
1761401166934025500,7.232025390625,2.0928962230682373,-0.7915434241294861,0.034123849123716354
1761401166944105500,7.24210546875,2.392932891845703,-0.6726845502853394,-0.4864439070224762
1761401166954187000,7.25218701171875,2.6934194564819336,-0.5612199306488037,-0.9754358530044556
1761401166964245000,7.262244873046875,2.9496562480926514,-0.5056958198547363,-1.4046069383621216
1761401166974348800,7.272348876953125,3.1402270793914795,-0.49154001474380493,-1.7890790700912476
1761401166984430000,7.28243017578125,3.2643485069274902,-0.4406290054321289,-2.1257376670837402
1761401166994511000,7.292510986328125,3.3262343406677246,-0.3484329879283905,-2.376628875732422
1761401167004592000,7.302592041015625,3.3357770442962646,-0.24321362376213074,-2.514439821243286
1761401167014674000,7.312673828125,3.292926549911499,-0.09952373802661896,-2.532942295074463
1761401167024754000,7.32275390625,3.1764159202575684,0.1125304326415062,-2.4554851055145264
1761401167034836000,7.3328359375,2.946925163269043,0.35486140847206116,-2.299671173095703
1761401167044916200,7.342916259765625,2.583303689956665,0.6525666117668152,-2.083620071411133
1761401167054997800,7.352997802734375,2.11794376373291,0.9287882447242737,-1.8831902742385864
1761401167065053700,7.3630537109375,1.6021389961242676,1.0537092685699463,-1.7208813428878784
1761401167075166000,7.373166015625,1.085368275642395,1.038387656211853,-1.5670990943908691
1761401167085240800,7.38324072265625,0.6121642589569092,1.031243085861206,-1.3659698963165283
1761401167095312100,7.39331201171875,0.1841755360364914,1.0287450551986694,-1.0712957382202148
1761401167105402400,7.40340234375,-0.19906412065029144,0.9921897053718567,-0.6551812887191772
1761401167115484000,7.41348388671875,-0.5333412885665894,0.9588818550109863,-0.13146592676639557
1761401167125564400,7.423564453125,-0.8434203267097473,1.045099139213562,0.46622607111930847
1761401167135645400,7.4336455078125,-1.1569634675979614,1.2084739208221436,1.036539077758789
1761401167145726700,7.443726806640625,-1.5024819374084473,1.4931224584579468,1.5421348810195923
1761401167155808500,7.45380859375,-1.8583593368530273,1.929138422012329,1.9747533798217773
1761401167165889000,7.463888916015625,-2.1900718212127686,2.4947049617767334,2.3346941471099854
1761401167175969800,7.4739697265625,-2.5208516120910645,3.0317602157592773,2.563685417175293
1761401167186026000,7.48402587890625,-2.8400070667266846,3.444110870361328,2.6208250522613525
1761401167196132400,7.49413232421875,-3.041935682296753,3.699981451034546,2.475553035736084
1761401167206213400,7.50421337890625,-3.048164129257202,3.8560118675231934,2.140143394470215
1761401167216294100,7.514294189453125,-2.855428457260132,3.8603250980377197,1.6170941591262817
1761401167226379800,7.5243798828125,-2.506795644760132,3.66365909576416,0.8609069585800171
1761401167236456200,7.534456298828125,-2.023099660873413,3.281951665878296,-0.22787538170814514
1761401167246537200,7.544537109375,-1.5188027620315552,2.9261910915374756,-1.6869072914123535
1761401167256618500,7.554618408203125,-1.0812047719955444,2.6769652366638184,-3.5282464027404785
1761401167266699500,7.564699462890625,-0.7567700743675232,2.3719823360443115,-5.734921932220459
1761401167276780300,7.5747802734375,-0.519451916217804,2.232372760772705,-8.026199340820312
1761401167286862000,7.584862060546875,-0.3873032033443451,2.0602211952209473,-10.208843231201172
1761401167296917800,7.594917724609375,-0.30381718277931213,2.0240988731384277,-12.245100021362305
1761401167306979000,7.60497900390625,-0.3339774012565613,2.011425256729126,-14.277026176452637
1761401167317081300,7.615081298828125,-0.398894339799881,1.8125942945480347,-16.257991790771484
1761401167327186400,7.6251865234375,-0.21873238682746887,1.5201517343521118,-18.029550552368164
1761401167337268000,7.63526806640625,0.0810878649353981,0.9632452130317688,-19.188030242919922
1761401167347325400,7.645325439453125,0.2845486104488373,0.1648736596107483,-19.308887481689453
1761401167357429800,7.6554296875,0.8387073278427124,-1.070896029472351,-17.474742889404297
1761401167367510000,7.665510009765625,1.80205237865448,-2.038054943084717,-14.139981269836426
1761401167377590800,7.6755908203125,2.4257078170776367,-1.9603644609451294,-11.056727409362793
1761401167387672600,7.685672607421875,2.281668186187744,-0.43378424644470215,-9.365139961242676
1761401167397752800,7.6957529296875,1.4825139045715332,1.5808885097503662,-8.682596206665039
1761401167407835000,7.7058349609375,0.6490859389305115,2.817657470703125,-7.907474040985107
1761401167417915600,7.71591552734375,0.33477678894996643,2.9658772945404053,-6.330765247344971
1761401167427995100,7.7259951171875,0.5453487634658813,2.6470048427581787,-4.237968921661377
1761401167438073900,7.736073974609375,0.9562838673591614,2.4057064056396484,-2.279553174972534
1761401167448155600,7.74615576171875,1.2059924602508545,2.0887327194213867,-0.9017423391342163
1761401167458214700,7.756214599609375,1.2676119804382324,1.697232723236084,-0.04726378247141838
1761401167468321300,7.7663212890625,1.1697369813919067,1.213236927986145,0.5966094732284546
1761401167478398500,7.7763984375,0.928272008895874,0.6289347410202026,1.2740237712860107
1761401167488483000,7.786483154296875,0.5632517337799072,0.07767381519079208,2.107151985168457
1761401167498549200,7.79654931640625,0.14130838215351105,-0.2867802381515503,2.996187448501587
1761401167508619800,7.806619873046875,-0.2815175950527191,-0.4238918423652649,3.8140439987182617
1761401167518726100,7.81672607421875,-0.659960925579071,-0.4027913510799408,4.546133041381836
1761401167528782300,7.8267822265625,-0.9977520704269409,-0.3786265254020691,5.163593292236328
1761401167538884400,7.83688427734375,-1.2355365753173828,-0.40593892335891724,5.684560775756836
1761401167548969200,7.84696923828125,-1.3894352912902832,-0.3921661376953125,6.117079257965088
1761401167559050000,7.857050048828125,-1.4687244892120361,-0.20679153501987457,6.468226909637451
1761401167569131000,7.867131103515625,-1.5473642349243164,0.09827469289302826,6.733323574066162
1761401167579212800,7.877212890625,-1.6733343601226807,0.30030322074890137,6.849401473999023
1761401167589293300,7.887293212890625,-1.8018358945846558,0.38129115104675293,6.831715106964111
1761401167599363300,7.89736328125,-1.840556263923645,0.3971623182296753,6.706061363220215
1761401167609430300,7.90743017578125,-1.8888359069824219,0.2044433355331421,6.397347927093506
1761401167619537000,7.917536865234375,-1.975852608680725,-0.20747435092926025,5.868153095245361
1761401167629617700,7.92761767578125,-2.0751264095306396,-0.7574695348739624,5.168489456176758
1761401167639674600,7.937674560546875,-2.178297519683838,-1.4291049242019653,4.381042957305908
1761401167649773800,7.94777392578125,-2.2541394233703613,-2.09904146194458,3.5630362033843994
1761401167659861000,7.957861083984375,-2.28743052482605,-2.6033551692962646,2.732189655303955
1761401167669923800,7.967923828125,-2.3638052940368652,-3.0238494873046875,1.9348173141479492
1761401167680023000,7.97802294921875,-2.5019328594207764,-3.325218677520752,1.275389313697815
1761401167690104300,7.988104248046875,-2.688889503479004,-3.5628364086151123,0.8643876314163208
1761401167700185000,7.99818505859375,-2.8387246131896973,-3.5947787761688232,0.7409488558769226
1761401167710265600,8.008265625,-2.9754531383514404,-3.6628763675689697,0.9723548889160156
1761401167720347000,8.018346923828124,-3.192753314971924,-3.763399362564087,1.5673822164535522
1761401167730403000,8.028403076171875,-3.4861786365509033,-3.799405097961426,2.4394474029541016
1761401167740508700,8.0385087890625,-3.7954583168029785,-3.8134610652923584,3.4027259349823
1761401167750590000,8.04858984375,-4.196767330169678,-3.808598041534424,4.280786514282227
1761401167760646000,8.05864599609375,-4.586918354034424,-3.5819718837738037,4.983931064605713
1761401167770718200,8.06871826171875,-4.861907482147217,-3.2004475593566895,5.461464881896973
1761401167780833300,8.078833251953125,-5.126637935638428,-2.791377544403076,5.725529193878174
1761401167790914800,8.088914794921875,-5.390036106109619,-2.4425950050354004,5.843022346496582
1761401167800970000,8.098969970703125,-5.541370391845703,-2.174250602722168,5.891951560974121
1761401167811077000,8.1090771484375,-5.491092205047607,-1.8992446660995483,5.917648792266846
1761401167821157600,8.11915771484375,-5.218567848205566,-1.5230828523635864,5.931887626647949
1761401167831240000,8.129239990234375,-4.765881061553955,-1.0574896335601807,5.931088447570801
1761401167841284600,8.13928466796875,-4.142442226409912,-0.5978918075561523,5.910354137420654
1761401167851356000,8.14935595703125,-3.315142869949341,-0.282949835062027,5.866621017456055
1761401167861478400,8.159478515625,-2.374746799468994,-0.26045042276382446,5.78601598739624
1761401167871563000,8.16956298828125,-1.4367989301681519,-0.45525112748146057,5.670088291168213
1761401167881618700,8.17961865234375,-0.5433502793312073,-0.6416249871253967,5.477319240570068
1761401167891716900,8.189716796875,0.23550286889076233,-0.8458351492881775,5.116978645324707
1761401167901799200,8.199799072265625,0.7826002836227417,-1.2082741260528564,4.575177192687988
1761401167911861800,8.20986181640625,1.0845855474472046,-1.5290616750717163,3.9730887413024902
1761401167921963800,8.2199638671875,1.3219703435897827,-1.514272928237915,3.4514551162719727
1761401167932049000,8.230048828125,1.5642846822738647,-1.237884759902954,3.0901153087615967
1761401167942130400,8.24013037109375,1.7528067827224731,-0.83449387550354,2.87965989112854
1761401167952211000,8.2502109375,1.8525470495224,-0.40727123618125916,2.728992223739624
1761401167962292700,8.260292724609375,1.8554282188415527,-0.05540754273533821,2.578324317932129
1761401167972348700,8.2703486328125,1.7834500074386597,0.31848928332328796,2.4569506645202637
1761401167982454300,8.280454345703125,1.627386212348938,0.7620826959609985,2.364305019378662
1761401167992532000,8.290531982421875,1.404157280921936,1.2308400869369507,2.270310163497925
1761401168002587100,8.300587158203125,1.1603775024414062,1.656713843345642,2.1332485675811768
1761401168012685300,8.310685302734376,0.8905175924301147,2.302302360534668,1.915265679359436
1761401168022778400,8.3207783203125,0.5705294609069824,2.960364818572998,1.5694806575775146
1761401168032860200,8.330860107421875,0.17095233500003815,3.2884299755096436,1.1308001279830933
1761401168042940700,8.340940673828126,-0.2536722719669342,3.4499728679656982,0.6482032537460327
1761401168053017600,8.351017578125,-0.5734272599220276,3.668022632598877,0.16031049191951752
1761401168063103200,8.361103271484374,-0.7708593010902405,3.900644302368164,-0.3080805838108063
1761401168073183700,8.371183837890625,-0.8808083534240723,4.028379917144775,-0.7565369606018066
1761401168083265800,8.381265869140625,-0.9205279350280762,4.036823272705078,-1.200063705444336
1761401168093346800,8.391346923828126,-0.9306868314743042,3.9151997566223145,-1.673850655555725
1761401168103401500,8.4014013671875,-0.9315694570541382,3.7498598098754883,-2.1722686290740967
1761401168113509000,8.411509033203124,-0.9116181135177612,3.7126049995422363,-2.6992814540863037
1761401168123585000,8.4215849609375,-0.8304136395454407,3.8802266120910645,-3.2474281787872314
1761401168133657600,8.43165771484375,-0.676914632320404,4.17458438873291,-3.8334290981292725
1761401168143751700,8.441751708984375,-0.49640294909477234,4.316958427429199,-4.511393070220947
1761401168153832000,8.45183203125,-0.2877628207206726,4.25365686416626,-5.302786350250244
1761401168163914000,8.4619140625,-0.02103388123214245,4.119509696960449,-6.153018474578857
1761401168173994500,8.471994384765624,0.2870633602142334,3.9258084297180176,-7.063021183013916
1761401168184071700,8.48207177734375,0.5960432291030884,3.7317070960998535,-8.032827377319336
1761401168194157300,8.4921572265625,0.8513143062591553,3.533125877380371,-9.098711013793945
1761401168204213000,8.502212890625,1.0231492519378662,3.253190517425537,-10.250961303710938
1761401168214319600,8.512319580078126,1.1225231885910034,2.9182469844818115,-11.481934547424316
1761401168224399600,8.522399658203126,1.1714357137680054,2.748260736465454,-12.785185813903809
1761401168234436400,8.532436279296874,1.1957004070281982,2.684875965118408,-14.125259399414062
1761401168244562400,8.5425625,1.261266827583313,2.5498461723327637,-15.298660278320312
1761401168254642400,8.552642333984375,1.4002935886383057,2.536506175994873,-15.90945816040039
1761401168264707000,8.56270703125,1.5911973714828491,2.873115062713623,-15.605324745178223
1761401168274805200,8.57280517578125,1.8404229879379272,2.8414392471313477,-14.256325721740723
1761401168284886500,8.582886474609374,2.2100729942321777,1.9194791316986084,-11.756757736206055
1761401168294967300,8.59296728515625,2.5540261268615723,0.9952539801597595,-8.824904441833496
1761401168305023500,8.6030234375,2.521451234817505,0.6787298917770386,-6.589966773986816
1761401168315130400,8.61313037109375,2.048663377761841,1.1866906881332397,-5.539405345916748
1761401168325210000,8.623210205078125,1.2206146717071533,2.0514447689056396,-5.285982608795166
1761401168335291600,8.633291748046876,0.41664740443229675,2.733588695526123,-5.1339826583862305
1761401168345372700,8.64337255859375,-0.01269027590751648,2.7580366134643555,-4.516139507293701
1761401168355435500,8.653435546875,0.023182235658168793,2.0535097122192383,-3.3820416927337646
1761401168365534500,8.663534423828125,0.31022894382476807,0.9050231575965881,-2.1001572608947754
1761401168375616000,8.673615966796875,0.5332580208778381,-0.10651837289333344,-1.0864673852920532
1761401168385716500,8.683716552734374,0.5433502793312073,-0.7779371738433838,-0.4043068587779999
1761401168395778000,8.693778076171874,0.29965370893478394,-1.0868005752563477,0.2357693314552307
1761401168405858300,8.7038583984375,-0.07409322261810303,-1.0559741258621216,1.003930687904358
1761401168415940000,8.713940185546875,-0.49467092752456665,-0.8421879410743713,1.8720654249191284
1761401168426020900,8.724020751953125,-0.8586253523826599,-0.5706294178962708,2.669854164123535
1761401168436101600,8.7341015625,-1.1267199516296387,-0.3959132730960846,3.313727378845215
1761401168446183400,8.744183349609376,-1.3348771333694458,-0.33875706791877747,3.8017866611480713
1761401168456263700,8.754263671875,-1.4981852769851685,-0.38264012336730957,4.159829139709473
1761401168466345500,8.764345458984375,-1.606885313987732,-0.46945691108703613,4.416865348815918
1761401168476426000,8.774426025390625,-1.6109821796417236,-0.5658330917358398,4.591648101806641
1761401168486507500,8.784507568359375,-1.6254876852035522,-0.6865405440330505,4.736886978149414
1761401168496588800,8.7945888671875,-1.5972594022750854,-0.7139029502868652,4.857677459716797
1761401168506669000,8.8046689453125,-1.5126408338546753,-0.7360026836395264,4.896264553070068
1761401168516709600,8.814709716796875,-1.4086872339248657,-0.8105621933937073,4.842772483825684
1761401168526831000,8.8248310546875,-1.3327620029449463,-0.9066219329833984,4.712821960449219
1761401168536913000,8.834912841796875,-1.2718586921691895,-1.009160041809082,4.513724327087402
1761401168546993200,8.8449931640625,-1.220731258392334,-1.1417750120162964,4.300604343414307
1761401168557074700,8.85507470703125,-1.2103724479675293,-1.3323290348052979,4.1086015701293945
1761401168567156000,8.865156005859374,-1.239999771118164,-1.5414354801177979,3.9648616313934326
1761401168577236500,8.875236572265624,-1.3199052810668945,-1.7712759971618652,3.864405393600464
1761401168587293000,8.88529296875,-1.4431440830230713,-1.9970530271530151,3.7957913875579834
1761401168597373700,8.895373779296875,-1.5847855806350708,-2.193718910217285,3.7246956825256348
1761401168607454700,8.905454833984376,-1.7107890844345093,-2.3710830211639404,3.644057512283325
1761401168617535700,8.91553564453125,-1.830064296722412,-2.5203020572662354,3.564868211746216
1761401168627616800,8.92561669921875,-1.9381314516067505,-2.6340482234954834,3.5114424228668213
1761401168637697800,8.93569775390625,-2.0169878005981445,-2.6605944633483887,3.5040647983551025
1761401168657869300,8.955869384765625,-2.0989248752593994,-2.506129503250122,3.6290524005889893
1761401168667951000,8.965951171875,-2.158179521560669,-2.5250983238220215,3.666423797607422
1761401168678027800,8.97602783203125,-2.191603899002075,-2.570430278778076,3.6729021072387695
1761401168688124200,8.986124267578125,-2.161177158355713,-2.5726451873779297,3.665774345397949
1761401168698207500,8.99620751953125,-2.0927629470825195,-2.508944034576416,3.6608779430389404
1761401168708290800,9.006290771484375,-2.022183656692505,-2.3175740242004395,3.6725192070007324
1761401168718371600,9.01637158203125,-1.9656437635421753,-2.012624502182007,3.7006309032440186
1761401168728452400,9.026452392578125,-1.9225600957870483,-1.6616100072860718,3.746295928955078
1761401168738508000,9.036508056640624,-1.887886643409729,-1.3131437301635742,3.816925048828125
1761401168748614400,9.046614501953124,-1.8421549797058105,-0.9551014304161072,3.9020931720733643
1761401168758691800,9.05669189453125,-1.7808853387832642,-0.6087002158164978,3.9876441955566406
1761401168768751400,9.06675146484375,-1.6947846412658691,-0.34596821665763855,4.054709434509277
1761401168778845200,9.07684521484375,-1.5383877754211426,-0.12646974623203278,4.109683990478516
1761401168788938500,9.0869384765625,-1.3017858266830444,0.13083307445049286,4.150352954864502
1761401168799019800,9.097019775390624,-1.0105756521224976,0.4170970320701599,4.184293746948242
1761401168809065700,9.107065673828124,-0.7277089953422546,0.6351965665817261,4.221848011016846
1761401168819186400,9.1171865234375,-0.5042802095413208,0.7935585379600525,4.2774553298950195
1761401168829250600,9.12725048828125,-0.34450268745422363,0.9540189504623413,4.3728156089782715
1761401168839344000,9.13734423828125,-0.2475602924823761,1.090031385421753,4.495971202850342
1761401168849398300,9.147398193359376,-0.19933058321475983,1.1839760541915894,4.629968643188477
1761401168859506400,9.15750634765625,-0.17353369295597076,1.2665294408798218,4.757853984832764
1761401168869587000,9.1675869140625,-0.14885260164737701,1.3118780851364136,4.869851589202881
1761401168879666200,9.177666259765624,-0.10172205418348312,1.3028682470321655,4.979500770568848
1761401168889749500,9.18774951171875,-0.017170175909996033,1.2387007474899292,5.09158182144165
1761401168899830000,9.197830078125,0.10750095546245575,1.1260703802108765,5.187175273895264
1761401168919992600,9.21799267578125,0.45345252752304077,0.8585087656974792,5.198349952697754
1761401168930075000,9.228074951171875,0.6181263327598572,0.7268596887588501,5.092997074127197
1761401168940155000,9.23815478515625,0.7278755903244019,0.6125139594078064,4.944344520568848
1761401168950233300,9.2482333984375,0.783932626247406,0.5611366629600525,4.779504299163818
1761401168960299500,9.258299560546876,0.7819507718086243,0.5586052536964417,4.607452869415283
1761401168970397700,9.268397705078126,0.7005964517593384,0.5643008947372437,4.404224872589111
1761401168980479200,9.278479248046875,0.5220332741737366,0.4992174506187439,4.124589443206787
1761401168990560800,9.288560791015625,0.30161887407302856,0.41121822595596313,3.7483110427856445
1761401169000638700,9.298638671875,0.12208977341651917,0.4899911880493164,3.3260178565979004
1761401169010718200,9.30871826171875,-0.01433901209384203,0.6985647082328796,2.8705503940582275
1761401169020803000,9.318802978515626,-0.13248181343078613,1.0736606121063232,2.3473012447357178
1761401169030881800,9.3288818359375,-0.252356618642807,1.5244817733764648,1.694767951965332
1761401169040954000,9.3389541015625,-0.3772442638874054,1.9364161491394043,0.8804419636726379
1761401169051046100,9.349046142578125,-0.4892750680446625,2.3413891792297363,-0.10958269238471985
1761401169061127400,9.35912744140625,-0.5752758383750916,2.59426212310791,-1.2221968173980713
1761401169071208400,9.36920849609375,-0.5992075204849243,2.5843029022216797,-2.4062893390655518
1761401169081275100,9.379275146484375,-0.5297107696533203,2.5932960510253906,-3.587650775909424
1761401169091370500,9.38937060546875,-0.4086202085018158,2.6235063076019287,-4.764432430267334
1761401169101436200,9.399436279296875,-0.2698432207107544,2.5344245433807373,-5.985779762268066
1761401169111533000,9.409532958984375,-0.0972588062286377,2.5226669311523438,-7.224114418029785
1761401169121601000,9.41960107421875,0.10943280905485153,2.648487091064453,-8.533177375793457
1761401169131694800,9.42969482421875,0.31750670075416565,2.5584893226623535,-9.882226943969727
1761401169141774000,9.439774169921876,0.49010777473449707,2.386371374130249,-11.203497886657715
1761401169151856400,9.4498564453125,0.69611656665802,2.4777679443359375,-12.578027725219727
1761401169161938200,9.459938232421875,0.9416784048080444,2.8926000595092773,-14.039074897766113
1761401169172019200,9.470019287109375,1.1931856870651245,3.2981393337249756,-15.526469230651855
1761401169182096400,9.480096435546875,1.5131903886795044,3.425708293914795,-16.802873611450195
1761401169192181000,9.490180908203126,1.9566506147384644,3.089082956314087,-17.596681594848633
1761401169202260200,9.50026025390625,2.497136354446411,2.5319430828094482,-17.576181411743164
1761401169212343300,9.51034326171875,3.0303945541381836,1.9289884567260742,-16.38412857055664
1761401169222417700,9.520417724609375,3.5881171226501465,1.06788170337677,-13.917801856994629
1761401169232505000,9.530505126953125,4.129035949707031,0.20016327500343323,-11.106355667114258
1761401169242587000,9.5405869140625,4.4711737632751465,-0.15691308677196503,-8.957586288452148
1761401169252662800,9.550662841796875,4.366420745849609,0.31314337253570557,-7.880494594573975
1761401169262748400,9.56074853515625,3.7760729789733887,1.103537678718567,-7.555377006530762
1761401169272827600,9.57082763671875,3.002948760986328,1.5966931581497192,-7.385956764221191
1761401169282910500,9.580910400390625,2.414483070373535,1.5209012031555176,-6.849151611328125
1761401169292991000,9.590990966796875,2.0742604732513428,0.7570032477378845,-5.755539417266846
1761401169303072300,9.601072265625,1.6988815069198608,-0.1859908103942871,-4.205277442932129
1761401169313141000,9.61114111328125,1.182310700416565,-0.7762884497642517,-2.30796480178833
1761401169323234800,9.62123486328125,0.5462813973426819,-1.1947344541549683,-0.5262800455093384
1761401169333303300,9.63130322265625,-0.18187730014324188,-1.1773310899734497,0.9731709361076355
1761401169343396400,9.641396240234375,-0.9098027944564819,-0.7355696558952332,2.0763423442840576
1761401169353478000,9.651477783203125,-1.5418351888656616,-0.18027852475643158,2.8696842193603516
1761401169363547000,9.661546875,-1.949689269065857,0.24178138375282288,3.4669265747070312
1761401169373650700,9.671650634765625,-2.0618367195129395,0.4250909090042114,3.9317703247070312
1761401169383721000,9.681720947265624,-1.9818480014801025,0.3563602566719055,4.302369594573975
1761401169393778700,9.69177880859375,-1.7751396894454956,0.13046668469905853,4.576826095581055
1761401169403881200,9.701881103515625,-1.536789059638977,-0.2336043268442154,4.7231974601745605
1761401169413964500,9.711964599609376,-1.335160255432129,-0.6178598403930664,4.735204696655273
1761401169424034600,9.72203466796875,-1.2017457485198975,-0.959481418132782,4.677798748016357
1761401169434126000,9.7321259765625,-1.1540822982788086,-1.2401330471038818,4.545799732208252
1761401169444206800,9.742206787109374,-1.1728512048721313,-1.4754360914230347,4.309447765350342
1761401169454288600,9.75228857421875,-1.220048427581787,-1.6533163785934448,3.98861026763916
1761401169464367000,9.7623671875,-1.2475106716156006,-1.696066975593567,3.6204090118408203
1761401169474450200,9.7724501953125,-1.2857980728149414,-1.7751563787460327,3.193269729614258
1761401169484531500,9.782531494140626,-1.3408058881759644,-2.041785478591919,2.770660161972046
1761401169494612700,9.79261279296875,-1.3768283128738403,-2.41994571685791,2.4447100162506104
1761401169504693200,9.802693359375,-1.4419283866882324,-2.884056568145752,2.232206106185913
1761401169514761700,9.81276171875,-1.5807886123657227,-3.3888864517211914,2.1226234436035156
1761401169524853500,9.822853515625,-1.8370256423950195,-3.8072824478149414,2.140859365463257
1761401169534936300,9.832936279296876,-2.1789636611938477,-3.918480634689331,2.3481838703155518
1761401169545017600,9.843017578125,-2.55434250831604,-3.769394874572754,2.671053171157837
1761401169555088400,9.85308837890625,-2.925008535385132,-3.4312705993652344,2.999534845352173
1761401169565179600,9.8631796875,-3.2732083797454834,-2.9177141189575195,3.304234743118286
1761401169575261000,9.873260986328125,-3.5631861686706543,-2.3342113494873047,3.5844366550445557
1761401169585341700,9.883341796875,-3.748744010925293,-1.7356866598129272,3.838824987411499
1761401169595421400,9.89342138671875,-3.8138108253479004,-1.1847587823867798,4.058690071105957
1761401169605501700,9.903501708984376,-3.7695114612579346,-0.7400495409965515,4.217601299285889
1761401169615567600,9.913567626953125,-3.6677894592285156,-0.47966575622558594,4.313228130340576
1761401169625651700,9.923651611328125,-3.52624773979187,-0.37860986590385437,4.376246452331543
1761401169635734500,9.933734619140624,-3.2855489253997803,-0.30841365456581116,4.438182353973389
1761401169645803000,9.943802978515626,-2.951371669769287,-0.32033786177635193,4.478418350219727
1761401169655892700,9.953892822265624,-2.5893824100494385,-0.4405623972415924,4.478135108947754
1761401169665990400,9.963990478515624,-2.230740547180176,-0.6653234958648682,4.416165828704834
1761401169676080000,9.974080078125,-1.8984118700027466,-0.9644109606742859,4.269961357116699
1761401169686152700,9.984152587890625,-1.6045371294021606,-1.279386281967163,4.026031494140625
1761401169696221200,9.99422119140625,-1.3615233898162842,-1.553992509841919,3.6822948455810547
1761401169706308400,10.004308349609374,-1.1389938592910767,-1.6281189918518066,3.2887964248657227
1761401169716394000,10.01439404296875,-0.9107354283332825,-1.4791165590286255,2.8759961128234863
1761401169726463500,10.02446337890625,-0.6817942261695862,-1.1983317136764526,2.4705734252929688
1761401169736558000,10.03455810546875,-0.4528529942035675,-0.8748462796211243,2.097609281539917
1761401169746638800,10.044638916015625,-0.1953503042459488,-0.565766453742981,1.7774713039398193
1761401169756707000,10.05470703125,0.08248679339885712,-0.28869545459747314,1.5362061262130737
1761401169766801000,10.06480078125,0.35339584946632385,-0.09954039007425308,1.3846722841262817
1761401169776870100,10.0748701171875,0.6018721461296082,-0.0020983919966965914,1.3188227415084839
1761401169786963500,10.08496337890625,0.8121110200881958,0.09008096903562546,1.3412888050079346
1761401169797029600,10.095029541015625,0.9674752950668335,0.22964069247245789,1.442644476890564
1761401169807112200,10.1051123046875,1.0535926818847656,0.37727755308151245,1.5964432954788208
1761401169817180700,10.1151806640625,1.0613367557525635,0.5156381726264954,1.7997708320617676
1761401169827261700,10.12526171875,0.9764683842658997,0.6633250117301941,2.0450496673583984
1761401169837367600,10.135367431640624,0.7901445031166077,0.7859976887702942,2.2822344303131104
1761401169847449300,10.145449462890625,0.5280619859695435,0.9469577074050903,2.499051570892334
1761401169857530400,10.1555302734375,0.26737844944000244,1.1174770593643188,2.689622163772583
1761401169867598600,10.1655986328125,0.07151186466217041,1.2285418510437012,2.8396573066711426
1761401169877692400,10.1756923828125,-0.06626588851213455,1.335626482963562,2.9561514854431152
1761401169887760600,10.1857607421875,-0.1664724349975586,1.4456754922866821,3.037872076034546
1761401169897854500,10.1958544921875,-0.2557540237903595,1.531826138496399,3.0605547428131104
1761401169907921000,10.2059208984375,-0.30987921357154846,1.5980254411697388,2.9825310707092285
1761401169918004000,10.21600390625,-0.3321288228034973,1.7231961488723755,2.873098373413086
1761401169928097500,10.22609765625,-0.3359425663948059,1.9525038003921509,2.7316067218780518
1761401169938165800,10.236165771484375,-0.3094295561313629,2.3041343688964844,2.512641191482544
1761401169948259800,10.246259765625,-0.26100000739097595,2.6979658603668213,2.1549153327941895
1761401169958340600,10.256340576171874,-0.22282925248146057,3.008877754211426,1.6356799602508545
1761401169968417800,10.266417724609376,-0.22096401453018188,3.1421921253204346,0.9501718878746033
1761401169978502400,10.27650244140625,-0.24482905864715576,3.0383217334747314,0.06791462749242783
1761401169988584000,10.286583984375,-0.2531726658344269,2.909153938293457,-0.9634117484092712
1761401169998654200,10.296654296875,-0.2469274401664734,2.8768787384033203,-2.1257877349853516
1761401170008730400,10.30673046875,-0.21108824014663696,2.9458093643188477,-3.4178643226623535
1761401170018827300,10.3168271484375,-0.12208977341651917,2.949956178665161,-4.789013385772705
1761401170028908000,10.326907958984375,0.04236753284931183,3.000767230987549,-6.290746212005615
1761401170038987300,10.3369873046875,0.26461389660835266,3.1124982833862305,-7.892251968383789
1761401170049070800,10.34707080078125,0.4704728126525879,3.114912986755371,-9.538740158081055
1761401170059139300,10.357139404296875,0.5780237317085266,2.85845947265625,-11.318643569946289
1761401170069232000,10.367232177734374,0.7048598527908325,2.442561626434326,-13.029182434082031
1761401170079313200,10.377313232421875,0.9296209812164307,1.82633376121521,-14.498406410217285
1761401170089381600,10.387381591796874,1.375695824623108,1.081937551498413,-15.506017684936523
1761401170099473200,10.39747314453125,1.989975094795227,0.1811278760433197,-15.859180450439453
1761401170109556200,10.40755615234375,2.6401102542877197,-0.814042866230011,-15.234392166137695
1761401170119637800,10.4176376953125,3.322071075439453,-1.5470811128616333,-13.512262344360352
1761401170129718800,10.42771875,3.8655877113342285,-1.5734941959381104,-11.444046974182129
1761401170139799800,10.4377998046875,4.130218505859375,-1.0797392129898071,-9.869270324707031
1761401170149880600,10.447880615234375,4.071346759796143,-0.07637480646371841,-9.004965782165527
1761401170159952100,10.4579521484375,3.8427886962890625,1.0658499002456665,-8.720483779907227
1761401170170043000,10.46804296875,3.3776283264160156,1.735736608505249,-8.646074295043945
1761401170180124000,10.4781240234375,2.808481216430664,2.0644679069519043,-8.10678768157959
1761401170190205000,10.488204833984375,2.2713260650634766,2.1079347133636475,-6.762917518615723
1761401170200254000,10.49825390625,1.8355101346969604,1.9085874557495117,-4.757887363433838
1761401170210354200,10.508354248046874,1.4298542737960815,1.5480637550354004,-2.5367560386657715
1761401170220448000,10.518447998046875,1.029744267463684,1.1179100275039673,-0.6950673460960388
1761401170230525700,10.528525634765625,0.5631351470947266,0.8620061278343201,0.6160445809364319
1761401170240595200,10.53859521484375,0.05973755568265915,0.8422212600708008,1.5745600461959839
1761401170250689800,10.548689697265624,-0.45037153363227844,0.9496223330497742,2.4285888671875
1761401170260772000,10.558772216796875,-0.9132834672927856,1.162009596824646,3.2532403469085693
1761401170270853000,10.56885302734375,-1.2344707250595093,1.4047069549560547,3.946226119995117
1761401170280924700,10.578924560546875,-1.4425278902053833,1.551194667816162,4.472989082336426
1761401170290994200,10.588994140625,-1.5165212154388428,1.5759090185165405,4.833279609680176
1761401170301083600,10.599083740234375,-1.4893920421600342,1.4444597959518433,5.087484836578369
1761401170311165000,10.6091650390625,-1.429337978363037,1.182244062423706,5.245813369750977
1761401170321246000,10.619245849609374,-1.3704997301101685,0.9191623330116272,5.330781936645508
1761401170331326700,10.62932666015625,-1.345235824584961,0.6708526015281677,5.350999355316162
1761401170341420500,10.639420654296876,-1.386037826538086,0.360990047454834,5.2888970375061035
1761401170351501600,10.64950146484375,-1.4683414697647095,0.017303407192230225,5.138912200927734
1761401170361578500,10.65957861328125,-1.5620030164718628,-0.3119942545890808,4.892017841339111
1761401170371663400,10.669663330078125,-1.6349471807479858,-0.5675650835037231,4.558990001678467
1761401170381745200,10.6797451171875,-1.6913206577301025,-0.7575028538703918,4.170154571533203
1761401170391809000,10.68980908203125,-1.7617499828338623,-0.8990110754966736,3.7698445320129395
1761401170401907200,10.6999072265625,-1.8728148937225342,-0.9943879842758179,3.4048409461975098
1761401170411988200,10.70998828125,-2.0378715991973877,-1.0806385278701782,3.1511518955230713
1761401170422067200,10.720067138671874,-2.2610840797424316,-1.1548817157745361,3.0333755016326904
1761401170432137200,10.73013720703125,-2.540369987487793,-1.1789798736572266,3.0148730278015137
1761401170442231000,10.74023095703125,-2.8325295448303223,-1.068747639656067,3.070713520050049
1761401170452312000,10.75031201171875,-3.041086196899414,-0.8916001319885254,3.1914377212524414
1761401170462397400,10.7603974609375,-3.1020395755767822,-0.7441131472587585,3.3446204662323
1761401170472474400,10.770474365234374,-3.0262808799743652,-0.6857745051383972,3.499385118484497
1761401170482553300,10.78055322265625,-2.8488669395446777,-0.6246213316917419,3.651801586151123
1761401170492649700,10.790649658203124,-2.6106162071228027,-0.4056391716003418,3.7997548580169678
1761401170502717200,10.80071728515625,-2.3327457904815674,-0.10585221648216248,3.9249422550201416
1761401170512798700,10.810798828125,-2.0275628566741943,0.07970558851957321,3.9987356662750244
1761401170522854400,10.8208544921875,-1.9193958044052124,0.18712326884269714,4.0624871253967285
1761401170532960500,10.83096044921875,-1.9215441942214966,0.08963131904602051,4.106919765472412
1761401170543042800,10.841042724609375,-1.8781774044036865,-0.2037605196237564,4.172152996063232
1761401170553118000,10.851117919921874,-1.6462883949279785,-0.6132134199142456,4.1981329917907715
1761401170563203300,10.861203369140625,-1.435849666595459,-0.7158847451210022,4.191038608551025
1761401170573284400,10.871284423828126,-1.1031546592712402,-0.6084337830543518,4.224013328552246
1761401170583365000,10.881365234375,-0.7430805563926697,-0.30673161149024963,4.323120594024658
1761401170593447200,10.891447265625,-0.43939661979675293,-0.1530826985836029,4.403492450714111
1761401170603527700,10.901527587890625,-0.21526837348937988,-0.22602680325508118,4.428239822387695
1761401170613605400,10.91160546875,-0.04321688413619995,-0.39568012952804565,4.427090644836426
1761401170623689700,10.921689697265625,0.12310566753149033,-0.4252241551876068,4.466460704803467
1761401170633770500,10.9317705078125,0.3106619417667389,-0.2520734965801239,4.583037853240967
1761401170643852000,10.94185205078125,0.560703694820404,-0.052792876958847046,4.738219261169434
1761401170653904000,10.95190380859375,0.8647706508636475,0.07402660697698593,4.8682026863098145
1761401170663988700,10.96198876953125,1.1756324768066406,0.1627919226884842,4.963013648986816
1761401170674094800,10.9720947265625,1.3996940851211548,0.2134697586297989,4.99107551574707
1761401170684150800,10.98215087890625,1.3964298963546753,0.02166672982275486,4.87269926071167
1761401170694257000,10.9922568359375,1.1899714469909668,-0.11136466264724731,4.7258620262146
1761401170704338000,11.002337890625,0.8595913052558899,0.005645673722028732,4.563153266906738
1761401170714419700,11.012419677734375,0.4143158495426178,0.2975386679172516,4.343471527099609
1761401170724500000,11.0225,-0.05907139927148819,0.7023784518241882,4.07456111907959
1761401170734581000,11.0325810546875,-0.48516154289245605,1.1580625772476196,3.7814688682556152
1761401170744662800,11.042662841796876,-0.8319458365440369,1.6336147785186768,3.480682849884033
1761401170754719500,11.052719482421875,-1.0871835947036743,2.0976924896240234,3.156747579574585
1761401170764824300,11.06282421875,-1.2670457363128662,2.5095603466033936,2.7750067710876465
1761401170774879700,11.072879638671875,-1.3868871927261353,2.7458791732788086,2.3393073081970215
1761401170784986400,11.082986328125,-1.4527866840362549,2.868351936340332,1.8687180280685425
1761401170795089000,11.0930888671875,-1.4406126737594604,2.897313117980957,1.3756458759307861
1761401170805149200,11.103149169921876,-1.3480336666107178,2.8509321212768555,0.8782269954681396
1761401170815230500,11.11323046875,-1.243630290031433,2.7357869148254395,0.3744630515575409
1761401170825285400,11.123285400390625,-1.1705363988876343,2.5756263732910156,-0.16087672114372253
1761401170835392000,11.13339208984375,-1.1124475002288818,2.440030097961426,-0.7409655451774597
1761401170845449700,11.14344970703125,-1.0803221464157104,2.338491439819336,-1.3244184255599976
1761401170855553800,11.1535537109375,-1.1241718530654907,2.214686155319214,-1.8702834844589233
1761401170865612500,11.163612548828125,-1.2605007886886597,1.934867262840271,-2.3546621799468994
1761401170875715800,11.1737158203125,-1.3785436153411865,1.543217420578003,-2.8288488388061523
1761401170885797000,11.183797119140625,-1.3877699375152588,1.1335480213165283,-3.411086082458496
1761401170895856600,11.193856689453124,-1.2824339866638184,0.884289026260376,-4.133982181549072
1761401170905959400,11.20395947265625,-1.0766416788101196,0.5148554444313049,-4.943911552429199
1761401170916039400,11.214039306640625,-0.7849651575088501,-0.06868070363998413,-5.7931108474731445
1761401170926121200,11.224121337890624,-0.4354996085166931,-0.7522568702697754,-6.701697826385498
1761401170936202000,11.234201904296874,-0.02826167643070221,-1.2941749095916748,-7.794893264770508
1761401170946258000,11.2442578125,0.47966575622558594,-1.4538859128952026,-9.117829322814941
1761401170956364300,11.2543642578125,1.0091933012008667,-1.4434605836868286,-10.5899019241333
1761401170966445000,11.264445068359375,1.5479638576507568,-1.4950376749038696,-12.07394790649414
1761401170976526800,11.27452685546875,2.0691311359405518,-1.496436595916748,-13.420598983764648
1761401170986607400,11.284607421875,2.476252555847168,-1.1301839351654053,-14.568086624145508
1761401170996688400,11.2946884765625,2.5656838417053223,-0.8147423267364502,-15.523571014404297
1761401171006769400,11.304769287109375,2.263831853866577,-0.5350067019462585,-16.01374626159668
1761401171016850400,11.314850341796875,1.6820111274719238,-0.25412192940711975,-15.8545503616333
1761401171026891500,11.3248916015625,1.1622593402862549,0.4576992690563202,-14.758740425109863
1761401171037012500,11.335012451171876,0.9073880314826965,1.2008631229400635,-12.803238868713379
1761401171047094300,11.34509423828125,0.7379012107849121,1.5011329650878906,-10.14645767211914
1761401171057174800,11.3551748046875,0.6922528743743896,1.5698469877243042,-7.1996660232543945
1761401171067256300,11.36525634765625,0.6870901584625244,1.4326355457305908,-4.859143257141113
1761401171087392800,11.385392822265626,0.5744597911834717,2.0459487438201904,-2.503464937210083
1761401171097499000,11.395498779296876,0.41513189673423767,2.4464919567108154,-1.650185465812683
1761401171107580000,11.405579833984374,0.3324452340602875,2.6224238872528076,-0.4997004270553589
1761401171117661000,11.415660888671875,0.32521745562553406,2.5051803588867188,0.9575662016868591
1761401171127741700,11.42574169921875,0.3347601294517517,2.2616002559661865,2.507312059402466
1761401171137823000,11.435822998046875,0.2933751940727234,1.9865111112594604,3.8731820583343506
1761401171147914000,11.4459140625,0.14255742728710175,1.7149025201797485,4.958366870880127
1761401171157989000,11.455989013671875,-0.0902475118637085,1.4779008626937866,5.789530277252197
1761401171168076000,11.466075927734375,-0.3586251735687256,1.2792030572891235,6.395282745361328
1761401171178122800,11.476122802734375,-0.6462214589118958,1.1114150285720825,6.775657653808594
1761401171188209000,11.486208984375,-0.9017756581306458,0.9872767925262451,6.935518741607666
1761401171198284500,11.496284423828126,-1.0924961566925049,0.8548116087913513,6.8668212890625
1761401171208360700,11.506360595703125,-1.187256932258606,0.6874731779098511,6.6456074714660645
1761401171218471700,11.5164716796875,-1.1851418018341064,0.4211272895336151,6.400395393371582
1761401171228552700,11.526552734375,-1.1433905363082886,0.08118778467178345,6.191505432128906
1761401171238633500,11.536633544921875,-1.040436029434204,-0.2270093709230423,6.046133518218994
1761401171248709000,11.546709228515626,-0.918246328830719,-0.4806983172893524,6.004631996154785
1761401171258795500,11.55679541015625,-0.8286483287811279,-0.6792961359024048,6.02701473236084
1761401171268876800,11.566876708984376,-0.7602341175079346,-0.8342107534408569,6.07937479019165
1761401171278958000,11.5769580078125,-0.6949508190155029,-0.8504316210746765,6.120659828186035
1761401171289038600,11.58703857421875,-0.6265864968299866,-0.7766215205192566,6.1041059494018555
1761401171299119900,11.597119873046875,-0.5482965111732483,-0.7062255144119263,6.030012607574463
1761401171309200600,11.60720068359375,-0.4315526485443115,-0.6762151718139648,5.91388463973999
1761401171319277800,11.61727783203125,-0.2954069674015045,-0.5858177542686462,5.799955368041992
1761401171329337900,11.627337890625,-0.19593319296836853,-0.496036559343338,5.685226917266846
1761401171339444000,11.63744384765625,-0.22995711863040924,-0.17871305346488953,5.595362186431885
1761401171349525000,11.64752490234375,-0.3241182863712311,-0.36297184228897095,5.433919429779053
1761401171359605800,11.657605712890625,-0.3197716176509857,-0.6697368025779724,5.279054641723633
1761401171369687000,11.66768701171875,-0.1811944842338562,-0.7997371554374695,5.156315326690674
1761401171379764200,11.67776416015625,0.0001498851488577202,-0.791610062122345,5.017938137054443
1761401171389849000,11.68784912109375,0.14588820934295654,-1.0169873237609863,4.81797456741333
1761401171399930000,11.69793017578125,0.21741673350334167,-1.3687012195587158,4.591165065765381
1761401171410011000,11.708010986328125,0.23691844940185547,-1.4900914430618286,4.428506374359131
1761401171420092700,11.7180927734375,0.2046598345041275,-1.4227763414382935,4.353580474853516
1761401171430173700,11.728173583984375,0.10490294545888901,-1.3962301015853882,4.343937873840332
1761401171440250400,11.73825048828125,-0.006694869603961706,-1.273290991783142,4.361374378204346
1761401171450335700,11.748335693359374,-0.0663658082485199,-0.9567335247993469,4.379960536956787
1761401171460416300,11.758416259765625,-0.06529995799064636,-0.5310430526733398,4.381509304046631
1761401171470498300,11.768498291015625,0.026229899376630783,-0.05184360593557358,4.348384380340576
1761401171480578300,11.778578369140625,0.20617534220218658,0.33396074175834656,4.267346382141113
1761401171490631700,11.788631591796875,0.45383554697036743,0.7056925892829895,4.134648323059082
1761401171500741400,11.798741455078124,0.7433303594589233,1.0203014612197876,3.956434965133667
1761401171510818000,11.808818115234375,1.0425177812576294,1.1916534900665283,3.7571375370025635
1761401171520903200,11.818903076171875,1.3112452030181885,1.2859978675842285,3.5472817420959473
1761401171530984200,11.828984130859375,1.4828970432281494,1.3180732727050781,3.330198049545288
1761401171541064700,11.839064697265625,1.4726215600967407,1.1066852807998657,3.110299825668335
1761401171551146200,11.849146240234376,1.2606173753738403,0.545731782913208,2.887637138366699
1761401171561227000,11.85922705078125,0.8093298077583313,-0.41093510389328003,2.66843843460083
1761401171571304000,11.869303955078125,0.1443393975496292,-1.3822574615478516,2.4772849082946777
1761401171581389600,11.8793896484375,-0.4951871931552887,-0.9217270016670227,2.1097166538238525
1761401171601551400,11.89955126953125,-1.518519639968872,0.7263933420181274,0.4181462526321411
1761401171611632600,11.909632568359376,-1.8244186639785767,1.097908616065979,-0.5139394998550415
1761401171621713700,11.919713623046874,-1.8748300075531006,1.2033611536026,-1.195833683013916
1761401171631794200,11.929794189453125,-1.704044222831726,1.1417750120162964,-1.637894868850708
1761401171641871600,11.93987158203125,-1.3849387168884277,1.0178699493408203,-1.9303208589553833
1761401171651956500,11.94995654296875,-0.987126886844635,0.8233024477958679,-2.1623597145080566
1761401171662015000,11.960014892578124,-0.5812046527862549,0.5655499696731567,-2.3843395709991455
1761401171672093200,11.97009326171875,-0.19901415705680847,0.3098958730697632,-2.6153624057769775
1761401171682174200,11.98017431640625,0.1507844477891922,0.12075746059417725,-2.8901352882385254
1761401171692255200,11.990255126953125,0.46857425570487976,0.029710566624999046,-3.248910427093506
1761401171702336300,12.000336181640625,0.7258937358856201,-0.07938916236162186,-3.736769914627075
1761401171712418300,12.010418212890626,0.879692554473877,-0.2727576494216919,-4.408954620361328
1761401171722507800,12.0205078125,0.8757622241973877,-0.5632350444793701,-5.295125484466553
1761401171732588000,12.030588134765624,0.7779039144515991,-0.6522335410118103,-6.269145965576172
1761401171742669600,12.040669677734375,0.6785467267036438,-0.4782501757144928,-7.194503307342529
1761401171752766700,12.0507666015625,0.5978085398674011,-0.3237352669239044,-8.063787460327148
1761401171762843100,12.060843017578126,0.5941946506500244,-0.28661370277404785,-8.862225532531738
1761401171772928800,12.0709287109375,0.6854247450828552,-0.23418721556663513,-9.551963806152344
1761401171783009800,12.081009765625,0.8240851759910583,-0.13684514164924622,-10.15043830871582
1761401171793090800,12.0910908203125,0.9566003084182739,0.051710374653339386,-10.699784278869629
1761401171803172000,12.101172119140625,1.0076777935028076,0.40552258491516113,-11.15043830871582
1761401171813253600,12.111253662109375,0.9733874201774597,0.6878562569618225,-11.418600082397461
1761401171823334000,12.121333984375,0.9005432724952698,0.8763951063156128,-11.463532447814941
1761401171833390000,12.13139013671875,0.855277955532074,1.1259205341339111,-11.290731430053711
1761401171843496200,12.14149609375,0.860973596572876,1.597642421722412,-10.942331314086914
1761401171853577700,12.15157763671875,0.8877696990966797,2.292093515396118,-10.478687286376953
1761401171863658000,12.161657958984375,0.8804419636726379,2.8638386726379395,-10.018956184387207
1761401171873703000,12.171702880859375,0.809313178062439,2.9157490730285645,-9.588934898376465
1761401171883820000,12.181820068359375,0.7767547965049744,2.640526533126831,-9.058375358581543
1761401171893897500,12.1918974609375,0.9063054919242859,2.5077450275421143,-8.198984146118164
1761401171903959800,12.201959716796875,1.1645076274871826,2.637112617492676,-6.856878757476807
1761401171914063600,12.212063720703124,1.3905011415481567,2.682910680770874,-5.2171854972839355
1761401171924115000,12.222114990234376,1.4589653015136719,2.6395440101623535,-3.5390214920043945
1761401171934225400,12.232225341796875,1.3725649118423462,2.685342311859131,-1.9803824424743652
1761401171944306700,12.242306640625,1.211188554763794,2.8083980083465576,-0.5749094486236572
1761401171954377000,12.252376953125,1.0389539003372192,2.8851890563964844,0.7093397974967957
1761401171964464400,12.26246435546875,0.911668062210083,2.8133606910705566,1.9147326946258545
1761401171974525700,12.272525634765625,0.8315461277961731,2.576242446899414,3.0502126216888428
1761401171984631300,12.28263134765625,0.7757222056388855,2.156747341156006,4.087601184844971
1761401171994711800,12.2927119140625,0.7368020415306091,1.6738007068634033,4.930871486663818
1761401172004756200,12.302756103515625,0.6902377605438232,1.097375750541687,5.457367897033691
1761401172014853600,12.312853515625,0.6383441686630249,0.4508378505706787,5.618910789489746
1761401172024952300,12.322952392578125,0.6690539717674255,-0.0873330757021904,5.480050563812256
1761401172035036000,12.333035888671875,0.6341474056243896,-0.46947357058525085,5.163859844207764
1761401172045117000,12.343116943359375,0.5091098546981812,-0.671968400478363,4.759919166564941
1761401172055198500,12.353198486328125,0.2792360186576843,-0.7183662056922913,4.296823978424072
1761401172065263900,12.363263916015624,0.07605838030576706,-0.7345704436302185,3.77255916595459
1761401172075351300,12.373351318359376,-0.06040371209383011,-0.8363924026489258,3.23553729057312
1761401172085441500,12.383441650390624,-0.16447396576404572,-1.0850352048873901,2.721264600753784
1761401172095522000,12.39352197265625,-0.2467276006937027,-1.408021092414856,2.2556049823760986
1761401172105578000,12.403577880859375,-0.343903124332428,-1.779436469078064,1.8564940690994263
1761401172115684000,12.41368408203125,-0.4678248465061188,-2.185058832168579,1.541651964187622
1761401172125743400,12.423743408203125,-0.6162278056144714,-2.600940227508545,1.323419213294983
1761401172135826000,12.433825927734375,-0.7830499410629272,-2.9946718215942383,1.1839760541915894
1761401172145942300,12.4439423828125,-0.952420175075531,-3.3539798259735107,1.0973424911499023
1761401172156009700,12.454009765625,-1.1178933382034302,-3.658846139907837,1.0578893423080444
1761401172166064600,12.464064697265625,-1.2519406080245972,-3.879993438720703,1.06027090549469
1761401172176170500,12.47417041015625,-1.339939832687378,-4.052477836608887,1.0838861465454102
1761401172186251500,12.48425146484375,-1.3902679681777954,-4.176782608032227,1.1058026552200317
1761401172196359000,12.49435888671875,-1.4133669137954712,-4.167839527130127,1.144789457321167
1761401172206367500,12.504367431640626,-1.4501221179962158,-4.095911502838135,1.2244117259979248
1761401172216470300,12.51447021484375,-1.4651272296905518,-3.8189902305603027,1.4162647724151611
1761401172226576000,12.524575927734375,-1.4434106349945068,-3.444760322570801,1.7266602516174316
1761401172236657200,12.5346572265625,-1.415282130241394,-3.068814992904663,2.0887160301208496
1761401172246716400,12.54471630859375,-1.3347605466842651,-2.638244867324829,2.473637819290161
1761401172256778800,12.55477880859375,-1.2004966735839844,-2.224561929702759,2.9160654544830322
1761401172266921500,12.56492138671875,-1.0426011085510254,-1.855578064918518,3.4311373233795166
1761401172276981200,12.574981201171875,-0.900759756565094,-1.515222191810608,4.002366542816162
1761401172287062500,12.5850625,-0.7963564395904541,-1.1931023597717285,4.603455543518066
1761401172297100300,12.595100341796876,-0.7327718138694763,-0.8428374528884888,5.219017505645752
1761401172307224600,12.605224609375,-0.7147523164749146,-0.4996504485607147,5.83191442489624
1761401172317304800,12.615304931640624,-0.740699052810669,-0.16687212884426117,6.411553382873535
1761401172327385900,12.6253857421875,-0.8037840723991394,0.15927794575691223,6.934203147888184
1761401172337442000,12.635442138671875,-0.8952639698982239,0.4022917151451111,7.377213478088379
1761401172347548200,12.645548095703125,-0.9913070201873779,0.5168372988700867,7.73755407333374
1761401172357629400,12.65562939453125,-1.0542588233947754,0.5386039614677429,8.001551628112793
1761401172367710200,12.665710205078126,-1.0543420314788818,0.5490792393684387,8.162161827087402
1761401172377791200,12.675791259765624,-0.9730709791183472,0.58833247423172,8.227312088012695
1761401172387872500,12.68587255859375,-0.8375914692878723,0.6615930199623108,8.215703964233398
1761401172397953800,12.695953857421875,-0.6906207799911499,0.7007297277450562,8.13105297088623
1761401172408031700,12.70603173828125,-0.5545916557312012,0.638893723487854,7.9560699462890625
1761401172418111500,12.716111572265625,-0.4316025972366333,0.500732958316803,7.677666664123535
1761401172428172800,12.7261728515625,-0.3079473674297333,0.3517804443836212,7.2807207107543945
1761401172438278700,12.736278564453125,-0.15336580574512482,0.2699264883995056,6.74196720123291
1761401172448359400,12.746359375,0.03735470771789551,0.23168912529945374,6.035175323486328
1761401172458439700,12.756439697265625,0.23948314785957336,0.305382639169693,5.173252582550049
1761401172468516600,12.7665166015625,0.42121055722236633,0.4579823911190033,4.186675071716309
1761401172478601700,12.776601806640626,0.5603705644607544,0.652000367641449,3.1126813888549805
1761401172488682800,12.786682861328124,0.6495189666748047,0.8178732395172119,1.999850869178772
1761401172498764800,12.796764892578125,0.6734006404876709,0.869816780090332,0.8592915534973145
1761401172508844800,12.8068447265625,0.5823370814323425,0.8234689831733704,-0.2668621838092804
1761401172518925800,12.81692578125,0.46502697467803955,0.7578192949295044,-1.3484833240509033
1761401172529002800,12.827002685546875,0.38533803820610046,0.7110884189605713,-2.340273380279541
1761401172539088600,12.837088623046874,0.38707005977630615,0.6167607307434082,-3.1962506771087646
1761401172549169400,12.84716943359375,0.4790828824043274,0.5024150013923645,-3.8942158222198486
1761401172559250000,12.85725,0.630949854850769,0.3511642515659332,-4.4418463706970215
1761401172569331000,12.8673310546875,0.8200216293334961,0.1641242355108261,-4.8675031661987305
1761401172579412700,12.877412841796875,1.0248479843139648,-0.04288380593061447,-5.19746732711792
1761401172589493000,12.887492919921876,1.2290081977844238,-0.21873238682746887,-5.465928077697754
1761401172599570700,12.89757080078125,1.427905797958374,-0.38124120235443115,-5.702929973602295
1761401172609655000,12.907655029296874,1.6131970882415771,-0.4775007665157318,-5.921012878417969
1761401172619736600,12.917736572265625,1.7909109592437744,-0.4539021849632263,-6.118777751922607
1761401172629817300,12.9278173828125,1.9339513778686523,-0.3464178740978241,-6.315194129943848
1761401172639899000,12.93789892578125,2.046715021133423,-0.09977354109287262,-6.524433612823486
1761401172649979400,12.9479794921875,2.1570804119110107,0.31452563405036926,-6.763750076293945
1761401172660056600,12.958056640625,2.2571704387664795,0.7872300744056702,-7.067734241485596
1761401172670141400,12.968141357421874,2.35248064994812,1.2966563701629639,-7.450807094573975
