time,seconds_elapsed,z,y,x
1761315798769774000,0.213774169921875,0.05253243446350098,0.00445556640625,-0.01976466178894043
1761315798788696800,0.23269677734375,-0.009682416915893555,0.011972427368164062,-0.006753683090209961
1761315798807619300,0.251619384765625,0.01902318000793457,-0.07329177856445312,0.01593303680419922
1761315798826542000,0.2705419921875,0.019574880599975586,-0.05117607116699219,-0.022927284240722656
1761315798845464800,0.28946484375,-0.029605865478515625,-0.03342247009277344,-0.05948472023010254
1761315798864387300,0.30838720703125,-0.02237987518310547,-0.020501136779785156,0.04734468460083008
1761315798883310000,0.32731005859375,0.05550551414489746,0.01944255828857422,-0.05267333984375
1761315798902232800,0.34623291015625,0.11524605751037598,-0.0039997100830078125,-0.06034374237060547
1761315798921155600,0.365155517578125,0.04775214195251465,0.030091285705566406,-0.03602862358093262
1761315798940078300,0.384078369140625,0.013742208480834961,0.10139751434326172,-0.04826068878173828
1761315798959000800,0.403000732421875,0.025439023971557617,0.0970001220703125,-0.06676530838012695
1761315798977923600,0.421923583984375,0.02385115623474121,0.06282329559326172,-0.002792835235595703
1761315798996846300,0.440846435546875,-0.009943962097167969,-0.048801422119140625,0.03799009323120117
1761315799015769000,0.45976904296875,-0.010173559188842773,-0.045105934143066406,0.09209585189819336
1761315799034691600,0.478691650390625,0.029050827026367188,-0.06212615966796875,0.08616757392883301
1761315799053614300,0.4976142578125,0.011703968048095703,-0.08121871948242188,0.09521985054016113
1761315799072537000,0.516537109375,0.004375457763671875,-0.060471534729003906,0.11302328109741211
1761315799091459800,0.5354599609375,0.028609514236450195,-0.018899917602539062,0.07550406455993652
1761315799110382300,0.55438232421875,0.02859330177307129,-0.009770393371582031,0.008521556854248047
1761315799129305000,0.57330517578125,0.019235849380493164,0.006449699401855469,-0.020963430404663086
1761315799148227800,0.592227783203125,-0.018666982650756836,-0.02189159393310547,0.034013986587524414
1761315799167150600,0.611150634765625,-0.05059218406677246,-0.06265068054199219,0.04413199424743652
1761315799186073300,0.6300732421875,-0.027944564819335938,-0.03005218505859375,0.05414700508117676
1761315799204995800,0.648995849609375,-0.035924434661865234,-0.00023174285888671875,0.06581640243530273
1761315799223918600,0.667918701171875,-0.05327033996582031,0.012439727783203125,0.0597529411315918
1761315799242841300,0.68684130859375,-0.02117753028869629,-0.019315719604492188,0.03525257110595703
1761315799261764000,0.70576416015625,-0.032704830169677734,0.0015125274658203125,0.009790420532226562
1761315799280686800,0.724686767578125,-0.03761649131774902,-0.019188880920410156,0.05388188362121582
1761315799299609300,0.743609375,0.02254486083984375,0.018606185913085938,0.10116910934448242
1761315799318532000,0.762531982421875,0.0018105506896972656,-0.07817649841308594,0.04555463790893555
1761315799337454800,0.781454833984375,0.22191452980041504,-0.07139301300048828,-0.07010579109191895
1761315799356377600,0.800377685546875,-0.05815601348876953,-0.1269388198852539,-0.0697028636932373
1761315799375300400,0.81930029296875,-0.036093950271606445,0.1639089584350586,-0.022908926010131836
1761315799394222800,0.838222900390625,0.0269014835357666,0.037830352783203125,-0.016370534896850586
1761315799413145600,0.8571455078125,0.07796669006347656,0.01958751678466797,0.040085792541503906
1761315799432068400,0.876068359375,0.06579327583312988,-0.0725555419921875,0.06262993812561035
1761315799450991000,0.8949912109375,-0.006635189056396484,-0.06540966033935547,0.08002710342407227
1761315799469913900,0.913913818359375,0.0005681514739990234,0.015252113342285156,0.07111239433288574
1761315799488836400,0.93283642578125,0.03828024864196777,0.034462928771972656,0.0841360092163086
1761315799507759000,0.951759033203125,0.07461261749267578,-0.0218658447265625,0.11389970779418945
1761315799526681900,0.970681884765625,0.01581740379333496,-0.03490734100341797,0.046845197677612305
1761315799545604600,0.9896044921875,0.01545405387878418,-0.051749229431152344,0.016014575958251953
1761315799564527400,1.00852734375,0.06623625755310059,-0.13055038452148438,-0.06334400177001953
1761315799583450000,1.0274501953125,0.03504300117492676,-0.039750099182128906,-0.03664660453796387
1761315799602372600,1.04637255859375,0.030219316482543945,0.12256717681884766,0.013272762298583984
1761315799621295400,1.06529541015625,-0.027198076248168945,0.14930343627929688,0.04819607734680176
1761315799640218000,1.084218017578125,-0.007035970687866211,0.10963249206542969,0.04063892364501953
1761315799659140900,1.103140869140625,0.06629657745361328,0.02413463592529297,0.02630019187927246
1761315799678063600,1.122063720703125,0.09808731079101562,-0.03574085235595703,-0.11493587493896484
1761315799696986400,1.140986328125,0.07865476608276367,-0.04340648651123047,-0.17078423500061035
1761315799715909000,1.1599091796875,0.05066084861755371,0.04589366912841797,-0.1694636344909668
1761315799734831600,1.17883154296875,0.015372753143310547,0.1067361831665039,-0.03583574295043945
1761315799753754400,1.19775439453125,0.016747236251831055,0.08332347869873047,0.12678265571594238
1761315799772677000,1.216677001953125,0.04279494285583496,0.03336048126220703,0.12506484985351562
1761315799791599900,1.235599853515625,0.031667470932006836,-0.02041339874267578,0.07361221313476562
1761315799810522600,1.254522705078125,0.04181694984436035,-0.06843852996826172,0.09598970413208008
1761315799829445400,1.2734453125,0.03855538368225098,-0.07928180694580078,0.134080171585083
1761315799848368000,1.2923681640625,0.01595902442932129,-0.03673553466796875,0.1721794605255127
1761315799867290600,1.31129052734375,0.03292059898376465,0.008630752563476562,0.19521403312683105
1761315799886213400,1.33021337890625,0.029169082641601562,-0.031240463256835938,0.16535210609436035
1761315799905136000,1.34913623046875,-0.0066564083099365234,-0.10096931457519531,0.0907297134399414
1761315799924059000,1.368058837890625,0.05976080894470215,-0.08515739440917969,0.11578512191772461
1761315799942981600,1.386981689453125,0.11499404907226562,-0.11475467681884766,-0.026851654052734375
1761315799961904400,1.405904296875,0.06323051452636719,-0.0014553070068359375,-0.01838374137878418
1761315799980827100,1.4248271484375,0.025285005569458008,0.098876953125,-0.009774446487426758
1761315799999750000,1.44375,-0.0002541542053222656,0.11886787414550781,0.03545713424682617
1761315800018672600,1.462672607421875,0.0159759521484375,0.07460689544677734,0.08312010765075684
1761315800037595400,1.481595458984375,0.018346309661865234,0.004897117614746094,0.11399507522583008
1761315800056518100,1.50051806640625,-0.0020694732666015625,0.008994102478027344,0.13049530982971191
1761315800075440600,1.519440673828125,-0.013811588287353516,0.018846511840820312,0.09217023849487305
1761315800094363400,1.53836328125,0.12806105613708496,0.22571086883544922,0.29027318954467773
1761315800113286100,1.5572861328125,-0.05430150032043457,0.040450096130371094,0.11548471450805664
1761315800132209000,1.576208984375,0.06601834297180176,0.2233133316040039,0.21418976783752441
1761315800151131600,1.595131591796875,0.1165776252746582,0.2835512161254883,0.18478059768676758
1761315800170054400,1.614054443359375,0.10031652450561523,-0.015642166137695312,0.07167434692382812
1761315800188977200,1.63297705078125,0.12987875938415527,-0.05867290496826172,-0.21662545204162598
1761315800207900000,1.65189990234375,0.27521562576293945,-0.1872234344482422,-0.23614215850830078
1761315800226822700,1.67082275390625,0.14595556259155273,-0.2833137512207031,-0.21001887321472168
1761315800245745400,1.689745361328125,0.15889835357666016,-0.20795917510986328,-0.10214853286743164
1761315800264668200,1.708668212890625,0.14857959747314453,-0.03270244598388672,-0.0857858657836914
1761315800283591000,1.7275908203125,0.11710762977600098,0.18094825744628906,0.03369283676147461
1761315800302513700,1.746513671875,0.2555556297302246,0.48199462890625,-0.02129960060119629
1761315800321436200,1.765436279296875,0.13930487632751465,0.750828742980957,-0.11555600166320801
1761315800340359000,1.78435888671875,-0.155015230178833,0.45835399627685547,-0.046196937561035156
1761315800359281700,1.80328173828125,0.018045902252197266,0.14567852020263672,0.0029876232147216797
1761315800378204400,1.822204345703125,0.09575915336608887,0.13092517852783203,0.06203484535217285
1761315800397127200,1.841127197265625,0.04317617416381836,0.22279930114746094,-0.13010382652282715
1761315800416050000,1.8600498046875,-0.006478786468505859,0.25332164764404297,-0.3514437675476074
1761315800434972700,1.87897265625,0.19365143775939941,0.30954742431640625,-0.30817675590515137
1761315800453895400,1.8978955078125,0.09438276290893555,0.21096515655517578,-0.0030775070190429688
1761315800472818200,1.916818115234375,0.17571067810058594,0.7502288818359375,0.20592784881591797
1761315800491741000,1.935740966796875,0.3055415153503418,1.2592120170593262,0.6911051273345947
1761315800510663700,1.95466357421875,0.23304176330566406,1.2072348594665527,0.8517765998840332
1761315800529586400,1.97358642578125,-0.14087820053100586,0.9796323776245117,0.5836670398712158
1761315800548509200,1.99250927734375,0.08173060417175293,0.9581422805786133,0.5746212005615234
1761315800567432000,2.011431884765625,0.5081443786621094,0.7449769973754883,0.0550997257232666
1761315800586354700,2.030354736328125,0.7298133373260498,1.937647819519043,0.07307648658752441
1761315800605277400,2.04927734375,-0.22744178771972656,3.7731471061706543,1.136183500289917
1761315800624200200,2.0682001953125,-0.25164794921875,4.209298610687256,1.577064871788025
1761315800643123000,2.087123046875,-0.9268035888671875,4.619761943817139,0.2504774332046509
1761315800662045700,2.106045654296875,0.14522767066955566,3.0922999382019043,-0.4424152374267578
1761315800680968400,2.124968505859375,2.045139789581299,1.3632431030273438,-0.3412984013557434
1761315800699891200,2.14389111328125,1.9268321990966797,1.168715000152588,-0.4618200659751892
1761315800718814000,2.16281396484375,4.084148406982422,-2.3962783813476562,-0.9025540351867676
1761315800737736700,2.18173681640625,1.826509952545166,-4.804544448852539,-2.9826772212982178
1761315800756659500,2.200659423828125,0.5669748783111572,-3.6541805267333984,-6.197676181793213
1761315800775582200,2.219582275390625,3.4117162227630615,-3.0461549758911133,-6.615302085876465
1761315800794505000,2.2385048828125,-2.924778461456299,-1.0711898803710938,1.110002875328064
1761315800813427700,2.257427734375,-6.549136161804199,0.5834178924560547,0.8445600271224976
1761315800832350500,2.2763505859375,1.000227451324463,-2.9862060546875,1.2014174461364746
1761315800851273200,2.295273193359375,2.6667113304138184,-9.017062187194824,3.213301658630371
1761315800870196000,2.314196044921875,0.24133801460266113,-14.338519096374512,1.6839616298675537
1761315800889118700,2.33311865234375,-0.8124852180480957,-16.941146850585938,1.474405288696289
1761315800908041500,2.35204150390625,-1.728800654411316,-14.691239356994629,1.5828258991241455
1761315800926964200,2.370964111328125,-3.913435220718384,-9.955681800842285,0.4728168845176697
1761315800945887000,2.389886962890625,-3.298098087310791,-7.24744987487793,-0.12907594442367554
1761315800964809700,2.408809814453125,-2.0689189434051514,-4.225044250488281,0.9126169085502625
1761315800983732500,2.427732421875,0.5439857244491577,0.4687995910644531,1.8385045528411865
1761315801002655200,2.4466552734375,0.42100536823272705,4.95634651184082,2.510702610015869
1761315801021578000,2.465577880859375,-0.4984537959098816,8.25858211517334,2.856658935546875
1761315801040500700,2.484500732421875,0.84651780128479,9.615324020385742,1.7238963842391968
1761315801059423500,2.503423583984375,1.8692703247070312,9.966941833496094,-0.9489641785621643
1761315801078346500,2.522346435546875,1.5326879024505615,9.998485565185547,-4.1401286125183105
1761315801097269200,2.541269287109375,2.555300235748291,9.57302474975586,-6.813371181488037
1761315801116192000,2.56019189453125,3.8103413581848145,8.776008605957031,-7.946977615356445
1761315801135114800,2.57911474609375,3.31103777885437,7.94251823425293,-5.619174003601074
1761315801154037500,2.59803759765625,0.916413426399231,7.536012649536133,-3.047327995300293
1761315801172960300,2.616960205078125,-1.9905688762664795,7.398932456970215,-1.7377607822418213
1761315801191883000,2.635883056640625,-3.820951461791992,7.807424068450928,-0.5702799558639526
1761315801210805800,2.6548056640625,-4.65976619720459,8.744341850280762,-0.7354474663734436
1761315801229728500,2.673728515625,-3.746018648147583,7.716185092926025,0.17006853222846985
1761315801248651300,2.6926513671875,-2.2345383167266846,7.477327346801758,1.4714696407318115
1761315801267574000,2.711573974609375,16.44857406616211,2.1926732063293457,4.495699405670166
1761315801286496800,2.730496826171875,3.6517391204833984,-6.1093950271606445,2.0838677883148193
1761315801305419500,2.74941943359375,-10.823261260986328,-11.724628448486328,-2.5161848068237305
1761315801324342500,2.768342529296875,3.3636977672576904,-21.027982711791992,-1.2430952787399292
1761315801343265300,2.787265380859375,5.700250148773193,-19.099609375,1.5801585912704468
1761315801362188000,2.80618798828125,14.127137184143066,-19.82878303527832,-4.7370452880859375
1761315801381110800,2.82511083984375,6.3804931640625,-20.584976196289062,-2.3759520053863525
1761315801400033500,2.844033447265625,0.023058652877807617,-11.867086410522461,0.3161904811859131
1761315801418956300,2.862956298828125,1.1059911251068115,-10.737661361694336,0.2945738434791565
1761315801437879000,2.881879150390625,-1.3789914846420288,-12.195676803588867,2.4568495750427246
1761315801456801800,2.9008017578125,-3.1817307472229004,-8.882678031921387,1.643243670463562
1761315801475724500,2.919724609375,-1.6323355436325073,-3.565567970275879,0.5743767023086548
1761315801494647600,2.9386474609375,0.21068620681762695,1.8482189178466797,0.22639042139053345
1761315801513570300,2.9575703125,0.3979264497756958,6.375086784362793,-0.19569262862205505
1761315801532493000,2.9764931640625,1.0973321199417114,9.239638328552246,-0.014083802700042725
1761315801551415800,2.995415771484375,2.2104146480560303,11.122224807739258,-1.2906607389450073
1761315801570338600,3.014338623046875,2.6584959030151367,11.731914520263672,-3.2333526611328125
1761315801589261300,3.03326123046875,2.074162006378174,10.563660621643066,-4.287410736083984
1761315801608184000,3.05218408203125,1.2307462692260742,8.901803970336914,-4.495426654815674
1761315801627106800,3.07110693359375,1.5838801860809326,7.493953704833984,-4.751956939697266
1761315801646029800,3.09002978515625,2.1896355152130127,7.308652877807617,-4.217779159545898
1761315801664952600,3.10895263671875,0.7352355718612671,8.385400772094727,-3.431682586669922
1761315801683875300,3.127875244140625,-1.5404547452926636,9.461775779724121,-3.0529932975769043
1761315801702798000,3.146798095703125,-2.685533046722412,9.85659408569336,-1.682968020439148
1761315801721720800,3.165720947265625,-3.9889235496520996,9.6446533203125,-0.6423231363296509
1761315801740643600,3.1846435546875,-4.62996768951416,9.46472454071045,-0.261466383934021
1761315801759566300,3.20356640625,-4.670210361480713,9.62936019897461,-0.3253568708896637
1761315801778489300,3.2224892578125,-4.022190093994141,8.942383766174316,-0.07942643761634827
1761315801797412000,3.241412109375,0.7291786670684814,6.475150108337402,0.18480564653873444
1761315801816334800,3.2603349609375,11.067547798156738,1.574209213256836,1.904517650604248
1761315801835257600,3.279257568359375,2.092674732208252,-4.097414016723633,0.8850919008255005
1761315801854180400,3.298180419921875,-3.5404229164123535,-10.514140129089355,-1.8625521659851074
1761315801873103400,3.317103271484375,6.608917713165283,-22.417984008789062,-3.1422996520996094
1761315801892026000,3.336026123046875,2.263472557067871,-22.019649505615234,-1.1701147556304932
1761315801910948900,3.354948974609375,10.29334545135498,-16.106613159179688,-3.9157238006591797
1761315801929871600,3.37387158203125,7.616649627685547,-18.471561431884766,-5.047666072845459
1761315801948794400,3.39279443359375,2.3938043117523193,-15.676371574401855,1.1275042295455933
1761315801967717000,3.411717041015625,0.48998022079467773,-11.671098709106445,3.436984062194824
1761315801986640100,3.43064013671875,0.8724563121795654,-12.032283782958984,3.8324670791625977
1761315802005563000,3.44956298828125,-0.994778037071228,-10.661759376525879,2.3900301456451416
1761315802024485600,3.468485595703125,-0.2556278705596924,-6.961256980895996,0.4841218888759613
1761315802043408400,3.487408447265625,0.7796288728713989,-1.877732276916504,-0.31255945563316345
1761315802062331100,3.5063310546875,0.7684407234191895,2.633458137512207,-0.3406496047973633
1761315802081254000,3.52525390625,0.5770052671432495,6.282895088195801,0.3073359727859497
1761315802100177000,3.544177001953125,0.40104174613952637,9.250165939331055,-0.10604828596115112
1761315802119099600,3.563099609375,0.42593735456466675,11.26159954071045,-1.6250224113464355
1761315802138022400,3.5820224609375,0.7423736453056335,11.905524253845215,-2.722965717315674
1761315802156945200,3.600945068359375,0.49961650371551514,11.531824111938477,-4.1481781005859375
1761315802175868000,3.619867919921875,0.908822238445282,11.097576141357422,-4.331268787384033
1761315802194791000,3.638791015625,1.3991725444793701,9.55414867401123,-3.9238362312316895
1761315802213713700,3.657713623046875,1.2223321199417114,7.9353718757629395,-3.478672981262207
1761315802232636400,3.676636474609375,0.5122957229614258,8.254345893859863,-2.9801249504089355
1761315802251559200,3.69555908203125,-0.3123946189880371,8.95731258392334,-1.5761895179748535
1761315802270482000,3.71448193359375,-1.1359139680862427,9.353800773620605,0.11479604244232178
1761315802289404700,3.73340478515625,-1.2880738973617554,9.168405532836914,0.9359595775604248
1761315802308327700,3.75232763671875,-4.286654472351074,9.061376571655273,1.0100605487823486
1761315802327250400,3.77125048828125,-5.273382663726807,9.29641056060791,0.370940625667572
1761315802346173200,3.790173095703125,8.279773712158203,6.824306488037109,1.3455989360809326
1761315802365096000,3.809095947265625,-1.2657033205032349,4.03392219543457,3.2056214809417725
1761315802384018700,3.828018798828125,-1.8506754636764526,-0.13276100158691406,2.820101022720337
1761315802402941700,3.846941650390625,-1.0890328884124756,-6.8277997970581055,-0.887525737285614
1761315802421864400,3.865864501953125,-2.3074352741241455,-13.613229751586914,-2.1715786457061768
1761315802440787200,3.884787109375,4.254836559295654,-17.93608856201172,4.816791534423828
1761315802459710000,3.9037099609375,1.9524140357971191,-14.42878532409668,2.072707176208496
1761315802478633000,3.922633056640625,16.768978118896484,-17.574222564697266,-8.38480281829834
1761315802497555700,3.9415556640625,2.502009630203247,-15.402677536010742,-11.741935729980469
1761315802516478500,3.960478515625,0.19574236869812012,-11.14074993133545,-5.317731857299805
1761315802535401200,3.979401123046875,2.748788595199585,-9.28278923034668,0.2686064839363098
1761315802554324000,3.998323974609375,1.0350990295410156,-11.29397201538086,5.6777753829956055
1761315802573247000,4.0172470703125,1.003300428390503,-10.45412540435791,4.680042743682861
1761315802592169700,4.036169677734375,1.0950133800506592,-9.391219139099121,1.3944647312164307
1761315802611092500,4.055092529296875,0.09791445732116699,-5.708209037780762,-2.5841009616851807
1761315802630015200,4.07401513671875,-0.8524365425109863,-0.9816484451293945,-2.654168128967285
1761315802648938200,4.092938232421875,-0.6946437358856201,3.763082504272461,-0.44551974534988403
1761315802667861000,4.111861083984375,-0.8061773180961609,7.447394371032715,0.9747329950332642
1761315802686783700,4.13078369140625,-0.8672447204589844,9.939460754394531,0.6134535074234009
1761315802705706500,4.14970654296875,0.6042666435241699,11.49724006652832,-0.7900543808937073
1761315802724629500,4.16862939453125,1.6263010501861572,12.085415840148926,-2.151496410369873
1761315802743552300,4.18755224609375,3.1578335762023926,11.600579261779785,-4.301974296569824
1761315802762475000,4.20647509765625,2.506430149078369,9.240084648132324,-5.142191410064697
1761315802781397800,4.225397705078125,1.1815787553787231,8.055288314819336,-4.459643840789795
1761315802800320500,4.244320556640625,1.3597712516784668,7.813984394073486,-3.296572685241699
1761315802819243500,4.263243408203125,1.0098859071731567,7.966519355773926,-1.1156286001205444
1761315802838166300,4.282166259765625,-0.27978360652923584,8.58263111114502,1.271136999130249
1761315802857089000,4.301089111328125,-2.0758113861083984,9.161367416381836,2.567732810974121
1761315802876011800,4.32001171875,-3.229492425918579,9.127591133117676,2.281895160675049
1761315802894934800,4.338934814453125,-4.810446739196777,9.272541999816895,1.4366716146469116
1761315802913857500,4.357857421875,-4.052164077758789,8.499347686767578,0.9059349298477173
1761315802932780300,4.3767802734375,2.0299034118652344,6.0351667404174805,0.02757181227207184
1761315802951703300,4.395703369140625,9.402006149291992,0.2166757583618164,-1.146092176437378
1761315802970626000,4.4146259765625,-4.514029502868652,-5.433474540710449,-3.361764907836914
1761315802989548800,4.433548828125,-1.477020263671875,-13.961203575134277,-3.1832852363586426
1761315803008471600,4.452471435546875,2.2553584575653076,-22.74346923828125,1.732016682624817
1761315803027394600,4.47139453125,3.0715932846069336,-12.20229434967041,1.952449083328247
1761315803046317300,4.4903173828125,12.892068862915039,-14.71303939819336,0.4173826277256012
1761315803065240000,4.509239990234375,4.96270751953125,-16.068134307861328,0.570838212966919
1761315803084162800,4.528162841796875,0.21653366088867188,-10.66642951965332,1.2254539728164673
1761315803103085600,4.54708544921875,4.147214889526367,-11.786465644836426,-2.3917438983917236
1761315803122008600,4.566008544921875,-0.054769039154052734,-11.959216117858887,-3.0599212646484375
1761315803140931300,4.584931396484375,-0.5380985736846924,-10.640673637390137,-3.0115668773651123
1761315803159854000,4.60385400390625,1.523742437362671,-8.282878875732422,-2.3350377082824707
1761315803178776800,4.62277685546875,1.5123043060302734,-4.684859275817871,-1.1939727067947388
1761315803197699800,4.641699951171875,1.8721364736557007,-0.17514896392822266,-0.5377913117408752
1761315803216622600,4.66062255859375,1.1073417663574219,3.6713452339172363,1.1820002794265747
1761315803235545300,4.67954541015625,0.5121268033981323,7.58954381942749,2.0622944831848145
1761315803254468400,4.69846826171875,0.18058574199676514,10.504447937011719,1.9263293743133545
1761315803273391000,4.71739111328125,0.9826400876045227,12.074262619018555,-0.07500088214874268
1761315803292313900,4.73631396484375,1.678627610206604,12.657999038696289,-1.8769817352294922
1761315803311236600,4.755236572265625,1.6311023235321045,11.823593139648438,-5.000016689300537
1761315803330159400,4.774159423828125,0.5213054418563843,9.174520492553711,-6.252746105194092
1761315803349082400,4.793082275390625,-1.2246894836425781,7.350561141967773,-4.856298446655273
1761315803368005000,4.812005126953125,-0.1297450065612793,7.415348052978516,-4.1726393699646
1761315803386927900,4.830927978515625,0.6113904714584351,8.29545783996582,-2.617638111114502
1761315803405851000,4.849850830078125,0.17924773693084717,8.976018905639648,-1.1614010334014893
1761315803424773600,4.868773681640625,-0.9677378535270691,8.989863395690918,0.11139118671417236
1761315803443696400,4.8876962890625,-2.740312337875366,9.23836898803711,0.41767001152038574
1761315803462619100,4.906619140625,-4.693354606628418,9.781706809997559,-0.15285733342170715
1761315803481542100,4.925542236328125,-4.633185863494873,9.370223999023438,-0.2316320538520813
1761315803500465000,4.94446484375,3.989365339279175,6.025176048278809,0.5772675275802612
1761315803519387600,4.9633876953125,8.572022438049316,0.4820537567138672,3.061020851135254
1761315803538310400,4.982310302734375,-4.593941688537598,-4.909765243530273,1.1975617408752441
1761315803557233400,5.0012333984375,2.49891996383667,-14.257766723632812,-3.038566827774048
1761315803576156200,5.02015625,2.016615152359009,-20.427989959716797,-0.3463130593299866
1761315803595079000,5.039078857421875,1.0975687503814697,-10.426745414733887,1.2053841352462769
1761315803614001700,5.058001708984375,5.486240386962891,-11.508246421813965,-1.766528844833374
1761315803632924700,5.076924560546875,3.6865737438201904,-15.48491382598877,-3.175605535507202
1761315803651847400,5.095847412109375,5.171482563018799,-16.675670623779297,-0.8561460971832275
1761315803670770200,5.114770263671875,2.750309705734253,-12.325477600097656,1.4368057250976562
1761315803689693200,5.133693115234375,2.01090931892395,-11.333634376525879,2.40250563621521
1761315803708616000,5.152615966796875,1.1244196891784668,-10.470844268798828,1.815041422843933
1761315803727538700,5.17153857421875,0.4284074306488037,-8.11125659942627,0.8223230838775635
1761315803746461700,5.190461669921875,0.18989205360412598,-4.856992721557617,0.5367012619972229
1761315803765384400,5.209384521484375,0.44737374782562256,-0.6815700531005859,0.28752169013023376
1761315803784307200,5.22830712890625,0.2934086322784424,3.3687539100646973,-0.3572028875350952
1761315803803230000,5.24722998046875,-0.30691075325012207,6.798075199127197,-0.6022091507911682
1761315803822152700,5.266152587890625,-0.4931364059448242,9.177204132080078,-0.9400936365127563
1761315803841075700,5.28507568359375,-0.240736186504364,10.772623062133789,-2.0240631103515625
1761315803859998500,5.30399853515625,-0.19467365741729736,11.344839096069336,-3.1187169551849365
1761315803878921200,5.322921142578125,0.11458611488342285,10.271586418151855,-3.514984130859375
1761315803897844200,5.34184423828125,0.45796000957489014,9.570076942443848,-3.220590591430664
1761315803916767000,5.36076708984375,0.9422121047973633,9.465312957763672,-3.435065746307373
1761315803935689700,5.379689697265625,0.7499927878379822,8.081586837768555,-3.3834707736968994
1761315803954612700,5.39861279296875,1.0001261234283447,7.426143646240234,-3.074434995651245
1761315803973535500,5.417535400390625,1.5123622417449951,7.495408535003662,-2.441380262374878
1761315803992458200,5.436458251953125,1.7192816734313965,8.35838794708252,-1.2935773134231567
1761315804011381000,5.455381103515625,1.7582390308380127,9.179944038391113,-1.0684303045272827
1761315804030303700,5.4743037109375,0.9608181715011597,9.531926155090332,-1.7639563083648682
1761315804049226800,5.493226806640625,-4.212214946746826,8.283525466918945,-2.3101820945739746
1761315804068149500,5.5121494140625,-5.576982498168945,5.621315002441406,-1.9415981769561768
1761315804087072300,5.531072265625,3.154510498046875,1.599297046661377,0.8641141057014465
1761315804105995300,5.549995361328125,6.085733890533447,-3.4299135208129883,5.668447494506836
1761315804124918000,5.56891796875,0.8874902725219727,-11.855931282043457,2.3008153438568115
1761315804143840800,5.5878408203125,-4.267536640167236,-17.258098602294922,0.08122891187667847
1761315804162763800,5.606763671875,4.119490623474121,-11.753596305847168,0.583283543586731
1761315804181686500,5.6256865234375,8.705466270446777,-11.734186172485352,-0.594433069229126
1761315804200609300,5.644609375,4.3757100105285645,-18.582725524902344,-5.732863903045654
1761315804219532000,5.663531982421875,4.334694862365723,-16.609651565551758,-2.5002663135528564
1761315804238454800,5.682454833984375,1.3872745037078857,-10.386625289916992,-0.7615047097206116
1761315804257377800,5.701377685546875,1.941749095916748,-11.843842506408691,1.4498772621154785
1761315804276300500,5.720300537109375,-0.7791297435760498,-12.149112701416016,2.0343494415283203
1761315804295223300,5.739223388671875,-0.21811485290527344,-10.138444900512695,1.7067643404006958
1761315804314146300,5.758146240234375,0.9247889518737793,-5.5970048904418945,0.7548364400863647
1761315804333069000,5.777069091796875,1.2812453508377075,-0.8888893127441406,-0.6531676054000854
1761315804351991800,5.79599169921875,0.6202958822250366,3.2883424758911133,-0.7579010725021362
1761315804370914800,5.814914794921875,-0.47293341159820557,6.7948174476623535,0.2686362862586975
1761315804389837600,5.833837646484375,-0.8091966509819031,9.612388610839844,-0.16508936882019043
1761315804408760300,5.85276025390625,0.27375590801239014,11.184337615966797,-1.1094907522201538
1761315804427683000,5.87168310546875,1.4037115573883057,11.785772323608398,-2.3311171531677246
1761315804446605800,5.890605712890625,2.314675807952881,11.512935638427734,-3.5988235473632812
1761315804465528800,5.90952880859375,3.142733335494995,9.621947288513184,-4.753206729888916
1761315804484451600,5.92845166015625,2.1389424800872803,7.287425994873047,-4.170136451721191
1761315804503374300,5.947374267578125,1.3078453540802002,7.28031063079834,-3.515690326690674
1761315804522297300,5.96629736328125,0.5681165456771851,8.286735534667969,-2.4361953735351562
1761315804541220000,5.98522021484375,0.000002384185791015625,9.645763397216797,-1.3442895412445068
1761315804560142800,6.004142822265625,-0.6499704718589783,10.417217254638672,-1.1334309577941895
1761315804579065900,6.02306591796875,-1.9026626348495483,10.055326461791992,-0.7611023187637329
1761315804597988600,6.041988525390625,-4.390161037445068,9.664830207824707,-0.4484560489654541
1761315804616911400,6.060911376953125,-5.038546562194824,9.355952262878418,-0.012324467301368713
1761315804635834000,6.079834228515625,0.9504683017730713,7.298812389373779,1.0586912631988525
1761315804654756900,6.0987568359375,6.921167373657227,2.5610198974609375,3.6348462104797363
1761315804673680000,6.117679931640625,-3.8345861434936523,-0.10499191284179688,1.5772618055343628
1761315804692602600,6.1366025390625,1.0408785343170166,-6.1157989501953125,-2.0020642280578613
1761315804711525400,6.155525390625,4.926070213317871,-16.3751220703125,-3.2089133262634277
1761315804730448400,6.174448486328125,0.9308748245239258,-17.796964645385742,0.3511044383049011
1761315804749371100,6.19337109375,1.6259777545928955,-9.18704891204834,0.07617545127868652
1761315804768294000,6.2122939453125,3.740436553955078,-11.893224716186523,1.5635490417480469
1761315804787216600,6.231216552734375,4.799900054931641,-14.604914665222168,-0.04080355167388916
1761315804806139600,6.2501396484375,4.778897285461426,-13.651843070983887,-1.1672037839889526
1761315804825062400,6.2690625,3.9858875274658203,-12.11469841003418,-1.8117464780807495
1761315804843985200,6.287985107421875,3.7459216117858887,-11.489428520202637,-2.2063632011413574
1761315804862908000,6.306907958984375,2.452275514602661,-11.147194862365723,-1.8295416831970215
1761315804881831000,6.325830810546875,1.4927358627319336,-9.458319664001465,-0.5591436624526978
1761315804900753700,6.344753662109375,0.5914342403411865,-7.0866241455078125,0.4513441026210785
1761315804919676400,6.363676513671875,-0.052165985107421875,-4.258757591247559,1.644132375717163
1761315804938599200,6.38259912109375,-0.29628753662109375,-0.3493528366088867,1.6519067287445068
1761315804957522200,6.401522216796875,-0.8553240895271301,3.964656352996826,0.08963614702224731
1761315804976445000,6.42044482421875,-0.8912994861602783,7.351666450500488,-0.40597811341285706
1761315804995367700,6.43936767578125,-0.4661274552345276,9.720853805541992,-0.9824396967887878
1761315805014290700,6.458290771484375,0.1167604923248291,11.117745399475098,-1.9156039953231812
1761315805033213400,6.47721337890625,0.17349159717559814,11.656869888305664,-2.9496374130249023
1761315805052136200,6.49613623046875,0.45751792192459106,11.463968276977539,-3.403200149536133
1761315805071059000,6.515058837890625,0.8581930994987488,10.554802894592285,-3.5019521713256836
1761315805089982000,6.53398193359375,1.1858513355255127,8.360617637634277,-2.75240159034729
1761315805108904700,6.55290478515625,1.3636449575424194,7.226108551025391,-2.196584463119507
1761315805127827500,6.571827392578125,0.18715834617614746,7.401249885559082,-1.0243760347366333
1761315805146750200,6.590750244140625,-0.3508462905883789,8.120616912841797,-0.11947458982467651
1761315805165673000,6.6096728515625,-0.45104724168777466,8.577461242675781,-0.29885852336883545
1761315805184596000,6.628595947265625,0.028122544288635254,9.405118942260742,-1.3583602905273438
1761315805203518700,6.647518798828125,0.029630064964294434,9.677271842956543,-1.4301490783691406
1761315805222441500,6.66644140625,-0.664740800857544,8.821945190429688,-1.1654545068740845
1761315805241364500,6.685364501953125,-1.4149631261825562,7.362688064575195,-1.1231223344802856
1761315805260287200,6.704287353515625,7.641210556030273,2.7791552543640137,-1.0022199153900146
1761315805279210000,6.7232099609375,0.44106364250183105,-1.0953731536865234,2.853086233139038
1761315805298132700,6.7421328125,-4.059449195861816,-5.227719306945801,1.3482747077941895
1761315805317055700,6.7610556640625,7.341304779052734,-15.78197193145752,-2.4958910942077637
1761315805335978500,6.779978515625,-4.404165744781494,-18.301979064941406,0.360806941986084
1761315805354901200,6.7989013671875,5.591742515563965,-10.068526268005371,1.517601728439331
1761315805373824000,6.817823974609375,3.1944093704223633,-8.679647445678711,1.45343017578125
1761315805392747000,6.8367470703125,3.6960887908935547,-11.984055519104004,-0.11516034603118896
1761315805411669800,6.855669677734375,2.9506161212921143,-15.027017593383789,-1.0824896097183228
1761315805430592500,6.874592529296875,3.493194103240967,-13.855321884155273,-3.017333507537842
1761315805449515300,6.893515380859375,1.5621013641357422,-11.641561508178711,-0.5237301588058472
1761315805468438000,6.91243798828125,0.6797292232513428,-9.726692199707031,0.7236601710319519
1761315805487361000,6.931361083984375,0.8104147911071777,-9.039380073547363,-0.16838759183883667
1761315805506283800,6.95028369140625,0.25632381439208984,-8.191347122192383,-1.2932602167129517
1761315805525206500,6.96920654296875,-0.1799604892730713,-6.15018367767334,-1.4723362922668457
1761315805544129300,6.98812939453125,0.04073166847229004,-1.9040727615356445,-0.6860814690589905
1761315805563052300,7.00705224609375,0.3402770757675171,2.6650285720825195,0.8714052438735962
1761315805581975000,7.02597509765625,0.34113967418670654,6.222402095794678,0.9849466681480408
1761315805600897800,7.044897705078125,0.3447890281677246,8.827201843261719,-0.6455577611923218
1761315805619820500,7.063820556640625,0.6408603191375732,10.404914855957031,-3.0624589920043945
1761315805638743600,7.08274365234375,0.9438184499740601,11.120407104492188,-3.9454030990600586
1761315805657666300,7.101666259765625,0.9804938435554504,11.103578567504883,-3.955033540725708
1761315805676589000,7.120589111328125,3.4219298362731934,11.115670204162598,-4.6873369216918945
1761315805695511800,7.13951171875,3.2488794326782227,8.69001293182373,-3.316742420196533
1761315805714434800,7.158434814453125,0.7005723118782043,7.730640411376953,-1.9345974922180176
1761315805733357600,7.177357666015625,-0.10470479726791382,8.060188293457031,-0.7978427410125732
1761315805752280300,7.1962802734375,-0.009034276008605957,8.940186500549316,1.0602155923843384
1761315805771203000,7.215203125,-0.6543307900428772,9.352030754089355,1.8971505165100098
1761315805790125800,7.234125732421875,-2.092667579650879,9.49685001373291,2.014126777648926
1761315805809048800,7.253048828125,-3.5831775665283203,9.457999229431152,1.5572891235351562
1761315805827971600,7.2719716796875,-1.9842478036880493,9.19167423248291,-0.5902618765830994
1761315805846894300,7.290894287109375,-1.8324836492538452,8.260771751403809,-3.2926077842712402
1761315805865817000,7.309817138671875,4.153846263885498,5.040194988250732,-4.116915225982666
1761315805884739800,7.32873974609375,0.38253331184387207,2.0701546669006348,-1.429767370223999
1761315805903662800,7.347662841796875,-2.971074104309082,-2.181777000427246,-1.4398353099822998
1761315805922585600,7.366585693359375,4.645634174346924,-15.754292488098145,-1.6735265254974365
1761315805941508400,7.38550830078125,-0.6465048789978027,-25.877098083496094,0.9903998970985413
1761315805960431000,7.40443115234375,1.940857172012329,-13.716117858886719,1.2571234703063965
1761315805979354000,7.42335400390625,4.234963417053223,-9.559853553771973,2.250218152999878
1761315805998276900,7.44227685546875,3.786303758621216,-14.874685287475586,3.74300479888916
1761315806017199600,7.46119970703125,4.457766532897949,-17.763195037841797,3.1267499923706055
1761315806036122400,7.480122314453125,5.194501876831055,-14.560291290283203,-0.5835824012756348
1761315806055045000,7.499045166015625,3.3736495971679688,-12.08092975616455,-2.7718400955200195
1761315806073968000,7.517968017578125,1.2507908344268799,-10.257733345031738,-3.9780359268188477
1761315806092891000,7.536890869140625,-0.35724663734436035,-8.353655815124512,-3.799138069152832
1761315806111813600,7.555813720703125,-1.2637691497802734,-4.767391204833984,-1.8205959796905518
1761315806130736400,7.574736328125,-0.8231277465820312,-0.2032299041748047,-0.13232621550559998
1761315806149659100,7.5936591796875,-0.8196094632148743,4.023505687713623,1.2519035339355469
1761315806168582100,7.61258203125,-1.2313214540481567,7.702765464782715,0.9818628430366516
1761315806187505000,7.6315048828125,-1.6690404415130615,10.15362548828125,0.22436010837554932
1761315806206427600,7.650427734375,-0.7960788607597351,11.417346000671387,-0.9216466546058655
1761315806225350400,7.669350341796875,1.5661661624908447,11.888060569763184,-1.2129909992218018
1761315806244273400,7.6882734375,5.027742385864258,11.234798431396484,-2.2264928817749023
1761315806263196200,7.707196044921875,6.601072311401367,6.924686431884766,-3.7597548961639404
1761315806282119000,7.726118896484375,5.346556186676025,4.388206958770752,-4.776534080505371
1761315806301041700,7.745041748046875,2.0795915126800537,4.738131999969482,-4.80235481262207
1761315806319964400,7.76396435546875,1.2036559581756592,7.357070446014404,-3.3246097564697266
1761315806338887200,7.78288720703125,-0.6786199808120728,9.398017883300781,-1.5103274583816528
1761315806357810200,7.80181005859375,-4.641067981719971,10.499637603759766,-0.3145197629928589
1761315806376733000,7.82073291015625,-5.702544212341309,11.109114646911621,0.010830283164978027
1761315806395655700,7.83965576171875,-3.409637928009033,11.271834373474121,-0.36876171827316284
1761315806414578400,7.858578369140625,-1.7539381980895996,10.166769027709961,-1.5391710996627808
1761315806433501200,7.877501220703125,-2.318127393722534,8.56643295288086,-2.0985748767852783
1761315806452424200,7.896424072265625,1.835179328918457,5.877851486206055,-2.134768486022949
1761315806471347000,7.915346923828125,5.6607255935668945,1.3029279708862305,0.4699655771255493
1761315806490269700,7.934269775390625,-4.332137107849121,-3.5233306884765625,1.862957239151001
1761315806509192400,7.9531923828125,-3.9157166481018066,-8.528423309326172,2.907561779022217
1761315806528115200,7.972115234375,6.783852577209473,-20.233346939086914,0.8384168148040771
1761315806547038000,7.991037841796875,8.533722877502441,-21.7301025390625,-5.165501594543457
1761315806565961000,8.0099609375,8.603923797607422,-13.388154983520508,-8.817983627319336
1761315806584883700,8.0288837890625,3.5895304679870605,-9.764496803283691,0.9602298140525818
1761315806603806500,8.047806396484376,1.4874351024627686,-8.687254905700684,4.395431041717529
1761315806622729200,8.066729248046874,2.9622650146484375,-13.315217971801758,4.761890888214111
1761315806641652000,8.08565185546875,2.5118420124053955,-15.103495597839355,2.121108055114746
1761315806660574700,8.10457470703125,1.5200762748718262,-11.728913307189941,0.30876094102859497
1761315806679497700,8.123497802734375,1.7085776329040527,-9.610817909240723,-0.3408174216747284
1761315806698420500,8.14242041015625,-0.2786073684692383,-7.676643371582031,-1.2236425876617432
1761315806717343200,8.16134326171875,-0.6139365434646606,-4.656795501708984,-0.8560559153556824
1761315806736266000,8.180265869140625,-1.043285608291626,0.2367877960205078,0.15634173154830933
1761315806755188700,8.199188720703125,-1.4127464294433594,4.696593284606934,1.788879156112671
1761315806774111500,8.218111572265625,-1.1615679264068604,8.184767723083496,1.7877082824707031
1761315806793034500,8.237034423828124,0.38810133934020996,10.268177032470703,0.753333568572998
1761315806811957200,8.255957275390625,1.3527981042861938,11.129410743713379,-1.2115153074264526
1761315806830880000,8.2748798828125,1.9028377532958984,10.160842895507812,-3.175907611846924
1761315806849802800,8.293802734375,2.1555018424987793,8.94875717163086,-4.422603607177734
1761315806868725500,8.3127255859375,2.9896256923675537,7.868558883666992,-4.928106307983398
1761315806887648300,8.331648193359374,3.742398977279663,7.606195449829102,-4.983309268951416
1761315806906571000,8.350571044921875,0.5420838594436646,8.585722923278809,-2.4891042709350586
1761315806925494000,8.369493896484375,-1.099116325378418,9.405097961425781,-0.7811070680618286
1761315806944416800,8.388416748046875,-1.678903341293335,9.671658515930176,0.4963144063949585
1761315806963339500,8.407339599609376,-2.9021146297454834,9.5408353805542,1.4208506345748901
1761315806982262300,8.42626220703125,-2.859614849090576,9.313421249389648,1.6114087104797363
1761315807001185000,8.44518505859375,1.5575199127197266,9.12704086303711,1.6511956453323364
1761315807020107800,8.464107666015625,6.197784423828125,8.514167785644531,-1.3317983150482178
1761315807039030500,8.483030517578126,2.5500192642211914,6.54390811920166,-4.120294570922852
1761315807057953500,8.50195361328125,-1.9953539371490479,3.221714496612549,-5.168245792388916
1761315807076876300,8.520876220703125,3.594122886657715,-3.7841033935546875,-1.320046067237854
1761315807095799000,8.539799072265625,0.5048849582672119,-11.076146125793457,0.34973666071891785
1761315807114721800,8.5587216796875,1.868762493133545,-20.3007755279541,-1.74442458152771
1761315807133644500,8.57764453125,-0.7482597827911377,-16.654569625854492,-0.44688349962234497
1761315807152567300,8.5965673828125,2.9720025062561035,-6.773627281188965,-0.08338034152984619
1761315807171490000,8.615489990234375,1.3778595924377441,-7.153582572937012,4.190537452697754
1761315807190412800,8.634412841796875,2.9333858489990234,-14.913861274719238,4.71935510635376
1761315807209335800,8.653335693359375,5.060980796813965,-17.276779174804688,-0.9332431554794312
1761315807228258600,8.672258544921876,3.8760745525360107,-14.808431625366211,-6.297468185424805
1761315807247181300,8.691181396484374,2.478762626647949,-11.192288398742676,-5.791182041168213
1761315807266104000,8.71010400390625,0.8827531337738037,-8.691544532775879,-2.5026004314422607
1761315807285026800,8.72902685546875,-0.5949642658233643,-6.188922882080078,1.0509990453720093
1761315807303949600,8.747949462890626,0.07954716682434082,-2.519359588623047,3.8965871334075928
1761315807322872600,8.76687255859375,0.07732546329498291,1.8863983154296875,4.274701118469238
1761315807341795300,8.78579541015625,-1.9603464603424072,5.459195613861084,3.61311936378479
1761315807360718000,8.804718017578125,-1.121460199356079,8.25533676147461,2.9881186485290527
1761315807379640800,8.823640869140625,0.41838181018829346,10.205936431884766,0.4123215675354004
1761315807398563600,8.8425634765625,0.7779748439788818,11.06943130493164,-1.6638433933258057
1761315807417486300,8.861486328125,1.178800344467163,10.983760833740234,-3.203824043273926
1761315807436409000,8.8804091796875,3.5139710903167725,9.414429664611816,-3.8964715003967285
1761315807455331800,8.899331787109375,4.188563346862793,7.5149335861206055,-3.9869890213012695
1761315807474254600,8.918254638671876,2.7802886962890625,6.311372756958008,-4.257612228393555
1761315807493177300,8.93717724609375,1.9932830333709717,6.675646781921387,-4.200341701507568
1761315807512100400,8.956100341796875,0.13910502195358276,8.065438270568848,-3.3686108589172363
1761315807531023000,8.975023193359375,-1.6388074159622192,8.522130966186523,-3.2716164588928223
1761315807549945900,8.99394580078125,-2.320223093032837,9.013461112976074,-2.9139225482940674
1761315807568868600,9.01286865234375,-1.8016985654830933,9.773743629455566,-2.084946632385254
1761315807587791400,9.031791259765624,-0.3467428684234619,9.40673542022705,-0.45714932680130005
1761315807606714000,9.050714111328125,-1.744564175605774,8.615402221679688,-0.8710484504699707
1761315807625636900,9.069636962890625,7.218616962432861,5.829174995422363,0.08946382999420166
1761315807644559600,9.0885595703125,3.4128220081329346,0.9634933471679688,3.9726715087890625
1761315807663482400,9.107482421875,-7.233992099761963,-3.648055076599121,2.3000364303588867
1761315807682405400,9.1264052734375,5.863584518432617,-15.137523651123047,-3.7820210456848145
1761315807701328100,9.145328125,0.3277590274810791,-19.981901168823242,-3.613093137741089
1761315807720251000,9.1642509765625,0.7731800079345703,-11.314309120178223,-2.812497138977051
1761315807739173600,9.183173583984376,7.8195600509643555,-11.725685119628906,0.8113857507705688
1761315807758096400,9.202096435546874,6.078219413757324,-17.644323348999023,0.3592906594276428
1761315807777019100,9.22101904296875,4.615140438079834,-19.853557586669922,-0.3781120777130127
1761315807795942000,9.23994189453125,2.2738571166992188,-13.14466381072998,1.9739892482757568
1761315807814864600,9.25886474609375,0.6113507747650146,-10.459912300109863,4.576422691345215
1761315807833787400,9.277787353515626,0.27603578567504883,-9.362305641174316,4.656109809875488
1761315807852710100,9.296710205078124,-0.901494026184082,-6.796296119689941,2.0572190284729004
1761315807871633200,9.315633056640625,-2.4050989151000977,-2.523282051086426,-0.5367469787597656
1761315807890556000,9.334555908203125,-2.174656391143799,1.898468017578125,-0.6018174290657043
1761315807909478700,9.353478759765625,-1.3803128004074097,5.857188701629639,-0.9109625816345215
1761315807928401400,9.3724013671875,-1.1972484588623047,9.022846221923828,-0.6857389211654663
1761315807947324200,9.39132421875,-0.3146677017211914,10.704877853393555,-1.4485743045806885
1761315807966247000,9.410246826171875,1.1261770725250244,11.191875457763672,-2.687459707260132
1761315807985169700,9.429169677734375,2.193319082260132,10.98796272277832,-3.143059253692627
1761315808004092400,9.448092529296876,3.946551561355591,10.4808931350708,-3.988631010055542
1761315808023015200,9.46701513671875,5.052488327026367,8.02674674987793,-3.654210329055786
1761315808041938000,9.48593798828125,4.329708099365234,6.352565765380859,-3.306874990463257
1761315808060860700,9.504860595703125,0.6889969110488892,5.833772659301758,-3.2735581398010254
1761315808079783400,9.523783447265625,-1.6804702281951904,7.553011894226074,-2.0323753356933594
1761315808098706200,9.5427060546875,-1.5989888906478882,8.820780754089355,-1.1568588018417358
1761315808117629000,9.56162890625,-2.0778908729553223,9.872058868408203,-0.8121681213378906
1761315808136552000,9.580552001953125,-3.3378210067749023,10.888574600219727,-0.4836919903755188
1761315808155474700,9.599474609375,-4.91431999206543,10.48923397064209,-1.1630923748016357
1761315808174397400,9.6183974609375,-4.964743614196777,9.05772590637207,-1.9914698600769043
1761315808193320200,9.6373203125,-1.379064917564392,6.848637580871582,-2.402165412902832
1761315808212243000,9.656242919921874,12.140645980834961,-2.385249137878418,0.10891473293304443
1761315808231165700,9.675165771484375,-2.39622163772583,-12.336812019348145,-3.793943166732788
1761315808250088400,9.69408837890625,-2.1224660873413086,-23.790916442871094,-6.532467842102051
1761315808269011200,9.71301123046875,3.95052433013916,-29.609100341796875,0.6789011359214783
1761315808287934000,9.731933837890624,10.473398208618164,-12.6603422164917,4.995582580566406
1761315808306856700,9.750856689453125,4.466341972351074,-13.493778228759766,5.704595565795898
1761315808325779500,9.769779541015625,6.966426849365234,-17.199493408203125,0.7141165733337402
1761315808344702200,9.7887021484375,4.526853561401367,-14.51710033416748,-2.0294177532196045
1761315808363625000,9.807625,2.9518954753875732,-11.815113067626953,-1.8994585275650024
1761315808382547700,9.826547607421874,1.2444570064544678,-8.097644805908203,-1.9604158401489258
1761315808401470500,9.845470458984375,-0.0021791458129882812,-3.9555530548095703,-0.16663700342178345
1761315808420393200,9.864393310546875,0.11383414268493652,1.2265138626098633,1.173394799232483
1761315808439316000,9.88331591796875,-1.3566259145736694,5.136186599731445,0.49861109256744385
1761315808458238700,9.90223876953125,-2.0639238357543945,7.821782112121582,-0.8966781497001648
1761315808477161500,9.921161376953124,-1.1771156787872314,9.774965286254883,-2.089492082595825
1761315808496084200,9.940084228515625,-0.26239535212516785,10.802910804748535,-2.833061456680298
1761315808515007000,9.959007080078125,0.16543781757354736,10.755996704101562,-2.870897054672241
1761315808533930000,9.977929931640626,0.8227344751358032,10.726475715637207,-2.6701414585113525
1761315808552852700,9.996852783203124,2.4375858306884766,10.927903175354004,-3.0145463943481445
1761315808571775500,10.015775390625,6.109639644622803,8.979103088378906,-3.1245553493499756
1761315808590698200,10.0346982421875,4.940512180328369,7.252891540527344,-2.583003044128418
1761315808609621000,10.05362109375,0.4376484155654907,7.143787384033203,-1.7035356760025024
1761315808628543700,10.072543701171876,-1.2166554927825928,7.765778064727783,-0.5826592445373535
1761315808647466500,10.091466552734374,-2.748155117034912,8.351269721984863,0.5799956321716309
1761315808666389200,10.11038916015625,-3.7733688354492188,9.440279006958008,0.7833458185195923
1761315808685312000,10.12931201171875,-4.396228790283203,10.791027069091797,-0.10321295261383057
1761315808704234800,10.14823486328125,-4.807239532470703,10.660754203796387,-1.5581583976745605
1761315808723157500,10.167157470703126,-3.782259464263916,8.038389205932617,-2.211714744567871
1761315808742080300,10.186080322265624,12.02224063873291,2.017979145050049,-0.7295271158218384
1761315808761003000,10.2050029296875,2.275824546813965,-3.9483375549316406,-0.014203399419784546
1761315808779925800,10.22392578125,-2.4168825149536133,-10.344486236572266,-0.3794959783554077
1761315808798848500,10.2428486328125,2.347733736038208,-27.775371551513672,-0.412362664937973
1761315808817771300,10.261771240234374,3.202148914337158,-16.79342269897461,0.6552271842956543
1761315808836694000,10.280694091796875,5.317395210266113,-8.864806175231934,0.6239266395568848
1761315808855616800,10.29961669921875,5.245610237121582,-14.961905479431152,2.2432165145874023
1761315808874539500,10.31853955078125,4.162976264953613,-16.505088806152344,0.3527611196041107
1761315808893462300,10.337462158203126,4.265625,-13.283905029296875,-0.5345119833946228
1761315808912385000,10.356385009765624,2.4663779735565186,-10.701451301574707,-0.9189077615737915
1761315808931307800,10.375307861328125,1.1559433937072754,-9.775161743164062,-1.6706327199935913
1761315808950230500,10.39423046875,-0.005286693572998047,-7.813157081604004,-1.7154395580291748
1761315808969153300,10.4131533203125,0.07384705543518066,-4.443449974060059,-0.7852866649627686
1761315808988076000,10.432075927734376,0.1716899871826172,0.7037420272827148,0.29563450813293457
1761315809006998800,10.450998779296874,-1.1714054346084595,4.6285529136657715,0.4718817472457886
1761315809025921500,10.469921630859375,-1.5002421140670776,7.46956729888916,0.5387539863586426
1761315809044844300,10.48884423828125,-0.6808367967605591,9.575308799743652,0.18166661262512207
1761315809063767000,10.50776708984375,0.37632179260253906,10.544071197509766,-0.9018091559410095
1761315809082689800,10.526689697265626,1.1650059223175049,10.941008567810059,-1.830073356628418
1761315809101612500,10.545612548828124,1.9589812755584717,10.76889419555664,-2.580075740814209
1761315809120535300,10.564535400390625,2.770822525024414,9.630237579345703,-2.9148852825164795
1761315809139458000,10.5834580078125,2.4932608604431152,8.303922653198242,-2.319798469543457
1761315809158380800,10.602380859375,1.708972692489624,7.520895957946777,-1.706788420677185
1761315809177303600,10.621303466796874,0.7240451574325562,7.4356489181518555,-1.5158686637878418
1761315809196226300,10.640226318359375,0.3874934911727905,8.088418960571289,-1.9436134099960327
1761315809215149000,10.659149169921875,-0.20049870014190674,8.68156623840332,-1.5201538801193237
1761315809234071800,10.67807177734375,-2.1677958965301514,8.923734664916992,-1.9528286457061768
1761315809252994600,10.69699462890625,-3.3648123741149902,9.20790958404541,-1.887418508529663
1761315809271917300,10.715917236328124,-4.79634952545166,8.932700157165527,-3.33910870552063
1761315809290840000,10.734840087890625,-2.273536205291748,6.662705421447754,-3.624852180480957
1761315809309762800,10.7537626953125,12.755559921264648,1.6361565589904785,-0.011676669120788574
1761315809328685600,10.772685546875,1.0797207355499268,-2.8750953674316406,1.620224118232727
1761315809347608300,10.7916083984375,-1.5287048816680908,-11.712249755859375,1.1774367094039917
1761315809366531000,10.810531005859374,0.14748477935791016,-23.56540870666504,-2.447262763977051
1761315809385453800,10.829453857421875,-0.28783559799194336,-11.600683212280273,0.7162367701530457
1761315809404376600,10.84837646484375,7.477863311767578,-7.67183780670166,3.741299629211426
1761315809423299300,10.86729931640625,6.010212421417236,-17.667499542236328,2.0455820560455322
1761315809442222000,10.88622216796875,8.815092086791992,-23.47897720336914,-1.815657138824463
1761315809461144800,10.905144775390625,3.840526819229126,-13.490766525268555,0.41793403029441833
1761315809480067600,10.924067626953125,2.1130177974700928,-9.616716384887695,2.893106698989868
1761315809498990300,10.942990234375,0.16550254821777344,-8.648446083068848,3.7695541381835938
1761315809517913000,10.9619130859375,-0.6879273653030396,-6.610891342163086,3.9558584690093994
1761315809536835800,10.9808359375,0.5551902055740356,-2.4449453353881836,1.4175666570663452
1761315809555758600,10.999758544921875,0.53475022315979,1.850560188293457,-0.8234311938285828
1761315809574681300,11.018681396484375,0.10042893886566162,5.447855472564697,-2.307694435119629
1761315809593604000,11.03760400390625,-0.051333069801330566,8.014938354492188,-2.7482824325561523
1761315809612526800,11.05652685546875,-0.24748748540878296,9.808159828186035,-3.148876667022705
1761315809631449600,11.07544970703125,-0.0451621413230896,10.49189567565918,-3.6812732219696045
1761315809650372400,11.094372314453125,0.27706706523895264,10.327075958251953,-3.6505990028381348
1761315809669295000,11.113295166015625,0.49398934841156006,10.18299388885498,-3.82725191116333
1761315809688217600,11.132217529296875,1.4358799457550049,8.86038589477539,-3.133892059326172
1761315809707140400,11.151140380859376,2.792778968811035,7.636202812194824,-1.8270517587661743
1761315809726063400,11.1700634765625,4.655021667480469,7.458538055419922,-0.7056976556777954
1761315809744985900,11.18898583984375,3.559356689453125,8.32603645324707,0.09377050399780273
1761315809763908600,11.20790869140625,0.3461129665374756,9.184698104858398,0.2637217044830322
1761315809782831400,11.226831298828126,-3.2821803092956543,9.59727668762207,-0.10012650489807129
1761315809801754000,11.245754150390624,-4.814460277557373,9.997119903564453,-0.2226628065109253
1761315809820676900,11.2646767578125,-5.275782585144043,9.90589714050293,-0.8702290058135986
1761315809839599600,11.283599609375,-4.996037483215332,8.75550365447998,-1.1331658363342285
1761315809858522400,11.3025224609375,1.49629807472229,5.071115970611572,-0.3687490224838257
1761315809877445000,11.321445068359376,10.922558784484863,-1.8909740447998047,1.8695051670074463
1761315809896367900,11.340367919921874,-1.1025813817977905,-7.107706069946289,-0.38575607538223267
1761315809915290600,11.35929052734375,-3.030959367752075,-17.446815490722656,-2.2939610481262207
1761315809934213400,11.37821337890625,2.9074654579162598,-23.81806182861328,-0.46095287799835205
1761315809953136000,11.39713623046875,4.140114784240723,-11.739500045776367,-1.2152187824249268
1761315809972059000,11.416058837890626,11.064781188964844,-16.26842498779297,2.0312867164611816
1761315809990981600,11.434981689453124,3.1432106494903564,-16.738842010498047,-0.9695135951042175
1761315810009904400,11.453904296875,4.127496719360352,-14.095260620117188,-0.31637224555015564
1761315810028827100,11.4728271484375,2.3056278228759766,-12.393518447875977,2.2686917781829834
1761315810047749600,11.49174951171875,0.972954273223877,-10.923553466796875,3.0285356044769287
1761315810066672400,11.51067236328125,0.04632854461669922,-8.211484909057617,2.770998954772949
1761315810085595400,11.529595458984375,0.6481032371520996,-4.0392255783081055,2.128035068511963
1761315810104518000,11.548517822265625,0.3796250820159912,0.7553625106811523,0.45722150802612305
1761315810123440600,11.567440673828125,-0.425210177898407,5.1325364112854,-0.8519943356513977
1761315810142363400,11.58636328125,-1.3065674304962158,7.890035629272461,-1.8181426525115967
1761315810161286100,11.6052861328125,-0.5390756726264954,9.709044456481934,-2.1207921504974365
1761315810180209000,11.624208984375,0.1547735333442688,10.898540496826172,-3.1566109657287598
1761315810199131600,11.643131591796875,0.5763037204742432,10.613533020019531,-3.765748977661133
1761315810218054400,11.662054443359375,1.3733247518539429,10.267801284790039,-3.8321118354797363
1761315810236977200,11.68097705078125,2.6660966873168945,9.93124008178711,-3.7746312618255615
1761315810255900000,11.69989990234375,2.548856258392334,9.43023681640625,-1.6800439357757568
1761315810274822700,11.71882275390625,0.4956287145614624,9.369030952453613,-0.6344350576400757
1761315810293745400,11.737745361328125,-1.4419288635253906,8.954733848571777,-0.1130596399307251
1761315810312668000,11.75666796875,-1.7213250398635864,8.381735801696777,0.30112266540527344
1761315810331591000,11.7755908203125,-0.14585721492767334,7.926814556121826,-0.1474897861480713
1761315810350513400,11.794513427734374,0.361499547958374,8.170777320861816,-1.3764057159423828
1761315810369436200,11.813436279296875,-0.7634356021881104,8.098950386047363,-2.0422260761260986
1761315810388359000,11.83235888671875,-1.6190727949142456,8.11370849609375,-2.834963798522949
1761315810407281700,11.85128173828125,0.8664820194244385,6.607041358947754,-5.525963306427002
1761315810426204400,11.870204345703126,8.595932006835938,1.789994716644287,-0.014396190643310547
1761315810445127200,11.889127197265625,-2.9160337448120117,0.029343605041503906,1.1493098735809326
1761315810464050000,11.9080498046875,-5.152115821838379,-6.861908912658691,-0.3115619122982025
1761315810482972700,11.92697265625,5.99598503112793,-24.91881561279297,-1.9627293348312378
1761315810501895400,11.9458955078125,0.04874825477600098,-18.622241973876953,-1.9374909400939941
1761315810520818200,11.964818115234374,8.717358589172363,-11.443303108215332,-1.0216137170791626
1761315810539740700,11.98374072265625,3.8956820964813232,-13.611409187316895,2.429499626159668
1761315810558663400,12.002663330078125,4.204107284545898,-16.458383560180664,2.0944299697875977
1761315810577586200,12.021586181640625,2.744063138961792,-14.7920503616333,1.6155744791030884
1761315810596509000,12.040509033203126,1.9463627338409424,-11.846757888793945,2.6793699264526367
1761315810615431700,12.059431640625,-0.09766101837158203,-9.797391891479492,3.845247983932495
1761315810634354400,12.0783544921875,-1.5888471603393555,-7.508325576782227,3.3703696727752686
1761315810653277200,12.097277099609375,-1.651688814163208,-4.267946243286133,1.3787038326263428
1761315810672200000,12.116199951171875,-0.060910582542419434,0.007185935974121094,-0.3015974760055542
1761315810691122700,12.135122802734376,0.7059584856033325,4.497646808624268,-1.5689265727996826
1761315810710045400,12.15404541015625,0.4174383878707886,7.988945007324219,-1.6061432361602783
1761315810728968200,12.17296826171875,1.1507420539855957,9.670555114746094,-1.686360478401184
1761315810747890700,12.191890625,1.178773045539856,10.73978042602539,-2.588841438293457
1761315810766813400,12.2108134765625,0.8984857797622681,10.666664123535156,-3.3462588787078857
1761315810785736200,12.229736083984376,1.5798109769821167,10.404964447021484,-2.8064723014831543
1761315810804659000,12.248658935546874,2.893031597137451,9.79223346710205,-1.5908498764038086
1761315810823581700,12.267581787109375,1.7881783246994019,8.699716567993164,-1.7007242441177368
1761315810842504400,12.28650439453125,0.3077268600463867,8.116081237792969,-2.0893666744232178
1761315810861427200,12.30542724609375,-1.0417605638504028,8.220494270324707,-2.8270726203918457
1761315810880350000,12.324349853515624,-3.098872661590576,8.436541557312012,-2.607691526412964
1761315810899272400,12.3432724609375,-3.448061466217041,9.21847915649414,-2.543849468231201
1761315810918195200,12.3621953125,-3.372725486755371,9.672799110412598,-3.3730340003967285
1761315810937118000,12.381117919921875,-2.20703387260437,9.51290225982666,-3.5270843505859375
1761315810956040700,12.400040771484376,0.007398843765258789,8.356735229492188,-3.9487640857696533
1761315810974963500,12.41896337890625,5.7165374755859375,5.332881450653076,-4.392003059387207
1761315810993886200,12.43788623046875,10.927425384521484,0.07358455657958984,1.568995714187622
1761315811012809000,12.45680908203125,-3.2120249271392822,-3.3408126831054688,1.7649683952331543
1761315811031731700,12.475731689453125,0.059526920318603516,-20.732616424560547,-0.821406364440918
1761315811050654200,12.494654296875,7.085427284240723,-32.05553436279297,-3.368741989135742
1761315811069577200,12.5135771484375,-2.021960735321045,-10.274396896362305,-1.1647837162017822
1761315811088499700,12.532499755859375,6.561642169952393,-4.0608320236206055,3.516887664794922
1761315811107422500,12.55142236328125,0.8098185062408447,-3.356814384460449,5.555386543273926
1761315811126345200,12.57034521484375,-2.718104839324951,-3.5777807235717773,6.18279504776001
1761315811145268000,12.58926806640625,-0.11987638473510742,-4.01704216003418,4.66398811340332
1761315811164190700,12.608190673828124,-0.9593596458435059,-3.983279228210449,2.3611104488372803
1761315811183113500,12.627113525390625,-1.0579805374145508,-3.752305030822754,-0.20103293657302856
1761315811202036200,12.6460361328125,-1.6002178192138672,-3.571840286254883,-1.1528979539871216
1761315811220958700,12.664958740234376,-1.449547290802002,-1.5084781646728516,-1.3571805953979492
1761315811239881500,12.683881591796874,-1.5194306373596191,-0.6520357131958008,-0.0032222196459770203
1761315811258804200,12.70280419921875,-0.6314201354980469,0.2214365005493164,0.17029058933258057
1761315811277727000,12.72172705078125,-0.3981647491455078,0.4581108093261719,0.4550882577896118
1761315811296649700,12.740649658203125,-0.25353240966796875,0.9749870300292969,0.6326869130134583
1761315811315572500,12.759572509765626,-0.43767213821411133,2.151115894317627,0.28323134779930115
1761315811334495200,12.7784951171875,-0.5169839859008789,0.6628618240356445,1.3486214876174927
1761315811353417700,12.797417724609375,0.2601790428161621,0.9282007217407227,0.40156567096710205
1761315811372340500,12.816340576171875,0.673907995223999,0.8915243148803711,0.0421273410320282
1761315811391263200,12.83526318359375,0.9199168682098389,1.2761735916137695,-0.05514904856681824
1761315811410186000,12.85418603515625,0.6924874782562256,1.711721420288086,-0.08904480934143066
1761315811429108700,12.873108642578124,0.653630256652832,1.938371181488037,-0.4988521933555603
1761315811448031500,12.892031494140625,0.48415255546569824,1.5966362953186035,-0.8182286620140076
1761315811466954200,12.910954345703125,0.7597620487213135,0.9885854721069336,0.1142682433128357
1761315811485876700,12.929876708984375,0.8034639358520508,-0.043740272521972656,0.3755642771720886
1761315811504799500,12.948799560546876,3.3455874919891357,0.32366180419921875,3.2084178924560547
1761315811523722200,12.96772216796875,0.16272187232971191,-1.0512943267822266,-1.666822910308838
1761315811542645000,12.98664501953125,-0.7417831420898438,-0.7822113037109375,-1.6297321319580078
1761315811561567700,13.005567626953125,1.4054598808288574,0.45691967010498047,-0.792445957660675
1761315811580490500,13.024490478515625,0.09760570526123047,0.8076143264770508,1.0970711708068848
1761315811599413200,13.043413330078126,-2.0200960636138916,0.5665674209594727,-0.6780809760093689
1761315811618335700,13.062335693359374,-0.4261748790740967,0.45783424377441406,-1.4522151947021484
1761315811637258500,13.081258544921875,0.9162626266479492,0.8035459518432617,-0.9113929867744446
1761315811656181200,13.10018115234375,1.833935022354126,-0.7528324127197266,0.6864646077156067
1761315811675104000,13.11910400390625,-8.17155647277832,-1.529709815979004,5.540716648101807
1761315811694026800,13.13802685546875,2.2139270305633545,-0.4264335632324219,-1.9426589012145996
1761315811712949500,13.156949462890625,2.2123260498046875,0.305145263671875,-2.3647851943969727
1761315811731872000,13.1758720703125,0.09399795532226562,-0.0294189453125,-2.038675546646118
1761315811750794800,13.194794677734375,-0.25948619842529297,-0.3033475875854492,-0.09287524223327637
1761315811769717500,13.213717529296876,0.5245194435119629,0.006955146789550781,0.6520171165466309
1761315811788640300,13.23264013671875,1.0568199157714844,0.5748872756958008,0.6017460823059082
1761315811807563000,13.25156298828125,1.0861098766326904,0.740656852722168,0.36942124366760254
1761315811826485500,13.270485595703125,-0.2640538215637207,-0.46814823150634766,-0.3865811824798584
1761315811845408300,13.289408203125,-0.8943939208984375,-0.9823732376098633,-0.7021022439002991
1761315811864331000,13.3083310546875,-0.4160118103027344,-0.2677497863769531,-1.4232916831970215
1761315811883253800,13.327253662109374,0.027892112731933594,0.48014163970947266,-1.3453822135925293
1761315811902176500,13.346176513671875,0.3059813976287842,0.6885166168212891,-0.07677280902862549
1761315811921099300,13.365099365234375,-0.7634199857711792,0.36125850677490234,0.5164022445678711
1761315811940021800,13.384021728515625,-2.599059581756592,-0.6290168762207031,0.762351393699646
1761315811958944500,13.402944580078126,0.506417989730835,-0.7222766876220703,-1.1015483140945435
1761315811977867300,13.4218671875,0.5993671417236328,-0.36479854583740234,-1.1600744724273682
1761315811996790000,13.4407900390625,-1.0439695119857788,-0.4532451629638672,0.7499370574951172
1761315812015712800,13.459712646484375,-0.7234929800033569,-0.8929777145385742,1.0965309143066406
1761315812034635500,13.478635498046875,-0.660820722579956,-0.8874292373657227,0.23864054679870605
1761315812053558000,13.49755810546875,-0.7609208822250366,-1.9033985137939453,-0.6183134317398071
1761315812072480800,13.516480712890624,-0.7482101917266846,-2.2092809677124023,-0.22147810459136963
1761315812091403500,13.535403564453125,0.7182486057281494,-1.175318717956543,0.3193153142929077
1761315812110326300,13.554326171875,-0.06964850425720215,0.09887409210205078,0.8958395719528198
1761315812129249000,13.5732490234375,-0.015560150146484375,1.2528762817382812,1.5339014530181885
1761315812148171500,13.592171630859376,0.14831948280334473,1.6788477897644043,1.9856252670288086
1761315812167094300,13.61109423828125,0.3103501796722412,1.715742588043213,1.244782567024231
1761315812186017000,13.63001708984375,-0.5829312801361084,1.2494430541992188,0.32965755462646484
1761315812204939800,13.648939697265625,0.07782268524169922,-0.29020023345947266,-2.562224864959717
1761315812223862500,13.667862548828126,0.5350501537322998,0.5299777984619141,-0.939785361289978
1761315812242785300,13.686785400390624,0.9568259716033936,1.4134912490844727,1.0526067018508911
1761315812261707800,13.705707763671874,0.5318968296051025,1.2984628677368164,1.199280858039856
1761315812280630500,13.724630615234375,-0.09317398071289062,0.6247034072875977,0.32941126823425293
1761315812299553300,13.74355322265625,-0.09475159645080566,0.776667594909668,0.07757723331451416
1761315812318476000,13.76247607421875,-0.22141993045806885,-0.31662845611572266,0.021836280822753906
1761315812337398500,13.7813984375,0.5754458904266357,-0.32657623291015625,-0.23759007453918457
1761315812356321300,13.8003212890625,0.12244653701782227,-0.601689338684082,-0.024080753326416016
1761315812375244000,13.819244140625,0.0833737850189209,-0.3839588165283203,1.0316747426986694
1761315812394166800,13.838166748046875,0.3501303195953369,0.24073219299316406,0.7900031805038452
1761315812413089500,13.857089599609376,0.3142423629760742,1.0511159896850586,0.4083831310272217
1761315812432012300,13.87601220703125,0.15459251403808594,0.7993812561035156,-0.12451016902923584
1761315812450934800,13.894934814453125,0.34712791442871094,-0.21171283721923828,-0.4559767246246338
1761315812469857500,13.913857421875,-0.5077884197235107,0.029022216796875,-0.21667122840881348
1761315812488780300,13.9327802734375,-0.5896518230438232,-1.1991195678710938,0.1777973175048828
1761315812507703000,13.951703125,0.12613224983215332,-1.3864803314208984,-0.11666089296340942
1761315812526625800,13.970625732421874,-0.033818960189819336,-1.2202701568603516,-0.06436890363693237
1761315812545548300,13.98954833984375,-0.11588239669799805,-1.480330467224121,0.37439265847206116
1761315812564471000,14.008470947265625,-0.20464062690734863,-0.7324514389038086,0.16547740995883942
1761315812583393800,14.027393798828125,-0.8631472587585449,-0.9911556243896484,0.10873793065547943
1761315812602316500,14.046316650390626,-0.5727591514587402,-1.5668210983276367,0.28329408168792725
1761315812621239300,14.0652392578125,0.005280733108520508,-1.2935600280761719,0.5449942350387573
1761315812640161800,14.084161865234375,0.4808530807495117,-0.8102035522460938,0.7572636008262634
1761315812659084500,14.10308447265625,0.10993695259094238,-0.24849510192871094,0.5555950403213501
1761315812678007300,14.12200732421875,-0.42355990409851074,0.6525249481201172,-0.5500099658966064
1761315812696930000,14.140929931640626,-0.3234245777130127,1.6262106895446777,-0.09363973140716553
1761315812715852500,14.1598525390625,-0.8710215091705322,2.1638917922973633,-0.3439062833786011
1761315812734775300,14.178775390625,0.020322322845458984,6.395594596862793,-0.5640496015548706
1761315812753698000,14.197697998046875,1.8167545795440674,12.006179809570312,-6.07380485534668
1761315812772620800,14.216620849609376,0.6674649715423584,5.355459213256836,-5.317590713500977
1761315812791543300,14.235543212890626,-4.2894182205200195,0.5324440002441406,-0.5209169387817383
1761315812810466000,14.254466064453124,-0.7541630268096924,-14.497584342956543,4.020722389221191
1761315812829388800,14.273388916015625,6.563727855682373,-8.339370727539062,1.797885537147522
1761315812848311600,14.2923115234375,3.757174015045166,-4.975079536437988,2.625049114227295
1761315812867234000,14.311234130859376,1.0369296073913574,0.5014448165893555,2.879641056060791
1761315812886156800,14.33015673828125,-0.14975476264953613,5.019627571105957,1.6461163759231567
1761315812905079600,14.34907958984375,-1.433003544807434,6.069449424743652,-0.042696475982666016
1761315812924002300,14.368002197265625,0.6433155536651611,2.3829345703125,-0.39645540714263916
1761315812942925000,14.386925048828125,0.5500466823577881,0.25049877166748047,-0.33012092113494873
1761315812961847600,14.40584765625,0.1967325210571289,-0.3017873764038086,-0.80293869972229
1761315812980770300,14.424770263671874,-0.23697209358215332,-1.412571907043457,-1.475968360900879
1761315812999693000,14.443693115234375,-0.20473837852478027,-1.669097900390625,-2.022510528564453
1761315813018615800,14.46261572265625,0.36891722679138184,-0.4858865737915039,-1.8871893882751465
1761315813037538300,14.481538330078125,-0.07924604415893555,0.22552967071533203,-0.6199449300765991
1761315813056461000,14.5004609375,-0.18812775611877441,0.8791208267211914,1.6521061658859253
1761315813075383800,14.5193837890625,-0.025429964065551758,0.9445409774780273,1.1723136901855469
1761315813094306600,14.538306640625,-0.1970820426940918,-0.13823890686035156,0.2719287872314453
1761315813113229000,14.55722900390625,-0.24297285079956055,-0.726231575012207,-0.6475634574890137
1761315813132151800,14.57615185546875,0.34878969192504883,-0.1431751251220703,0.43774449825286865
1761315813151074600,14.595074462890626,0.08365917205810547,0.2836418151855469,1.318528652191162
1761315813169997300,14.613997314453124,0.032477378845214844,0.770472526550293,1.1511777639389038
1761315813188919800,14.632919921875,-0.16250371932983398,0.6185541152954102,0.2687218189239502
1761315813207842600,14.651842529296875,-0.4116225242614746,-0.5586566925048828,-0.636337161064148
1761315813226765300,14.670765380859375,-0.3867795467376709,-2.3650550842285156,-0.7885550260543823
1761315813245688000,14.68968798828125,0.4205327033996582,-0.4548215866088867,0.9140790700912476
1761315813264610600,14.708610595703124,0.37078428268432617,0.7049131393432617,0.928762674331665
1761315813283533300,14.727533203125,0.13198542594909668,1.3461523056030273,0.5083788633346558
1761315813302456000,14.7464560546875,-0.3319976329803467,1.2066211700439453,-0.1070561408996582
1761315813321378800,14.76537890625,-0.3266007900238037,0.12648677825927734,-0.5338873863220215
1761315813340301300,14.78430126953125,0.037199974060058594,-0.216522216796875,-0.19560742378234863
1761315813359224000,14.80322412109375,0.19753313064575195,-0.041778564453125,0.040523529052734375
1761315813378146800,14.822146728515625,0.13666844367980957,0.15139389038085938,0.014585733413696289
1761315813397069300,14.8410693359375,-0.10211372375488281,0.053711891174316406,-0.07722997665405273
1761315813415992000,14.859991943359375,-0.20296478271484375,-0.21279239654541016,-0.09954595565795898
1761315813434914800,14.878914794921876,0.011393308639526367,-0.011305809020996094,0.032124996185302734
1761315813453837600,14.897837646484374,0.030202150344848633,-0.016408920288085938,-0.013052225112915039
1761315813472760000,14.916760009765625,-0.12144827842712402,0.11642742156982422,-0.04813885688781738
1761315813491682800,14.935682861328125,-0.10343527793884277,0.11656665802001953,0.11236488819122314
1761315813510605600,14.95460546875,-0.07921004295349121,-0.18793201446533203,0.054306983947753906
1761315813529528300,14.9735283203125,-0.17500877380371094,-0.10628032684326172,-0.1245720386505127
1761315813548450800,14.992450927734374,-0.09131693840026855,0.02970123291015625,-0.03656625747680664
1761315813567373600,15.01137353515625,-0.01960587501525879,0.00066375732421875,-0.025905847549438477
1761315813586296300,15.03029638671875,-0.024492979049682617,-0.045276641845703125,0.05491375923156738
1761315813605219000,15.049218994140626,-0.030705928802490234,-0.05689048767089844,0.013263225555419922
1761315813624141600,15.0681416015625,-0.03456759452819824,-0.11698436737060547,-0.0041887760162353516
1761315813643064300,15.087064208984375,0.16402196884155273,-0.0975809097290039,0.06408548355102539
1761315813661987000,15.105987060546875,-0.018120527267456055,-0.096282958984375,0.13594532012939453
1761315813680909600,15.12490966796875,-0.08242416381835938,-0.021506309509277344,0.0005381107330322266
