time,seconds_elapsed,z,y,x
1761401342316770600,0.1257705078125,0.7315782308578491,-9.346589088439941,-2.702380418777466
1761401342326852400,0.135852294921875,0.7757213711738586,-9.322497367858887,-2.71689510345459
1761401342336932900,0.145932861328125,0.7841010689735413,-9.328483581542969,-2.7229554653167725
1761401342347014000,0.156013916015625,0.7780407071113586,-9.329680442810059,-2.732457399368286
1761401342357118200,0.1661181640625,0.7600842118263245,-9.358410835266113,-2.7467479705810547
1761401342367169300,0.176169189453125,0.7205799221992493,-9.354969024658203,-2.771662473678589
1761401342377281000,0.186281005859375,0.6763619780540466,-9.308581352233887,-2.781014919281006
1761401342387338500,0.19633837890625,0.6570587158203125,-9.283592224121094,-2.7951557636260986
1761401342397442600,0.206442626953125,0.6643161773681641,-9.252542495727539,-2.764105796813965
1761401342407524000,0.216524169921875,0.7003788352012634,-9.238101959228516,-2.7152493000030518
1761401342417582300,0.226582275390625,0.7423521876335144,-9.26062297821045,-2.6712558269500732
1761401342427686100,0.23668603515625,0.7458686232566833,-9.29646110534668,-2.672452926635742
1761401342437743900,0.246743896484375,0.7386112213134766,-9.29885482788086,-2.7118823528289795
1761401342447848400,0.256848388671875,0.7110030651092529,-9.232041358947754,-2.75116229057312
1761401342457929200,0.26692919921875,0.6954407691955566,-9.183110237121582,-2.782062292098999
1761401342468036900,0.277036865234375,0.7122750282287598,-9.182960510253906,-2.77622652053833
1761401342478068700,0.28706884765625,0.7627028822898865,-9.24139404296875,-2.695272445678711
1761401342488179200,0.29717919921875,0.8405144214630127,-9.307982444763184,-2.6467151641845703
1761401342498253000,0.307253173828125,0.9086743593215942,-9.324442863464355,-2.6338462829589844
1761401342508334600,0.31733447265625,0.908524751663208,-9.326762199401855,-2.673275947570801
1761401342518392800,0.327392822265625,0.8892214894294739,-9.294515609741211,-2.7329063415527344
1761401342528473900,0.337473876953125,0.8411129713058472,-9.29346752166748,-2.8378772735595703
1761401342538557200,0.34755712890625,0.7942764163017273,-9.3497314453125,-2.878354072570801
1761401342548659000,0.357658935546875,0.7752724289894104,-9.410783767700195,-2.849623680114746
1761401342558740700,0.36774072265625,0.7682394981384277,-9.407267570495605,-2.801814556121826
1761401342568821000,0.377821044921875,0.7207295298576355,-9.356165885925293,-2.7298388481140137
1761401342578902300,0.38790234375,0.7077110409736633,-9.353921890258789,-2.6700587272644043
1761401342588997600,0.39799755859375,0.6790554523468018,-9.382726669311523,-2.660407066345215
1761401342599041500,0.40804150390625,0.6179285049438477,-9.428291320800781,-2.715099573135376
1761401342609146600,0.418146728515625,0.5508908629417419,-9.420210838317871,-2.753032684326172
1761401342619227400,0.428227294921875,0.4957493841648102,-9.400084495544434,-2.7970261573791504
1761401342629308400,0.438308349609375,0.46095865964889526,-9.389460563659668,-2.8505964279174805
1761401342639388200,0.44838818359375,0.4620809257030487,-9.382203102111816,-2.8673558235168457
1761401342649470200,0.45847021484375,0.4455459713935852,-9.345317840576172,-2.8253824710845947
1761401342659550700,0.46855078125,0.44322657585144043,-9.307085037231445,-2.817002773284912
1761401342669632300,0.47863232421875,0.42280104756355286,-9.30117416381836,-2.847977638244629
1761401342679713300,0.48871337890625,0.4023755192756653,-9.280898094177246,-2.8908488750457764
1761401342689794300,0.498794189453125,0.35920506715774536,-9.258378028869629,-2.9217491149902344
1761401342699874800,0.508874755859375,0.32344168424606323,-9.241843223571777,-2.9060370922088623
1761401342709956900,0.518956787109375,0.35576340556144714,-9.245285034179688,-2.887033224105835
1761401342720038000,0.529037841796875,0.41442134976387024,-9.286884307861328,-2.8562827110290527
1761401342730119200,0.539119140625,0.4455459713935852,-9.310676574707031,-2.8337621688842773
1761401342740200200,0.5492001953125,0.4431517720222473,-9.27603530883789,-2.839672803878784
1761401342750281500,0.559281494140625,0.45512276887893677,-9.24491024017334,-2.839672803878784
1761401342760363000,0.569363037109375,0.4577414393424988,-9.268852233886719,-2.7572972774505615
1761401342770444300,0.5794443359375,0.4736030101776123,-9.325041770935059,-2.652251720428467
1761401342780525000,0.589525146484375,0.47981297969818115,-9.39559555053711,-2.569876194000244
1761401342790605300,0.599605224609375,0.5082441568374634,-9.461360931396484,-2.5161564350128174
1761401342800686800,0.609686767578125,0.5573252439498901,-9.497050285339355,-2.4805426597595215
1761401342810744600,0.61974462890625,0.5813421010971069,-9.477896690368652,-2.4495675563812256
1761401342820848600,0.6298486328125,0.539518415927887,-9.425448417663574,-2.454131603240967
1761401342830929400,0.639929443359375,0.5108627676963806,-9.400533676147461,-2.453981876373291
1761401342841011000,0.650010986328125,0.4965724050998688,-9.405396461486816,-2.4287679195404053
1761401342851091700,0.660091796875,0.5133318305015564,-9.459041595458984,-2.402656316757202
1761401342861173200,0.67017333984375,0.525377631187439,-9.472209930419922,-2.3740005493164062
1761401342871254800,0.6802548828125,0.5770025849342346,-9.43599796295166,-2.3862709999084473
1761401342881335800,0.690335693359375,0.6317699551582336,-9.404648780822754,-2.4653544425964355
1761401342891416300,0.700416259765625,0.6444891691207886,-9.402105331420898,-2.589703321456909
1761401342901496800,0.710496826171875,0.6070797443389893,-9.408090591430664,-2.716146945953369
1761401342911579400,0.720579345703125,0.5721393823623657,-9.397391319274902,-2.8020389080047607
1761401342921659400,0.730659423828125,0.5470002889633179,-9.353322982788086,-2.824634313583374
1761401342931740400,0.740740478515625,0.5398924946784973,-9.323470115661621,-2.7970261573791504
1761401342941822000,0.750822021484375,0.5519382953643799,-9.310301780700684,-2.777947425842285
1761401342951903000,0.760903076171875,0.567500650882721,-9.301773071289062,-2.8067526817321777
1761401342961983700,0.770983642578125,0.5696703791618347,-9.28261947631836,-2.892794132232666
1761401342972065300,0.781065185546875,0.5502174496650696,-9.269451141357422,-2.995445489883423
1761401342982147000,0.79114697265625,0.5321861505508423,-9.270723342895508,-3.0133273601531982
1761401342992227300,0.801227294921875,0.5084685683250427,-9.305513381958008,-2.948683738708496
1761401343002308000,0.81130810546875,0.45504796504974365,-9.376367568969727,-2.8230631351470947
1761401343012389000,0.82138916015625,0.4588637053966522,-9.368062019348145,-2.7537808418273926
1761401343022471000,0.831470947265625,0.47906479239463806,-9.328483581542969,-2.7992706298828125
1761401343032551200,0.84155126953125,0.46088382601737976,-9.322497367858887,-2.883965492248535
1761401343042632700,0.8516328125,0.4547486901283264,-9.311723709106445,-2.942473888397217
1761401343052713700,0.861713623046875,0.4308815002441406,-9.327361106872559,-2.9245173931121826
1761401343062774500,0.8717744140625,0.3965396583080292,-9.395670890808105,-2.82403564453125
1761401343072876000,0.8818759765625,0.3621978163719177,-9.392378807067871,-2.7175686359405518
1761401343082957000,0.89195703125,0.3851672112941742,-9.327810287475586,-2.6566660404205322
1761401343093038000,0.9020380859375,0.4043956398963928,-9.272817611694336,-2.618433713912964
1761401343103118300,0.912118408203125,0.42833763360977173,-9.247604370117188,-2.6185085773468018
1761401343113201000,0.922200927734375,0.45093291997909546,-9.259500503540039,-2.6185832023620605
1761401343123281000,0.932281005859375,0.4819079041481018,-9.322722434997559,-2.6199300289154053
1761401343133363200,0.94236328125,0.5202151536941528,-9.387065887451172,-2.5867104530334473
1761401343143443700,0.952443603515625,0.5825392007827759,-9.432256698608398,-2.534487009048462
1761401343153525200,0.962525146484375,0.6222679615020752,-9.415497779846191,-2.454580545425415
1761401343163605800,0.972605712890625,0.6572083830833435,-9.379584312438965,-2.3639001846313477
1761401343173686800,0.982686767578125,0.670451283454895,-9.384298324584961,-2.325742483139038
1761401343183768300,0.992768310546875,0.6703764796257019,-9.434501647949219,-2.3413047790527344
1761401343193848600,1.0028486328125,0.7003039717674255,-9.51193904876709,-2.365471363067627
1761401343203931000,1.012930908203125,0.7445219159126282,-9.528473854064941,-2.359710216522217
1761401343214012400,1.023012451171875,0.767192006111145,-9.514034271240234,-2.3693618774414062
1761401343224092400,1.033092529296875,0.7946504950523376,-9.474454879760742,-2.3873183727264404
1761401343234173400,1.04317333984375,0.7945008873939514,-9.39320182800293,-2.4422354698181152
1761401343244254500,1.05325439453125,0.74040687084198,-9.298930168151855,-2.5697267055511475
1761401343254335500,1.06333544921875,0.731503427028656,-9.218798637390137,-2.729763984680176
1761401343264417300,1.073417236328125,0.7454197406768799,-9.161188125610352,-2.873116970062256
1761401343274497000,1.0834970703125,0.751928985118866,-9.155202865600586,-3.01287841796875
1761401343284579000,1.0935791015625,0.7539491057395935,-9.1777982711792,-3.108496904373169
1761401343294656300,1.10365625,0.7335235476493835,-9.21603012084961,-3.1442601680755615
1761401343304738000,1.113738037109375,0.688258171081543,-9.254562377929688,-3.0772225856781006
1761401343314820600,1.123820556640625,0.6373065710067749,-9.29069995880127,-2.9395558834075928
1761401343324879600,1.133879638671875,0.6010194420814514,-9.322123527526855,-2.793808937072754
1761401343334959000,1.143958984375,0.6078279614448547,-9.36694049835205,-2.672003984451294
1761401343345057500,1.1540576171875,0.6039373874664307,-9.401656150817871,-2.5325417518615723
1761401343355146500,1.164146484375,0.6368576288223267,-9.420435905456543,-2.4128315448760986
1761401343365227500,1.1742275390625,0.6313958764076233,-9.440037727355957,-2.3762452602386475
1761401343375287800,1.184287841796875,0.62458735704422,-9.413028717041016,-2.404451847076416
1761401343385389000,1.19438916015625,0.619499683380127,-9.371429443359375,-2.4426841735839844
1761401343395447000,1.204447021484375,0.6138882637023926,-9.384596824645996,-2.5031378269195557
1761401343405551400,1.21455126953125,0.6004956960678101,-9.388861656188965,-2.5568578243255615
1761401343415633200,1.224633056640625,0.5814169049263,-9.37053108215332,-2.606013774871826
1761401343425713700,1.234713623046875,0.5885246992111206,-9.329156875610352,-2.6628761291503906
1761401343435771600,1.244771728515625,0.5874772667884827,-9.3126220703125,-2.7358992099761963
1761401343445876500,1.25487646484375,0.5856067538261414,-9.332747459411621,-2.778096914291382
1761401343455956200,1.264956298828125,0.5810428261756897,-9.37973403930664,-2.7712883949279785
1761401343466037800,1.275037841796875,0.5847089290618896,-9.390583038330078,-2.7252748012542725
1761401343476115500,1.285115478515625,0.5843348503112793,-9.363049507141113,-2.6633996963500977
1761401343486200000,1.295199951171875,0.6257844567298889,-9.334918022155762,-2.596885919570923
1761401343496280800,1.30528076171875,0.6745663285255432,-9.351078033447266,-2.5255086421966553
1761401343506361300,1.315361328125,0.6905775666236877,-9.364919662475586,-2.465653657913208
1761401343516443400,1.325443359375,0.7066636085510254,-9.38048267364502,-2.426598310470581
1761401343526506500,1.335506591796875,0.7211784720420837,-9.418490409851074,-2.3936030864715576
1761401343536605000,1.34560498046875,0.7520037889480591,-9.432705879211426,-2.384550094604492
1761401343546685700,1.355685791015625,0.732850193977356,-9.44415283203125,-2.386345624923706
1761401343556768000,1.36576806640625,0.7110030651092529,-9.420286178588867,-2.383951425552368
1761401343566848300,1.37584814453125,0.6960393190383911,-9.382502555847168,-2.416722059249878
1761401343576929500,1.385929443359375,0.7300818562507629,-9.364620208740234,-2.4841339588165283
1761401343587011300,1.39601123046875,0.7543231844902039,-9.371354103088379,-2.5645642280578613
1761401343597091800,1.406091796875,0.7626280784606934,-9.365443229675293,-2.5846903324127197
1761401343607172400,1.41617236328125,0.7869441509246826,-9.365294456481934,-2.5779566764831543
1761401343617254000,1.42625390625,0.7875427007675171,-9.351527214050293,-2.5913493633270264
1761401343627335700,1.436335693359375,0.7720552086830139,-9.301623344421387,-2.585588216781616
1761401343637416700,1.446416748046875,0.7359925508499146,-9.264288902282715,-2.5882816314697266
1761401343647497000,1.4564970703125,0.7178863883018494,-9.249025344848633,-2.6524014472961426
1761401343657579000,1.4665791015625,0.7324012517929077,-9.262417793273926,-2.734851598739624
1761401343667659300,1.4766591796875,0.7353940010070801,-9.294440269470215,-2.8143093585968018
1761401343677740800,1.48674072265625,0.7297825813293457,-9.321599960327148,-2.8394484519958496
1761401343687821800,1.49682177734375,0.7469161152839661,-9.328408241271973,-2.8417677879333496
1761401343697865200,1.506865234375,0.7592611908912659,-9.34614086151123,-2.8063037395477295
1761401343707988000,1.516988037109375,0.7092074155807495,-9.342549324035645,-2.788496732711792
1761401343718065200,1.527065185546875,0.6839935183525085,-9.299753189086914,-2.7554268836975098
1761401343728147500,1.5371474609375,0.670451283454895,-9.283367156982422,-2.7387423515319824
1761401343738230300,1.547230224609375,0.6902034878730774,-9.31501579284668,-2.7201123237609863
1761401343748308700,1.557308837890625,0.6982090473175049,-9.346963882446289,-2.7090392112731934
1761401343758390000,1.56739013671875,0.731503427028656,-9.368062019348145,-2.721534013748169
1761401343768470800,1.577470703125,0.7113772034645081,-9.376441955566406,-2.7082910537719727
1761401343778551600,1.587551513671875,0.680701494216919,-9.350255012512207,-2.7002854347229004
1761401343788633000,1.597633056640625,0.6659621596336365,-9.350554466247559,-2.7234792709350586
1761401343798694400,1.6076943359375,0.6824971437454224,-9.341277122497559,-2.7347021102905273
1761401343808794400,1.61779443359375,0.6931213736534119,-9.348758697509766,-2.7521347999572754
1761401343818856000,1.62785595703125,0.7404816746711731,-9.348384857177734,-2.7060465812683105
1761401343828956200,1.6379560546875,0.7513304352760315,-9.344120025634766,-2.6342952251434326
1761401343839037700,1.64803759765625,0.7344961762428284,-9.358186721801758,-2.5928456783294678
1761401343849086200,1.658086181640625,0.7180360555648804,-9.320477485656738,-2.571223020553589
1761401343859199700,1.66819970703125,0.7149685025215149,-9.305663108825684,-2.5918729305267334
1761401343869263600,1.678263671875,0.7464671730995178,-9.318757057189941,-2.635866403579712
1761401343879362600,1.688362548828125,0.7606827616691589,-9.367538452148438,-2.6467151641845703
1761401343889443800,1.69844384765625,0.7612813115119934,-9.406294822692871,-2.653373956680298
1761401343899516000,1.708515869140625,0.7713818550109863,-9.392677307128906,-2.6589105129241943
1761401343909605000,1.718605224609375,0.7462427616119385,-9.359981536865234,-2.6895864009857178
1761401343919651000,1.728651123046875,0.7383867502212524,-9.343746185302734,-2.7136778831481934
1761401343929767400,1.738767333984375,0.7457190155982971,-9.340229988098145,-2.703352928161621
1761401343939849200,1.74884912109375,0.7317278981208801,-9.346065521240234,-2.6604819297790527
1761401343949911000,1.7589111328125,0.7361422181129456,-9.360430717468262,-2.6180596351623535
1761401343960010800,1.7690107421875,0.7238719463348389,-9.347861289978027,-2.5930700302124023
1761401343970091800,1.779091796875,0.7043442130088806,-9.347487449645996,-2.621351480484009
1761401343980155100,1.789155029296875,0.699780285358429,-9.365592956542969,-2.6781389713287354
1761401343990254600,1.799254638671875,0.7013514637947083,-9.354220390319824,-2.697666883468628
1761401344000318200,1.809318115234375,0.6847416758537292,-9.360506057739258,-2.721010208129883
1761401344010395600,1.819395751953125,0.6801777482032776,-9.341352462768555,-2.694823741912842
1761401344020498000,1.829497802734375,0.6696282625198364,-9.333196640014648,-2.6763434410095215
1761401344030594600,1.839594482421875,0.6566846370697021,-9.334393501281738,-2.6613047122955322
1761401344040659700,1.84965966796875,0.6579565405845642,-9.329306602478027,-2.6791865825653076
1761401344050718000,1.859718017578125,0.6556371450424194,-9.32773494720459,-2.701706886291504
1761401344060803600,1.869803466796875,0.6499509215354919,-9.351602554321289,-2.711134195327759
1761401344070882600,1.879882568359375,0.6565349698066711,-9.389310836791992,-2.6916065216064453
1761401344080984800,1.88998486328125,0.6541407704353333,-9.359233856201172,-2.6948983669281006
1761401344091064800,1.90006494140625,0.6736685037612915,-9.315838813781738,-2.7071688175201416
1761401344101127200,1.910127197265625,0.6937199234962463,-9.311349868774414,-2.705747127532959
1761401344111228000,1.920227783203125,0.7267150282859802,-9.305888175964355,-2.745251417160034
1761401344121285600,1.93028564453125,0.7234230041503906,-9.333122253417969,-2.762983560562134
1761401344131349800,1.940349853515625,0.7012766599655151,-9.364545822143555,-2.7367970943450928
1761401344141435600,1.950435546875,0.6640917062759399,-9.346589088439941,-2.7380688190460205
1761401344151551200,1.96055126953125,0.6224924325942993,-9.301997184753418,-2.7522096633911133
1761401344161616400,1.970616455078125,0.6478559970855713,-9.27610969543457,-2.750713348388672
1761401344171713800,1.9807138671875,0.6554875373840332,-9.278578758239746,-2.7247512340545654
1761401344181772800,1.990772705078125,0.6558616161346436,-9.319729804992676,-2.6862194538116455
1761401344191858000,2.00085791015625,0.6466588973999023,-9.34037971496582,-2.6752212047576904
1761401344201940500,2.0109404296875,0.6521955132484436,-9.334095001220703,-2.6913070678710938
1761401344212014300,2.021014404296875,0.648753821849823,-9.317634582519531,-2.6985645294189453
1761401344222119000,2.031118896484375,0.646434485912323,-9.305065155029297,-2.6949732303619385
1761401344232200400,2.041200439453125,0.6493523716926575,-9.306037902832031,-2.687117338180542
1761401344242284300,2.0512841796875,0.6631938815116882,-9.319430351257324,-2.685995101928711
1761401344252337200,2.061337158203125,0.6765864491462708,-9.335216522216797,-2.6892123222351074
1761401344262420200,2.071420166015625,0.6919991374015808,-9.356165885925293,-2.693551778793335
1761401344272524300,2.081524169921875,0.7032219171524048,-9.344419479370117,-2.6973674297332764
1761401344282605600,2.09160546875,0.6923732161521912,-9.357887268066406,-2.7117326259613037
1761401344292684000,2.10168408203125,0.6983587145805359,-9.353023529052734,-2.705672264099121
1761401344302768600,2.1117685546875,0.7044190168380737,-9.333645820617676,-2.705223560333252
1761401344312850700,2.1218505859375,0.6945429444313049,-9.319504737854004,-2.6978163719177246
1761401344322929000,2.131928955078125,0.7001543641090393,-9.319205284118652,-2.70761775970459
1761401344332980700,2.141980712890625,0.6934206485748291,-9.307234764099121,-2.728940963745117
1761401344343092000,2.152092041015625,0.7068132162094116,-9.282843589782715,-2.766425132751465
1761401344353151000,2.16215087890625,0.7200561761856079,-9.286359786987305,-2.7788450717926025
1761401344363254000,2.17225390625,0.7040449380874634,-9.297882080078125,-2.7754783630371094
1761401344373336600,2.182336669921875,0.7080103158950806,-9.336862564086914,-2.7771992683410645
1761401344383416800,2.192416748046875,0.6902034878730774,-9.342175483703613,-2.79665207862854
1761401344393498400,2.202498291015625,0.6977601647377014,-9.310227394104004,-2.830993890762329
1761401344403579000,2.212578857421875,0.7023240923881531,-9.294889450073242,-2.823362350463867
1761401344413660700,2.22266064453125,0.7311293482780457,-9.30109977722168,-2.7805659770965576
1761401344423741400,2.232741455078125,0.7574655413627625,-9.29646110534668,-2.7586441040039062
1761401344433822200,2.242822265625,0.7939771413803101,-9.300127029418945,-2.7451019287109375
1761401344443903700,2.25290380859375,0.7920318245887756,-9.29458999633789,-2.734253168106079
1761401344453984300,2.262984375,0.7711573839187622,-9.299827575683594,-2.7771244049072266
1761401344464066000,2.273066162109375,0.7539491057395935,-9.30461597442627,-2.7893197536468506
1761401344474146000,2.28314599609375,0.7578396797180176,-9.323843955993652,-2.7941830158233643
1761401344484228000,2.29322802734375,0.7478139400482178,-9.323470115661621,-2.793883800506592
1761401344494285800,2.303285888671875,0.7511807680130005,-9.295862197875977,-2.7647793292999268
1761401344504390400,2.313390380859375,0.7421277165412903,-9.30925464630127,-2.7351510524749756
1761401344514471000,2.323470947265625,0.7493851184844971,-9.327585220336914,-2.7230303287506104
1761401344524552200,2.33355224609375,0.7555950880050659,-9.330129623413086,-2.7222821712493896
1761401344534632400,2.343632568359375,0.7453449368476868,-9.321599960327148,-2.7094132900238037
1761401344544683000,2.35368310546875,0.7716811299324036,-9.30581283569336,-2.68412446975708
1761401344554794500,2.36379443359375,0.7681646347045898,-9.30686092376709,-2.6904094219207764
1761401344564877600,2.373877685546875,0.7665186524391174,-9.319804191589355,-2.693402051925659
1761401344574953500,2.383953369140625,0.7612813115119934,-9.330952644348145,-2.7159225940704346
1761401344585050000,2.394050048828125,0.7728034257888794,-9.349207878112793,-2.745476007461548
1761401344595096300,2.404096435546875,0.7784148454666138,-9.365518569946289,-2.7765257358551025
1761401344605200600,2.41420068359375,0.7641244530677795,-9.34037971496582,-2.8003182411193848
1761401344615282700,2.42428271484375,0.7448959946632385,-9.29182243347168,-2.8045079708099365
1761401344625367600,2.434367431640625,0.7429507374763489,-9.273266792297363,-2.781014919281006
1761401344635439600,2.444439697265625,0.7481880187988281,-9.288604736328125,-2.7067947387695312
1761401344645502000,2.454501953125,0.6988075971603394,-9.320627212524414,-2.659284830093384
1761401344655607000,2.46460693359375,0.6946926116943359,-9.32997989654541,-2.668337821960449
1761401344665688000,2.47468798828125,0.7088333368301392,-9.314416885375977,-2.695871114730835
1761401344675767800,2.484767822265625,0.7323264479637146,-9.325939178466797,-2.73305606842041
1761401344685850000,2.49485009765625,0.7562684416770935,-9.356465339660645,-2.7618613243103027
1761401344695927800,2.504927734375,0.769810676574707,-9.338284492492676,-2.779668092727661
1761401344705991400,2.514991455078125,0.7357681393623352,-9.313145637512207,-2.7754783630371094
1761401344716069600,2.525069580078125,0.7368903756141663,-9.30349349975586,-2.7637317180633545
1761401344726173400,2.53517333984375,0.7636007070541382,-9.32534122467041,-2.7456257343292236
1761401344736254500,2.54525439453125,0.7677905559539795,-9.336114883422852,-2.7082910537719727
1761401344746314200,2.555314208984375,0.7588123083114624,-9.336114883422852,-2.662501811981201
1761401344756437000,2.56543701171875,0.7566425800323486,-9.361702919006348,-2.6493337154388428
1761401344766517500,2.575517578125,0.7413794994354248,-9.355193138122559,-2.652251720428467
1761401344776606500,2.5856064453125,0.7303811311721802,-9.324666976928711,-2.6834511756896973
1761401344786637000,2.595636962890625,0.7062146663665771,-9.305065155029297,-2.7076923847198486
1761401344796741600,2.60574169921875,0.6967875361442566,-9.314866065979004,-2.695197820663452
1761401344806822000,2.61582177734375,0.7123498320579529,-9.339107513427734,-2.6757447719573975
1761401344816882400,2.62588232421875,0.7081599831581116,-9.323545455932617,-2.646191358566284
1761401344827001300,2.63600146484375,0.7082347869873047,-9.300874710083008,-2.6506805419921875
1761401344837054700,2.6460546875,0.7291840314865112,-9.290999412536621,-2.6670658588409424
1761401344847146500,2.656146484375,0.7490110397338867,-9.302146911621094,-2.6920554637908936
1761401344857227800,2.666227783203125,0.7921066880226135,-9.329380989074707,-2.6961703300476074
1761401344867285800,2.67628564453125,0.7947252988815308,-9.369558334350586,-2.688763380050659
1761401344877390600,2.686390625,0.7800608277320862,-9.359757423400879,-2.6500821113586426
1761401344887472400,2.696472412109375,0.7576900124549866,-9.336638450622559,-2.6482863426208496
1761401344897529000,2.706529052734375,0.7542483806610107,-9.323545455932617,-2.6616790294647217
1761401344907609900,2.71660986328125,0.7555202841758728,-9.340678215026855,-2.663250207901001
1761401344917715000,2.72671484375,0.7395838499069214,-9.35549259185791,-2.663923501968384
1761401344927796000,2.7367958984375,0.7280617952346802,-9.336488723754883,-2.66369891166687
1761401344937878300,2.746878173828125,0.741828441619873,-9.32309627532959,-2.6884641647338867
1761401344947935200,2.756935302734375,0.7702595591545105,-9.330503463745117,-2.7102363109588623
1761401344958016300,2.767016357421875,0.7811083197593689,-9.336638450622559,-2.722805976867676
1761401344968096300,2.77709619140625,0.7867197394371033,-9.342025756835938,-2.7299137115478516
1761401344978159900,2.787159912109375,0.7713818550109863,-9.333720207214355,-2.749516248703003
1761401344988281000,2.797281005859375,0.7723544836044312,-9.345242500305176,-2.7370214462280273
1761401344998363100,2.807363037109375,0.7611317038536072,-9.351527214050293,-2.7317092418670654
1761401345008420900,2.8174208984375,0.7413046956062317,-9.344269752502441,-2.7347021102905273
1761401345018507300,2.82750732421875,0.7445967197418213,-9.325565338134766,-2.745326280593872
1761401345028588500,2.837588623046875,0.7576152086257935,-9.3218994140625,-2.7408370971679688
1761401345038687500,2.8476875,0.73674076795578,-9.325639724731445,-2.7380688190460205
1761401345058850600,2.8678505859375,0.6887070536613464,-9.29690933227539,-2.739041566848755
1761401345068931000,2.87793115234375,0.6937199234962463,-9.313669204711914,-2.7462990283966064
1761401345078988800,2.88798876953125,0.706289529800415,-9.327361106872559,-2.755202531814575
1761401345089070000,2.898070068359375,0.7324760556221008,-9.337387084960938,-2.732083320617676
1761401345099151400,2.9081513671875,0.7063643336296082,-9.350255012512207,-2.690035343170166
1761401345109255000,2.9182548828125,0.6786813735961914,-9.329231262207031,-2.681356191635132
1761401345119307800,2.928307861328125,0.6925228238105774,-9.318083763122559,-2.7012581825256348
1761401345129417200,2.938417236328125,0.712424635887146,-9.323919296264648,-2.712780237197876
1761401345139498200,2.948498291015625,0.7214028835296631,-9.338658332824707,-2.721608877182007
1761401345149556500,2.958556396484375,0.7407061457633972,-9.346065521240234,-2.69646954536438
1761401345159637800,2.9686376953125,0.7348702549934387,-9.353248596191406,-2.6466403007507324
1761401345169730600,2.97873046875,0.7104045152664185,-9.37516975402832,-2.6476879119873047
1761401345179821800,2.98882177734375,0.6989572644233704,-9.336338996887207,-2.662127733230591
1761401345189903600,2.998903564453125,0.7223755717277527,-9.329156875610352,-2.6874914169311523
1761401345199958500,3.00895849609375,0.7128735780715942,-9.323919296264648,-2.6925790309906006
1761401345210022100,3.019022216796875,0.7210288047790527,-9.337535858154297,-2.6733505725860596
1761401345220147500,3.0291474609375,0.7228244543075562,-9.359158515930176,-2.651503562927246
1761401345230227700,3.039227783203125,0.7106289863586426,-9.374346733093262,-2.6379613876342773
1761401345240309200,3.049309326171875,0.69858318567276,-9.35077953338623,-2.6600329875946045
1761401345250367700,3.05936767578125,0.703670859336853,-9.341800689697266,-2.6792614459991455
1761401345260471600,3.069471435546875,0.7104793787002563,-9.329754829406738,-2.6931028366088867
1761401345270534400,3.079534423828125,0.7284358739852905,-9.322273254394531,-2.6804585456848145
1761401345280590800,3.0895908203125,0.7243208289146423,-9.337237358093262,-2.6768672466278076
1761401345290699800,3.09969970703125,0.7356184720993042,-9.345766067504883,-2.663250207901001
1761401345300795600,3.109795654296875,0.7175871133804321,-9.363199234008789,-2.6569652557373047
1761401345310876700,3.119876708984375,0.6713491082191467,-9.364845275878906,-2.6758944988250732
1761401345320957400,3.12995751953125,0.671798050403595,-9.346364974975586,-2.673275947570801
1761401345331039200,3.140039306640625,0.667832612991333,-9.333046913146973,-2.6554689407348633
1761401345341086000,3.1500859375,0.6786813735961914,-9.324442863464355,-2.6557681560516357
1761401345351201000,3.160200927734375,0.7193079590797424,-9.344569206237793,-2.6589853763580322
1761401345361259000,3.170259033203125,0.7424269914627075,-9.375992774963379,-2.6443958282470703
1761401345371362600,3.180362548828125,0.7389104962348938,-9.387740135192871,-2.639233350753784
1761401345381440300,3.190440185546875,0.716240406036377,-9.351003646850586,-2.613046646118164
1761401345391526100,3.200526123046875,0.6988824605941772,-9.318382263183594,-2.5935189723968506
1761401345401606100,3.210606201171875,0.6858639717102051,-9.307085037231445,-2.624718427658081
1761401345411687700,3.220687744140625,0.6999298930168152,-9.30005168914795,-2.6543467044830322
1761401345421768000,3.230767822265625,0.7156418561935425,-9.338733673095703,-2.661978244781494
1761401345431850200,3.240850341796875,0.7421277165412903,-9.380332946777344,-2.6723780632019043
1761401345441931300,3.25093115234375,0.7359177470207214,-9.381305694580078,-2.6788125038146973
1761401345451969000,3.260968994140625,0.7401823997497559,-9.369110107421875,-2.6821792125701904
1761401345462092500,3.271092529296875,0.7386112213134766,-9.341202735900879,-2.678961992263794
1761401345472172800,3.2811728515625,0.7500584721565247,-9.288679122924805,-2.6674399375915527
1761401345482254800,3.2912548828125,0.7484872937202454,-9.276334762573242,-2.6692357063293457
1761401345492335900,3.3013359375,0.7521534562110901,-9.31149959564209,-2.680682897567749
1761401345502416600,3.311416748046875,0.7523030638694763,-9.330653190612793,-2.695945978164673
1761401345512498400,3.32149853515625,0.7350199222564697,-9.327136039733887,-2.749441385269165
1761401345522576400,3.331576416015625,0.7240963578224182,-9.33469295501709,-2.759841203689575
1761401345532638000,3.341637939453125,0.7442226409912109,-9.364995002746582,-2.7309610843658447
1761401345542719000,3.351718994140625,0.7811083197593689,-9.370007514953613,-2.7031285762786865
1761401345552799200,3.36179931640625,0.7555202841758728,-9.334393501281738,-2.6756701469421387
1761401345562881300,3.37188134765625,0.7475894689559937,-9.308506965637207,-2.676044225692749
1761401345572962000,3.381962158203125,0.7612065076828003,-9.298107147216797,-2.7085154056549072
1761401345583043300,3.392043212890625,0.7423521876335144,-9.316961288452148,-2.7501895427703857
1761401345593114600,3.402114501953125,0.7626280784606934,-9.33349609375,-2.7577462196350098
1761401345603211000,3.4122109375,0.7869441509246826,-9.365443229675293,-2.7356746196746826
1761401345613294800,3.422294921875,0.7775170207023621,-9.354894638061523,-2.736123561859131
1761401345623390200,3.43239013671875,0.7412298917770386,-9.288530349731445,-2.7566239833831787
1761401345633471000,3.442470947265625,0.7408558130264282,-9.27259349822998,-2.776824951171875
1761401345643552500,3.452552490234375,0.7321019768714905,-9.293617248535156,-2.764704465866089
1761401345653633300,3.46263330078125,0.7298574447631836,-9.298555374145508,-2.743006944656372
1761401345663714600,3.472714599609375,0.7577648162841797,-9.294365882873535,-2.7222073078155518
1761401345673795600,3.482795654296875,0.7880664467811584,-9.316512107849121,-2.7242274284362793
1761401345683877400,3.49287744140625,0.7921066880226135,-9.33005428314209,-2.745326280593872
1761401345693958100,3.502958251953125,0.7691373229026794,-9.355342864990234,-2.7736825942993164
1761401345704039000,3.513038818359375,0.7495347857475281,-9.349207878112793,-2.7684452533721924
1761401345714097000,3.523096923828125,0.765770435333252,-9.315165519714355,-2.776824951171875
1761401345724200700,3.53320068359375,0.7915829420089722,-9.278279304504395,-2.757147789001465
1761401345734282200,3.5432822265625,0.795174241065979,-9.284789085388184,-2.741360902786255
1761401345744363300,3.55336328125,0.8119336366653442,-9.28493881225586,-2.7210850715637207
1761401345764525300,3.573525390625,0.8156746029853821,-9.31157398223877,-2.7362732887268066
1761401345774607000,3.583607177734375,0.833331823348999,-9.319280624389648,-2.721010208129883
1761401345784686800,3.593686767578125,0.8262240290641785,-9.342998504638672,-2.675445556640625
1761401345794768000,3.603767822265625,0.8222586512565613,-9.36117935180664,-2.6517279148101807
1761401345804828200,3.613828125,0.8106617331504822,-9.329530715942383,-2.6891374588012695
1761401345814930400,3.623930419921875,0.8052747845649719,-9.29765796661377,-2.728566884994507
1761401345825012200,3.63401220703125,0.8211363554000854,-9.308506965637207,-2.7574470043182373
1761401345835093000,3.644093017578125,0.830862820148468,-9.339631080627441,-2.732457399368286
1761401345845174300,3.65417431640625,0.8239046335220337,-9.343596458435059,-2.7154736518859863
1761401345855230700,3.664230712890625,0.772279679775238,-9.360879898071289,-2.7317841053009033
1761401345865336300,3.67433642578125,0.8322095274925232,-9.320477485656738,-2.666093111038208
1761401345875417300,3.684417236328125,0.8083423376083374,-9.339855194091797,-2.678961992263794
1761401345885498000,3.694498046875,0.7867945432662964,-9.357961654663086,-2.6886136531829834
1761401345895580200,3.704580078125,0.7693617343902588,-9.3119478225708,-2.69991135597229
1761401345905638000,3.714637939453125,0.7549217343330383,-9.254636764526367,-2.729165554046631
1761401345915741200,3.7247412109375,0.761954665184021,-9.245209693908691,-2.7491421699523926
1761401345925823000,3.734822998046875,0.7755717039108276,-9.280150413513184,-2.785055160522461
1761401345935884500,3.744884521484375,0.7681646347045898,-9.341501235961914,-2.7816882133483887
1761401345945984000,3.75498388671875,0.7783399820327759,-9.356689453125,-2.7755532264709473
1761401345956065500,3.7650654296875,0.7894880175590515,-9.318757057189941,-2.764629602432251
1761401345966146000,3.77514599609375,0.7754969000816345,-9.27685832977295,-2.7690439224243164
1761401345976213200,3.785213134765625,0.7786392569541931,-9.282469749450684,-2.7568483352661133
1761401345986309400,3.795309326171875,0.8090905547142029,-9.299603462219238,-2.744877338409424
1761401345996390100,3.80539013671875,0.7790881991386414,-9.300500869750977,-2.7317092418670654
1761401346006471700,3.8154716796875,0.7614309787750244,-9.29653549194336,-2.722132444381714
1761401346016552000,3.825552001953125,0.7542483806610107,-9.274239540100098,-2.7293899059295654
1761401346026634000,3.835634033203125,0.7548469305038452,-9.268628120422363,-2.7507882118225098
1761401346036714800,3.84571484375,0.7605331540107727,-9.285462379455566,-2.7742812633514404
1761401346046795300,3.855795166015625,0.7757213711738586,-9.303045272827148,-2.8080244064331055
1761401346056876800,3.865876708984375,0.7642740607261658,-9.294290542602539,-2.832864284515381
1761401346066957800,3.875957763671875,0.8031798601150513,-9.279252052307129,-2.8437130451202393
1761401346077038000,3.8860380859375,0.8135048747062683,-9.277755737304688,-2.846855401992798
1761401346087119600,3.89611962890625,0.8272715210914612,-9.28374195098877,-2.8541128635406494
1761401346097200600,3.90620068359375,0.8299649953842163,-9.269227027893066,-2.849698543548584
1761401346107281700,3.91628173828125,0.8303390741348267,-9.282245635986328,-2.8284499645233154
1761401346117363500,3.926363525390625,0.8138789534568787,-9.273042678833008,-2.786850690841675
1761401346127449900,3.936449951171875,0.8010849356651306,-9.289353370666504,-2.744802713394165
1761401346137536300,3.946536376953125,0.7918822169303894,-9.312247276306152,-2.7537059783935547
1761401346147607000,3.95660693359375,0.8003367185592651,-9.316661834716797,-2.7852795124053955
1761401346157687000,3.96668701171875,0.7972691655158997,-9.28882884979248,-2.8033108711242676
1761401346167768800,3.976768798828125,0.8152256608009338,-9.274463653564453,-2.8248586654663086
1761401346177849900,3.986849853515625,0.8387935757637024,-9.282469749450684,-2.7974750995635986
1761401346187931000,3.996930908203125,0.8661772608757019,-9.318382263183594,-2.746598243713379
1761401346198012200,4.00701220703125,0.8898200392723083,-9.317634582519531,-2.7414357662200928
1761401346208093000,4.017093017578125,0.8431330919265747,-9.324592590332031,-2.75580096244812
1761401346218151000,4.02715087890625,0.8069956302642822,-9.305438995361328,-2.760589361190796
1761401346228256000,4.037256103515625,0.7792378067970276,-9.304840087890625,-2.756998062133789
1761401346238313000,4.04731298828125,0.746841311454773,-9.305588722229004,-2.7449522018432617
1761401346248417500,4.05741748046875,0.7603834867477417,-9.322497367858887,-2.721010208129883
1761401346258497500,4.06749755859375,0.7843255400657654,-9.336039543151855,-2.672602415084839
1761401346268578800,4.077578857421875,0.7980173826217651,-9.341501235961914,-2.6290578842163086
1761401346278659600,4.08765966796875,0.8056488633155823,-9.317484855651855,-2.6203789710998535
1761401346288742100,4.0977421875,0.8073697090148926,-9.324069023132324,-2.6419267654418945
1761401346298799000,4.107799072265625,0.8113350868225098,-9.366565704345703,-2.659658908843994
1761401346308880600,4.117880615234375,0.7805845737457275,-9.381006240844727,-2.6833014488220215
1761401346318961400,4.12796142578125,0.7521534562110901,-9.362525939941406,-2.7003602981567383
1761401346329065000,4.13806494140625,0.7218518257141113,-9.344943046569824,-2.687715768814087
1761401346339146200,4.148146240234375,0.7071124911308289,-9.340529441833496,-2.668337821960449
1761401346349228000,4.15822802734375,0.7198317050933838,-9.33237361907959,-2.6583869457244873
1761401346359309300,4.168309326171875,0.7306804060935974,-9.333795547485352,-2.663848638534546
1761401346369389800,4.178389892578125,0.7528268098831177,-9.341127395629883,-2.6773159503936768
1761401346379470600,4.188470703125,0.7850736975669861,-9.345691680908203,-2.6676645278930664
1761401346389547500,4.198547607421875,0.7939771413803101,-9.347935676574707,-2.6414029598236084
1761401346399633400,4.20863330078125,0.7922562956809998,-9.336564064025879,-2.6338462829589844
1761401346409714400,4.21871435546875,0.7662941813468933,-9.343596458435059,-2.6727521419525146
1761401346419795500,4.22879541015625,0.7801356315612793,-9.369034767150879,-2.6937761306762695
1761401346429876500,4.23887646484375,0.8135048747062683,-9.391779899597168,-2.7007343769073486
1761401346439957200,4.248957275390625,0.8330325484275818,-9.378013610839844,-2.653373956680298
1761401346450038800,4.259038818359375,0.7984662652015686,-9.355118751525879,-2.6063129901885986
1761401346460119800,4.269119873046875,0.7883657217025757,-9.337387084960938,-2.610802173614502
1761401346470201300,4.279201416015625,0.7573907375335693,-9.323545455932617,-2.6453683376312256
1761401346480282400,4.289282470703125,0.7472153902053833,-9.322422981262207,-2.6722283363342285
1761401346490357500,4.299357421875,0.7662193775177002,-9.322123527526855,-2.6922049522399902
1761401346500421400,4.30942138671875,0.7804349064826965,-9.317484855651855,-2.6955718994140625
1761401346510502400,4.31950244140625,0.8110358119010925,-9.331625938415527,-2.6697592735290527
1761401346520606700,4.329606689453125,0.7973439693450928,-9.361627578735352,-2.641178607940674
1761401346530687500,4.3396875,0.8031798601150513,-9.382277488708496,-2.6128222942352295
1761401346540745200,4.3497451171875,0.795174241065979,-9.388936996459961,-2.6244940757751465
1761401346550848800,4.359848876953125,0.7889642715454102,-9.349806785583496,-2.6619033813476562
1761401346560931000,4.36993115234375,0.7894132137298584,-9.305588722229004,-2.67140531539917
1761401346571011300,4.38001123046875,0.803928017616272,-9.331550598144531,-2.6557681560516357
1761401346581091800,4.390091796875,0.8134300112724304,-9.357138633728027,-2.6466403007507324
1761401346591174100,4.400174072265625,0.8045265674591064,-9.33925724029541,-2.634594440460205
1761401346601255400,4.41025537109375,0.7995137572288513,-9.311274528503418,-2.621351480484009
1761401346611336200,4.420336181640625,0.7891139388084412,-9.308281898498535,-2.6408793926239014
1761401346621417200,4.430417236328125,0.791358470916748,-9.305513381958008,-2.6875662803649902
1761401346631476500,4.4404765625,0.7803601026535034,-9.29690933227539,-2.7317841053009033
1761401346641578500,4.45057861328125,0.7965958118438721,-9.307608604431152,-2.743156671524048
1761401346651659500,4.460659423828125,0.8036287426948547,-9.319055557250977,-2.7241525650024414
1761401346661700900,4.470700927734375,0.8290671706199646,-9.325041770935059,-2.7149498462677
1761401346671822300,4.480822265625,0.8446294665336609,-9.337087631225586,-2.723853349685669
1761401346681902300,4.49090234375,0.8622866868972778,-9.340529441833496,-2.713977336883545
1761401346691962000,4.500962158203125,0.8383446931838989,-9.315838813781738,-2.7065701484680176
1761401346702065700,4.511065673828125,0.8212860226631165,-9.288679122924805,-2.7153239250183105
1761401346712141800,4.521141845703125,0.812831461429596,-9.295936584472656,-2.717493772506714
1761401346722227500,4.5312275390625,0.8054243922233582,-9.317111015319824,-2.7328317165374756
1761401346732308500,4.54130859375,0.8096891045570374,-9.323320388793945,-2.73537540435791
1761401346742390300,4.551390380859375,0.8284686207771301,-9.339406967163086,-2.7437551021575928
1761401346752470500,4.561470458984375,0.8408136963844299,-9.34846019744873,-2.73769474029541
1761401346762552000,4.571552001953125,0.8181436061859131,-9.348908424377441,-2.7311108112335205
1761401346772623600,4.58162353515625,0.8050503134727478,-9.316512107849121,-2.7335050106048584
1761401346782715000,4.59171484375,0.8131307363510132,-9.298930168151855,-2.7433810234069824
1761401346792795600,4.601795654296875,0.8221089839935303,-9.295488357543945,-2.7433061599731445
1761401346802875100,4.611875244140625,0.829441249370575,-9.30229663848877,-2.735974073410034
1761401346812926200,4.62192626953125,0.8185925483703613,-9.313669204711914,-2.726696491241455
1761401346823038500,4.63203857421875,0.8164227604866028,-9.31381893157959,-2.722805976867676
1761401346833120000,4.6421201171875,0.7937526702880859,-9.319355010986328,-2.7048494815826416
1761401346843201300,4.652201171875,0.7573159337043762,-9.335142135620117,-2.7064952850341797
1761401346853281300,4.66228125,0.7386860251426697,-9.350255012512207,-2.691157579421997
1761401346863362800,4.67236279296875,0.7294085025787354,-9.341876029968262,-2.6983401775360107
1761401346873443000,4.682443115234375,0.770858108997345,-9.357213973999023,-2.7055976390838623
1761401346883525600,4.692525634765625,0.8126070499420166,-9.331101417541504,-2.6990134716033936
1761401346893606400,4.7026064453125,0.7961468696594238,-9.30109977722168,-2.6653449535369873
1761401346903687400,4.7126875,0.7945756912231445,-9.281123161315918,-2.656890630722046
1761401346913772500,4.7227724609375,0.7871686220169067,-9.282693862915039,-2.6809821128845215
1761401346923849700,4.732849609375,0.7761702537536621,-9.313220024108887,-2.723778486251831
1761401346933929700,4.7429296875,0.783652126789093,-9.339481353759766,-2.734253168106079
1761401346944011800,4.75301171875,0.7998878359794617,-9.364845275878906,-2.727444648742676
1761401346954092000,4.763092041015625,0.8098387122154236,-9.35429573059082,-2.698190450668335
1761401346964151600,4.773151611328125,0.7974936366081238,-9.33357048034668,-2.705148696899414
1761401346974242600,4.78324267578125,0.7973439693450928,-9.306785583496094,-2.735599994659424
1761401346984336000,4.7933359375,0.7965209484100342,-9.297059059143066,-2.7742063999176025
1761401346994416400,4.80341650390625,0.7948001623153687,-9.294066429138184,-2.769193649291992
1761401347004497000,4.813496826171875,0.8036287426948547,-9.312472343444824,-2.7445032596588135
1761401347014580200,4.823580322265625,0.8255506753921509,-9.339556694030762,-2.7253496646881104
1761401347024659700,4.83365966796875,0.807818591594696,-9.344569206237793,-2.7309610843658447
1761401347034740700,4.84374072265625,0.7846248149871826,-9.312995910644531,-2.748394012451172
1761401347044822500,4.853822509765625,0.7799860239028931,-9.273266792297363,-2.754678726196289
1761401347054904800,4.86390478515625,0.7917325496673584,-9.246332168579102,-2.7764508724212646
1761401347064984600,4.873984619140625,0.8086416125297546,-9.253889083862305,-2.790292501449585
1761401347075065300,4.8840654296875,0.8092401623725891,-9.293169021606445,-2.780266761779785
1761401347085146400,4.894146484375,0.8024316430091858,-9.320926666259766,-2.7554268836975098
1761401347095227400,4.904227294921875,0.7953987121582031,-9.347112655639648,-2.7580454349517822
1761401347115389200,4.92438916015625,0.7870190143585205,-9.327585220336914,-2.7580454349517822
1761401347125442600,4.934442626953125,0.792705237865448,-9.329904556274414,-2.7323079109191895
1761401347135552000,4.944552001953125,0.7989152073860168,-9.327884674072266,-2.7019314765930176
1761401347145632500,4.954632568359375,0.8230816721916199,-9.316287994384766,-2.6693103313446045
1761401347155714000,4.964714111328125,0.8267477750778198,-9.30229663848877,-2.666691780090332
1761401347165795000,4.974795166015625,0.8141782283782959,-9.306411743164062,-2.688838243484497
1761401347175875600,4.98487548828125,0.7897124886512756,-9.28957748413086,-2.7362732887268066
1761401347185957400,4.994957275390625,0.7842506766319275,-9.28882884979248,-2.7618613243103027
1761401347196038400,5.005038330078125,0.7869441509246826,-9.307384490966797,-2.7427825927734375
1761401347206119000,5.015118896484375,0.7791630029678345,-9.333795547485352,-2.7106852531433105
1761401347216200400,5.025200439453125,0.7846248149871826,-9.368660926818848,-2.696918487548828
1761401347226282500,5.035282470703125,0.8192659020423889,-9.388188362121582,-2.683675765991211
1761401347236362800,5.04536279296875,0.8389432430267334,-9.37240219116211,-2.6652703285217285
1761401347246444300,5.0554443359375,0.8144775032997131,-9.320552825927734,-2.676492929458618
1761401347256502000,5.065501953125,0.8238298296928406,-9.288305282592773,-2.674173593521118
1761401347266605600,5.07560546875,0.8427590131759644,-9.286659240722656,-2.6921300888061523
1761401347276686300,5.085686279296875,0.8257002830505371,-9.312472343444824,-2.707468032836914
1761401347286767600,5.095767578125,0.7929296493530273,-9.329081535339355,-2.7201123237609863
1761401347296843000,5.105843017578125,0.7680898308753967,-9.340229988098145,-2.698789119720459
1761401347306908000,5.115907958984375,0.7475146651268005,-9.320028305053711,-2.7164463996887207
1761401347317011500,5.126011474609375,0.760757565498352,-9.317784309387207,-2.7394156455993652
1761401347327092500,5.136092529296875,0.8049007058143616,-9.321524620056152,-2.741809844970703
1761401347337173800,5.146173828125,0.8032546639442444,-9.329306602478027,-2.7007343769073486
1761401347347231200,5.156231201171875,0.7974936366081238,-9.322946548461914,-2.642151117324829
1761401347357335800,5.166335693359375,0.8467243909835815,-9.325715065002441,-2.627711296081543
1761401347367416800,5.176416748046875,0.8462755084037781,-9.326762199401855,-2.639906644821167
1761401347377497300,5.186497314453125,0.8488193154335022,-9.329904556274414,-2.67716646194458
1761401347387579000,5.196578857421875,0.8655039072036743,-9.338508605957031,-2.7149498462677
1761401347397636900,5.206636962890625,0.8444049954414368,-9.35661506652832,-2.7311108112335205
1761401347407740400,5.216740478515625,0.8358756899833679,-9.339481353759766,-2.7322330474853516
1761401347417837000,5.226837158203125,0.8242787718772888,-9.323320388793945,-2.75003981590271
1761401347427903700,5.23690380859375,0.8165724277496338,-9.312172889709473,-2.7484686374664307
1761401347437988900,5.24698876953125,0.8122329115867615,-9.30686092376709,-2.7556512355804443
1761401347448064500,5.257064453125,0.7850736975669861,-9.312247276306152,-2.7427077293395996
1761401347458156000,5.267156005859375,0.8028057813644409,-9.30693531036377,-2.711134195327759
1761401347468234200,5.277234130859375,0.7922562956809998,-9.308357238769531,-2.679560661315918
1761401347478307800,5.287307861328125,0.7694365978240967,-9.319430351257324,-2.6700587272644043
1761401347498471000,5.307470947265625,0.7809586524963379,-9.29922866821289,-2.697143077850342
1761401347508551400,5.317551513671875,0.7897872924804688,-9.337087631225586,-2.676044225692749
1761401347518632400,5.327632568359375,0.8114098906517029,-9.35085391998291,-2.667814016342163
1761401347528714200,5.33771435546875,0.800411581993103,-9.340304374694824,-2.659209966659546
1761401347538772000,5.34777197265625,0.8165724277496338,-9.321375846862793,-2.668487548828125
1761401347548876000,5.3578759765625,0.8004863858222961,-9.305065155029297,-2.6811318397521973
1761401347558957000,5.36795703125,0.7849240899085999,-9.316062927246094,-2.6921300888061523
1761401347569032700,5.37803271484375,0.7841010689735413,-9.316062927246094,-2.6773908138275146
1761401347579120000,5.3881201171875,0.782529890537262,-9.31613826751709,-2.688912868499756
1761401347589199600,5.39819970703125,0.7674164772033691,-9.314192771911621,-2.6839749813079834
1761401347599282000,5.408281982421875,0.7912088632583618,-9.363423347473145,-2.679410934448242
1761401347609362700,5.41836279296875,0.8248773217201233,-9.37861156463623,-2.693402051925659
1761401347619444500,5.428444580078125,0.8258499503135681,-9.34165096282959,-2.7195138931274414
1761401347629524500,5.4385244140625,0.8272715210914612,-9.315689086914062,-2.7405378818511963
1761401347639605000,5.44860498046875,0.8254758715629578,-9.299304008483887,-2.7130045890808105
1761401347649686800,5.458686767578125,0.8173954486846924,-9.302446365356445,-2.718466281890869
1761401347659767600,5.468767578125,0.8179939985275269,-9.31389331817627,-2.724377155303955
1761401347669848300,5.478848388671875,0.8203133344650269,-9.322123527526855,-2.7502644062042236
1761401347679907600,5.488907470703125,0.7909095883369446,-9.321300506591797,-2.748917579650879
1761401347690011000,5.499010986328125,0.7820809483528137,-9.298630714416504,-2.7641806602478027
1761401347700096300,5.50909619140625,0.7686135768890381,-9.307833671569824,-2.751835584640503
1761401347710156800,5.51915673828125,0.7796867489814758,-9.301773071289062,-2.7305121421813965
1761401347720254000,5.52925390625,0.7847744226455688,-9.306635856628418,-2.713453531265259
1761401347730335500,5.53933544921875,0.7755717039108276,-9.30461597442627,-2.708814859390259
1761401347740416000,5.549416015625,0.784849226474762,-9.29997730255127,-2.6844985485076904
1761401347750497800,5.559497802734375,0.7855226397514343,-9.308731079101562,-2.6926538944244385
1761401347760555500,5.569555419921875,0.7590367794036865,-9.343596458435059,-2.7195138931274414
1761401347770660400,5.579660400390625,0.8063222169876099,-9.355792045593262,-2.7323079109191895
1761401347780739600,5.589739501953125,0.7967454195022583,-9.33806037902832,-2.693551778793335
1761401347790822000,5.59982177734375,0.7583633661270142,-9.317858695983887,-2.6712558269500732
1761401347800902000,5.60990185546875,0.7827543020248413,-9.322872161865234,-2.6565163135528564
1761401347810984200,5.619984130859375,0.8087912797927856,-9.325939178466797,-2.670283079147339
1761401347821042700,5.630042724609375,0.7959972620010376,-9.305289268493652,-2.7102363109588623
1761401347831145500,5.6401455078125,0.8331822156906128,-9.304466247558594,-2.7248260974884033
1761401347841227800,5.650227783203125,0.8225579261779785,-9.32893180847168,-2.7230303287506104
1761401347851285500,5.660285400390625,0.8167968988418579,-9.347637176513672,-2.738368272781372
1761401347861389300,5.670389404296875,0.8173954486846924,-9.347786903381348,-2.7532570362091064
1761401347871470000,5.680469970703125,0.7968950867652893,-9.332897186279297,-2.7590930461883545
1761401347881551400,5.69055126953125,0.7959972620010376,-9.3096284866333,-2.743605613708496
1761401347891631600,5.700631591796875,0.79764324426651,-9.303643226623535,-2.706420660018921
1761401347901713400,5.71071337890625,0.7828291654586792,-9.314566612243652,-2.672452926635742
1761401347911795500,5.72079541015625,0.7682394981384277,-9.311873435974121,-2.673275947570801
1761401347921875200,5.730875244140625,0.7578396797180176,-9.301847457885742,-2.6849474906921387
1761401347931956500,5.74095654296875,0.7694365978240967,-9.300201416015625,-2.687117338180542
1761401347942037200,5.751037353515625,0.792705237865448,-9.329007148742676,-2.6827778816223145
1761401347952119300,5.761119384765625,0.788739800453186,-9.3573637008667,-2.6693851947784424
1761401347962199800,5.77119970703125,0.7823054194450378,-9.345841407775879,-2.6734254360198975
1761401347972258300,5.78125830078125,0.7721300721168518,-9.32302188873291,-2.6799347400665283
1761401347982363000,5.79136279296875,0.7693617343902588,-9.313369750976562,-2.6855461597442627
1761401347992444200,5.801444091796875,0.7610568404197693,-9.349133491516113,-2.693476915359497
1761401348002524400,5.8115244140625,0.7720552086830139,-9.360430717468262,-2.667290449142456
1761401348012588000,5.821588134765625,0.7751976251602173,-9.348011016845703,-2.63863468170166
1761401348022686700,5.831686767578125,0.7748235464096069,-9.337535858154297,-2.639308214187622
1761401348032767700,5.841767822265625,0.7799112200737,-9.331625938415527,-2.6308536529541016
1761401348042848500,5.8518486328125,0.7806593775749207,-9.341950416564941,-2.631826162338257
1761401348052929800,5.8619296875,0.7700351476669312,-9.351153373718262,-2.6529998779296875
1761401348063010600,5.872010498046875,0.7540239095687866,-9.351303100585938,-2.642225980758667
1761401348073072600,5.88207275390625,0.7467664480209351,-9.348908424377441,-2.6379613876342773
1761401348083192300,5.8921923828125,0.7669675350189209,-9.339556694030762,-2.6437222957611084
1761401348093254000,5.90225390625,0.7801356315612793,-9.328557968139648,-2.655693531036377
1761401348103335400,5.91233544921875,0.7931541204452515,-9.344943046569824,-2.6454432010650635
1761401348113416700,5.922416748046875,0.7902361750602722,-9.348235130310059,-2.6618285179138184
1761401348123497000,5.9324970703125,0.7641992568969727,-9.3450927734375,-2.6676645278930664
1761401348133578500,5.94257861328125,0.7653963565826416,-9.335441589355469,-2.6712558269500732
1761401348143659300,5.9526591796875,0.7433248162269592,-9.328108787536621,-2.693027973175049
1761401348153739500,5.962739501953125,0.758438229560852,-9.333046913146973,-2.688763380050659
1761401348163821000,5.972821044921875,0.7879168391227722,-9.36125373840332,-2.6525509357452393
1761401348173902000,5.982902099609375,0.7933785915374756,-9.369184494018555,-2.6197803020477295
1761401348183964000,5.9929638671875,0.7802852988243103,-9.36357307434082,-2.623671054840088
1761401348194064600,6.003064697265625,0.7615057826042175,-9.3358154296875,-2.6529998779296875
1761401348204123100,6.013123046875,0.7493851184844971,-9.304166793823242,-2.680682897567749
1761401348214228200,6.023228271484375,0.7542483806610107,-9.307608604431152,-2.684723138809204
1761401348224285400,6.033285400390625,0.7537246346473694,-9.342848777770996,-2.6505308151245117
1761401348234388700,6.043388671875,0.7509563565254211,-9.366191864013672,-2.626962900161743
1761401348244469800,6.0534697265625,0.7665186524391174,-9.360506057739258,-2.6373627185821533
1761401348254551600,6.063551513671875,0.7751228213310242,-9.356988906860352,-2.678961992263794
1761401348264631800,6.0736318359375,0.7561188340187073,-9.331850051879883,-2.7025299072265625
1761401348274713900,6.0837138671875,0.7895628213882446,-9.319953918457031,-2.711657762527466
1761401348284793900,6.0937939453125,0.7980173826217651,-9.329830169677734,-2.6978912353515625
1761401348294875400,6.10387548828125,0.797792911529541,-9.333795547485352,-2.6774656772613525
1761401348304950500,6.113950439453125,0.8174702525138855,-9.35886001586914,-2.669011116027832
1761401348315037700,6.12403759765625,0.8043021559715271,-9.358335494995117,-2.6764183044433594
1761401348325095700,6.134095703125,0.7668179273605347,-9.341800689697266,-2.675445556640625
1761401348335190500,6.1441904296875,0.7593360543251038,-9.342549324035645,-2.656890630722046
1761401348345281000,6.154281005859375,0.748113214969635,-9.349207878112793,-2.64634108543396
1761401348355339000,6.164339111328125,0.7534253597259521,-9.348908424377441,-2.6446950435638428
1761401348366415000,6.1754150390625,0.7579892873764038,-9.347711563110352,-2.665494680404663
1761401348385583000,6.1945830078125,0.7627776861190796,-9.3358154296875,-2.6571149826049805
1761401348395686100,6.20468603515625,0.754397988319397,-9.33342170715332,-2.6583120822906494
1761401348405768400,6.2147685546875,0.7674912810325623,-9.326164245605469,-2.670283079147339
1761401348415867400,6.224867431640625,0.7770680785179138,-9.322572708129883,-2.663175344467163
1761401348425929200,6.23492919921875,0.7877671718597412,-9.336862564086914,-2.6799347400665283
1761401348435988000,6.244988037109375,0.7866448760032654,-9.3404541015625,-2.6751463413238525
1761401348446092300,6.25509228515625,0.7866448760032654,-9.33806037902832,-2.6727521419525146
1761401348456172500,6.265172607421875,0.7876923680305481,-9.357213973999023,-2.661978244781494
1761401348466254800,6.2752548828125,0.7841010689735413,-9.359607696533203,-2.663175344467163
1761401348476335400,6.28533544921875,0.7841010689735413,-9.344120025634766,-2.665494680404663
1761401348486417000,6.2954169921875,0.7697358727455139,-9.344120025634766,-2.669011116027832
1761401348496496400,6.305496337890625,0.7589619159698486,-9.341800689697266,-2.6785879135131836
1761401348506579000,6.315578857421875,0.7613561153411865,-9.325041770935059,-2.6797101497650146
1761401348516659700,6.32565966796875,0.7481880187988281,-9.310750961303711,-2.6892123222351074
1761401348526740500,6.335740478515625,0.7541735172271729,-9.317934036254883,-2.701183319091797
1761401348536821000,6.345821044921875,0.8010101318359375,-9.322497367858887,-2.66444730758667
1761401348546903000,6.355903076171875,0.8284686207771301,-9.327136039733887,-2.6740987300872803
1761401348556984000,6.365984130859375,0.8141034245491028,-9.335515975952148,-2.683600902557373
1761401348567064800,6.37606494140625,0.7829039692878723,-9.346364974975586,-2.712181568145752
1761401348577145300,6.386145263671875,0.7757213711738586,-9.329680442810059,-2.7288661003112793
1761401348587227100,6.39622705078125,0.7566425800323486,-9.329754829406738,-2.7036523818969727
1761401348597284900,6.406284912109375,0.7543231844902039,-9.30229663848877,-2.700061082839966
1761401348607358700,6.416358642578125,0.7757961750030518,-9.310601234436035,-2.6966192722320557
1761401348617471000,6.426470947265625,0.768538773059845,-9.327435493469238,-2.6857705116271973
1761401348627550700,6.43655078125,0.7709329724311829,-9.33933162689209,-2.6845734119415283
1761401348637633300,6.44663330078125,0.7792378067970276,-9.328557968139648,-2.7049241065979004
1761401348647691800,6.45669189453125,0.7648726105690002,-9.332149505615234,-2.7108349800109863
1761401348657794800,6.466794921875,0.7672668099403381,-9.320253372192383,-2.714426279067993
1761401348667875800,6.476875732421875,0.7900117635726929,-9.311799049377441,-2.693027973175049
1761401348677958000,6.4869580078125,0.788889467716217,-9.30222225189209,-2.685845375061035
1761401348688015000,6.49701513671875,0.7983914613723755,-9.30222225189209,-2.690633773803711
1761401348698118700,6.50711865234375,0.811634361743927,-9.326014518737793,-2.6931777000427246
1761401348708205000,6.517205078125,0.8032546639442444,-9.331999778747559,-2.6978912353515625
1761401348718281200,6.52728125,0.7852233648300171,-9.336788177490234,-2.7253496646881104
1761401348728361500,6.537361572265625,0.7817068696022034,-9.327285766601562,-2.715772867202759
1761401348738442800,6.54744287109375,0.788889467716217,-9.321300506591797,-2.713378667831421
1761401348748524800,6.55752490234375,0.788889467716217,-9.315315246582031,-2.7217583656311035
1761401348758605000,6.56760498046875,0.7900117635726929,-9.334393501281738,-2.728940963745117
1761401348768686000,6.57768603515625,0.7829787731170654,-9.33806037902832,-2.7002105712890625
1761401348778744600,6.58774462890625,0.7829787731170654,-9.324892044067383,-2.689436674118042
1761401348788827000,6.597826904296875,0.7698854804039001,-9.333346366882324,-2.666691780090332
1761401348798907100,6.6079072265625,0.7711573839187622,-9.338134765625,-2.660781145095825
1761401348808989700,6.61798974609375,0.7842506766319275,-9.332074165344238,-2.6775405406951904
1761401348829138400,6.638138427734375,0.7865700721740723,-9.318906784057617,-2.693027973175049
1761401348839220000,6.648219970703125,0.792555570602417,-9.323695182800293,-2.688314437866211
1761401348849319400,6.6583193359375,0.7793874740600586,-9.333271980285645,-2.687042474746704
1761401348859407000,6.668406982421875,0.7579144835472107,-9.340529441833496,-2.688164710998535
1761401348869497900,6.678497802734375,0.7567173838615417,-9.33701229095459,-2.6797850131988525
1761401348879579000,6.688578857421875,0.7555202841758728,-9.325041770935059,-2.6749966144561768
1761401348889659400,6.698659423828125,0.7603834867477417,-9.326238632202148,-2.66908597946167
1761401348899718000,6.7087177734375,0.7781903743743896,-9.312995910644531,-2.6990134716033936
1761401348909822000,6.718822021484375,0.7829039692878723,-9.317708969116211,-2.7204864025115967
1761401348919902000,6.72890185546875,0.7936778664588928,-9.335591316223145,-2.7014825344085693
1761401348929983500,6.7389833984375,0.792555570602417,-9.348758697509766,-2.690708637237549
1761401348940064800,6.749064697265625,0.7948001623153687,-9.351153373718262,-2.6954221725463867
1761401348950145000,6.75914501953125,0.7911339998245239,-9.328483581542969,-2.7216835021972656
1761401348960227600,6.7692275390625,0.7875427007675171,-9.298630714416504,-2.7240777015686035
1761401348970307000,6.77930712890625,0.7600842118263245,-9.290400505065918,-2.717942714691162
1761401348980389000,6.78938916015625,0.7612813115119934,-9.313070297241211,-2.7024552822113037
1761401348990446800,6.79944677734375,0.786420464515686,-9.3404541015625,-2.687042474746704
1761401349000551200,6.80955126953125,0.787617564201355,-9.366790771484375,-2.682328939437866
1761401349010608600,6.819608642578125,0.7912088632583618,-9.347637176513672,-2.687042474746704
1761401349020713500,6.82971337890625,0.7852981686592102,-9.30573844909668,-2.710984468460083
1761401349030794200,6.839794189453125,0.7494599223136902,-9.27723217010498,-2.723928213119507
1761401349040874500,6.84987451171875,0.7386860251426697,-9.29878044128418,-2.7143514156341553
1761401349050956000,6.8599560546875,0.7554454803466797,-9.338134765625,-2.695347309112549
1761401349061037600,6.87003759765625,0.7973439693450928,-9.347561836242676,-2.684798002243042
1761401349071118300,6.880118408203125,0.7829787731170654,-9.336862564086914,-2.6966192722320557
1761401349081199400,6.890199462890625,0.7721300721168518,-9.30222225189209,-2.7192893028259277
1761401349091281000,6.900281005859375,0.7564929127693176,-9.30349349975586,-2.7502644062042236
1761401349101361400,6.910361328125,0.7828291654586792,-9.315315246582031,-2.7468228340148926
1761401349111442700,6.920442626953125,0.7865700721740723,-9.30573844909668,-2.7002105712890625
1761401349121524200,6.930524169921875,0.7662941813468933,-9.316587448120117,-2.686967611312866
1761401349131604500,6.9406044921875,0.7901613712310791,-9.320103645324707,-2.6954970359802246
1761401349141686000,6.95068603515625,0.7948001623153687,-9.347561836242676,-2.7194390296936035
1761401349151756800,6.9607568359375,0.7971943616867065,-9.348684310913086,-2.726621627807617
1761401349161847300,6.970847412109375,0.7948001623153687,-9.326014518737793,-2.728940963745117
1761401349171928600,6.980928466796875,0.8007856607437134,-9.31045150756836,-2.7229554653167725
1761401349182010000,6.991010009765625,0.8161983489990234,-9.314043045043945,-2.7194390296936035
1761401349192067800,7.00106787109375,0.8114847540855408,-9.330802917480469,-2.707468032836914
1761401349202172400,7.01117236328125,0.8007108569145203,-9.327211380004883,-2.715772867202759
1761401349212254000,7.02125390625,0.7684639096260071,-9.328557968139648,-2.715623378753662
1761401349222334000,7.031333984375,0.7564929127693176,-9.320253372192383,-2.7107601165771484
1761401349232415000,7.0414150390625,0.7470657229423523,-9.33229923248291,-2.676118850708008
1761401349242496800,7.051496826171875,0.7495347857475281,-9.33229923248291,-2.654571056365967
1761401349252577500,7.06157763671875,0.7638251781463623,-9.341800689697266,-2.649932384490967
1761401349262635500,7.071635498046875,0.7806593775749207,-9.321375846862793,-2.661978244781494
1761401349272739800,7.08173974609375,0.7781903743743896,-9.307010650634766,-2.688239574432373
1761401349282821000,7.091821044921875,0.7745990753173828,-9.30341911315918,-2.695347309112549
1761401349292877600,7.101877685546875,0.7734019756317139,-9.316587448120117,-2.7001357078552246
1761401349302959900,7.1119599609375,0.7841758728027344,-9.350030899047852,-2.682328939437866
1761401349313042200,7.122042236328125,0.772279679775238,-9.351227760314941,-2.6703579425811768
1761401349323144700,7.132144775390625,0.7662941813468933,-9.346514701843262,-2.6786627769470215
1761401349333227000,7.14222705078125,0.7638251781463623,-9.338134765625,-2.692953109741211
1761401349343307300,7.152307373046875,0.7555202841758728,-9.305888175964355,-2.6809821128845215
1761401349353388500,7.162388427734375,0.772279679775238,-9.297508239746094,-2.6750714778900146
1761401349363470000,7.172469970703125,0.7674912810325623,-9.316587448120117,-2.6798598766326904
1761401349373550800,7.18255078125,0.7817816734313965,-9.334468841552734,-2.6990134716033936
1761401349393707500,7.20270751953125,0.768538773059845,-9.3404541015625,-2.7085154056549072
1761401349403794000,7.2127939453125,0.7387608885765076,-9.342998504638672,-2.700061082839966
1761401349413875000,7.222875,0.7472153902053833,-9.344195365905762,-2.666616916656494
1761401349423956500,7.23295654296875,0.7653963565826416,-9.33925724029541,-2.6716299057006836
1761401349434037000,7.243037109375,0.7688380479812622,-9.315315246582031,-2.705073833465576
1761401349444117200,7.2531171875,0.7401823997497559,-9.324966430664062,-2.710909605026245
1761401349454198800,7.26319873046875,0.7592611908912659,-9.320103645324707,-2.7169699668884277
1761401349464279800,7.27327978515625,0.7567921876907349,-9.333271980285645,-2.732457399368286
1761401349474360300,7.2833603515625,0.7508814930915833,-9.352425575256348,-2.7193641662597656
1761401349484441600,7.293441650390625,0.7593360543251038,-9.372700691223145,-2.683526039123535
1761401349494524000,7.30352392578125,0.7510311603546143,-9.365592956542969,-2.6739492416381836
1761401349504604400,7.3136044921875,0.7475146651268005,-9.354894638061523,-2.6583869457244873
1761401349514686000,7.32368603515625,0.75948566198349,-9.34165096282959,-2.6512792110443115
1761401349524766200,7.33376611328125,0.7725041508674622,-9.348758697509766,-2.6764183044433594
1761401349534824700,7.34382470703125,0.796371340751648,-9.348609924316406,-2.700435161590576
1761401349544927700,7.353927734375,0.8120084404945374,-9.339032173156738,-2.655094861984253
1761401349555009300,7.36400927734375,0.7858967185020447,-9.321300506591797,-2.609530210494995
1761401349565067500,7.374067626953125,0.7321019768714905,-9.326313018798828,-2.622473955154419
1761401349575171800,7.384171875,0.7151929140090942,-9.313145637512207,-2.6773159503936768
1761401349585254100,7.394254150390625,0.7350947260856628,-9.327435493469238,-2.717942714691162
1761401349595334100,7.404334228515625,0.7422025203704834,-9.315464973449707,-2.7335050106048584
1761401349605406200,7.41440625,0.7601590156555176,-9.338134765625,-2.7347769737243652
1761401349615499500,7.42449951171875,0.7793126702308655,-9.346439361572266,-2.7061960697174072
1761401349625577700,7.43457763671875,0.7876923680305481,-9.34157657623291,-2.7002854347229004
1761401349635658000,7.444657958984375,0.7865700721740723,-9.345168113708496,-2.690708637237549
1761401349645739500,7.454739501953125,0.773476779460907,-9.340529441833496,-2.670283079147339
1761401349655820000,7.464820068359375,0.7579892873764038,-9.319055557250977,-2.665419816970825
1761401349665902000,7.474902099609375,0.7365162968635559,-9.327510833740234,-2.651054620742798
1761401349675982000,7.484982177734375,0.7113772034645081,-9.350330352783203,-2.653299331665039
1761401349686063000,7.49506298828125,0.7089830040931702,-9.36349868774414,-2.6473135948181152
1761401349696144600,7.50514453125,0.7413046956062317,-9.353772163391113,-2.645069122314453
1761401349706226200,7.51522607421875,0.7508066892623901,-9.325116157531738,-2.652251720428467
1761401349716306700,7.525306640625,0.774748682975769,-9.318981170654297,-2.6535985469818115
1761401349726387700,7.5353876953125,0.795024573802948,-9.315315246582031,-2.666841506958008
1761401349736468500,7.545468505859375,0.7901613712310791,-9.330877304077148,-2.6763434410095215
1761401349746546000,7.5555458984375,0.7627028822898865,-9.323843955993652,-2.6761937141418457
1761401349756652000,7.565652099609375,0.7436240911483765,-9.347786903381348,-2.6642227172851562
1761401349766711800,7.5757119140625,0.7436240911483765,-9.348983764648438,-2.67140531539917
1761401349776793000,7.58579296875,0.7483376860618591,-9.347786903381348,-2.6809821128845215
1761401349786878200,7.595878173828125,0.7567173838615417,-9.332149505615234,-2.690558910369873
1761401349796955100,7.605955078125,0.769810676574707,-9.342848777770996,-2.689436674118042
1761401349807036000,7.616035888671875,0.7865700721740723,-9.355941772460938,-2.6811318397521973
1761401349817117400,7.626117431640625,0.7901613712310791,-9.336862564086914,-2.684723138809204
1761401349827199000,7.636198974609375,0.7784896492958069,-9.30813217163086,-2.68951153755188
1761401349837279700,7.64627978515625,0.7557447552680969,-9.292645454406738,-2.7061960697174072
1761401349847360800,7.65636083984375,0.7569418549537659,-9.314192771911621,-2.7002105712890625
1761401349857442000,7.666442138671875,0.8059481382369995,-9.343820571899414,-2.680159091949463
1761401349867523000,7.676523193359375,0.8060229420661926,-9.352200508117676,-2.6681880950927734
1761401349877604000,7.68660400390625,0.7927800416946411,-9.374945640563965,-2.678887128829956
1761401349887685000,7.69668505859375,0.7581389546394348,-9.354819297790527,-2.682328939437866
1761401349897767000,7.706766845703125,0.7653215527534485,-9.323695182800293,-2.6942999362945557
1761401349907847200,7.71684716796875,0.7829039692878723,-9.310526847839355,-2.71457576751709
1761401349917928400,7.726928466796875,0.768538773059845,-9.316587448120117,-2.715698003768921
1761401349928011800,7.73701171875,0.7781903743743896,-9.342848777770996,-2.6954221725463867
1761401349938090500,7.747090576171875,0.7914332747459412,-9.351153373718262,-2.66444730758667
1761401349948194600,7.757194580078125,0.7699602842330933,-9.356091499328613,-2.6524014472961426
1761401349958252000,7.767251953125,0.773476779460907,-9.334543228149414,-2.665494680404663
1761401349968333300,7.777333251953125,0.7937526702880859,-9.327211380004883,-2.6954970359802246
1761401349978415000,7.7874150390625,0.7971943616867065,-9.311649322509766,-2.736123561859131
1761401349988517000,7.79751708984375,0.8172457814216614,-9.294964790344238,-2.7420341968536377
1761401349998572300,7.807572265625,0.7873930931091309,-9.295113563537598,-2.718017578125
1761401350008658200,7.817658203125,0.749160647392273,-9.303643226623535,-2.721459150314331
1761401350018739000,7.827739013671875,0.7611317038536072,-9.332223892211914,-2.7095630168914795
1761401350028820000,7.837820068359375,0.7360674142837524,-9.352649688720703,-2.7094881534576416
1761401350038901000,7.84790087890625,0.7432500123977661,-9.355043411254883,-2.694000720977783
1761401350048981800,7.857981689453125,0.7612065076828003,-9.338284492492676,-2.6785130500793457
1761401350059063300,7.868063232421875,0.7660697102546692,-9.327510833740234,-2.671330451965332
1761401350069143800,7.878143798828125,0.7713070511817932,-9.324966430664062,-2.6488101482391357
1761401350079202300,7.888202392578125,0.7808838486671448,-9.321300506591797,-2.645293712615967
1761401350089306400,7.898306396484375,0.7903858423233032,-9.322497367858887,-2.6536734104156494
1761401350099388200,7.90838818359375,0.7689128518104553,-9.348834037780762,-2.642899513244629
1761401350109494300,7.918494384765625,0.7474398612976074,-9.363273620605469,-2.640430450439453
1761401350119548700,7.928548583984375,0.753350555896759,-9.366865158081055,-2.6583869457244873
1761401350129630000,7.9386298828125,0.7699602842330933,-9.347637176513672,-2.6811318397521973
1761401350139712500,7.94871240234375,0.7686883807182312,-9.322497367858887,-2.713378667831421
1761401350149792500,7.95879248046875,0.7649474143981934,-9.299901962280273,-2.721608877182007
1761401350159873800,7.968873779296875,0.7745990753173828,-9.301024436950684,-2.712106704711914
1761401350169955600,7.97895556640625,0.7830535769462585,-9.316587448120117,-2.6739492416381836
1761401350180035600,7.98903564453125,0.7939023375511169,-9.332074165344238,-2.645293712615967
1761401350190116600,7.99911669921875,0.7746738791465759,-9.327361106872559,-2.664372444152832
1761401350200198100,8.0091982421875,0.7829787731170654,-9.327285766601562,-2.6942250728607178
1761401350220359700,8.029359619140624,0.8127566576004028,-9.351003646850586,-2.7219080924987793
1761401350230441700,8.039441650390625,0.8103624582290649,-9.331924438476562,-2.711134195327759
1761401350240522200,8.049522216796875,0.7936778664588928,-9.30813217163086,-2.7038018703460693
1761401350250603300,8.059603271484375,0.7841010689735413,-9.312920570373535,-2.71457576751709
1761401350260684800,8.069684814453124,0.7817068696022034,-9.321300506591797,-2.7061960697174072
1761401350270765600,8.079765625,0.7996633648872375,-9.330802917480469,-2.7026796340942383
1761401350280847000,8.08984716796875,0.7912836670875549,-9.328408241271973,-2.7026796340942383
1761401350290927900,8.099927978515625,0.8033294677734375,-9.326014518737793,-2.682403802871704
1761401350301008100,8.110008056640625,0.8104372620582581,-9.330802917480469,-2.6895864009857178
1761401350311089400,8.12008935546875,0.8008604645729065,-9.345168113708496,-2.6943747997283936
1761401350321159000,8.130158935546875,0.771007776260376,-9.354819297790527,-2.693027973175049
1761401350331243300,8.1402431640625,0.7650970816612244,-9.347711563110352,-2.684648275375366
1761401350341333000,8.1503330078125,0.7770680785179138,-9.329754829406738,-2.6762685775756836
1761401350351413800,8.160413818359375,0.7807341814041138,-9.316587448120117,-2.6571898460388184
1761401350361495600,8.17049560546875,0.8034791350364685,-9.320103645324707,-2.6441712379455566
1761401350371576000,8.180576171875,0.7986159324645996,-9.328483581542969,-2.660856008529663
1761401350381657300,8.1906572265625,0.7830535769462585,-9.33806037902832,-2.6583869457244873
1761401350391738000,8.200738037109375,0.7772925496101379,-9.348758697509766,-2.6728270053863525
1761401350401800000,8.210800048828125,0.7593360543251038,-9.355941772460938,-2.682328939437866
1761401350411901000,8.22090087890625,0.7723544836044312,-9.352275848388672,-2.727818727493286
1761401350421965000,8.230965087890626,0.7844003438949585,-9.316437721252441,-2.7158477306365967
1761401350432063200,8.241063232421874,0.7796867489814758,-9.299753189086914,-2.6788125038146973
1761401350442120700,8.25112060546875,0.7618050575256348,-9.30341911315918,-2.669160842895508
1761401350452224500,8.261224609375,0.7939771413803101,-9.315239906311035,-2.6931777000427246
1761401350462306300,8.271306396484375,0.7975684404373169,-9.329530715942383,-2.6908583641052246
1761401350472387600,8.2813876953125,0.81440269947052,-9.328184127807617,-2.704101085662842
1761401350482467600,8.291467529296876,0.8322843909263611,-9.341277122497559,-2.7149498462677
1761401350492548600,8.301548583984374,0.8215852975845337,-9.343746185302734,-2.696993350982666
1761401350502629600,8.311629638671874,0.7880664467811584,-9.339032173156738,-2.708814859390259
1761401350512733400,8.3217333984375,0.7809586524963379,-9.349881172180176,-2.701632261276245
1761401350522792000,8.3317919921875,0.7642740607261658,-9.369034767150879,-2.685995101928711
1761401350532873200,8.341873291015625,0.7595604658126831,-9.347561836242676,-2.663250207901001
1761401350542955000,8.351955078125,0.7632266283035278,-9.310526847839355,-2.6465654373168945
1761401350553035000,8.362034912109374,0.7678653597831726,-9.297433853149414,-2.6548705101013184
1761401350563116500,8.372116455078125,0.7796867489814758,-9.315239906311035,-2.688389301300049
1761401350573197300,8.382197265625,0.7820809483528137,-9.324816703796387,-2.688389301300049
1761401350583278000,8.392278076171875,0.777367353439331,-9.333196640014648,-2.654945135116577
1761401350593360400,8.4023603515625,0.7762450575828552,-9.334468841552734,-2.6489596366882324
1761401350603417900,8.41241796875,0.7762450575828552,-9.332074165344238,-2.6417770385742188
1761401350613523000,8.42252294921875,0.7702595591545105,-9.345242500305176,-2.638185739517212
1761401350623602700,8.432602783203125,0.7701847553253174,-9.354744911193848,-2.6525509357452393
1761401350633661200,8.4426611328125,0.7524527311325073,-9.353547096252441,-2.6740987300872803
1761401350643763700,8.452763671875,0.7513304352760315,-9.324892044067383,-2.6740241050720215
1761401350653845500,8.462845458984376,0.7632266283035278,-9.321226119995117,-2.680084228515625
1761401350663926800,8.4729267578125,0.7656208276748657,-9.322422981262207,-2.677690029144287
1761401350673989600,8.48298974609375,0.782380223274231,-9.336712837219238,-2.6645967960357666
1761401350684088600,8.493088623046875,0.781183123588562,-9.34269905090332,-2.6622025966644287
1761401350694170600,8.503170654296875,0.8026561141014099,-9.336564064025879,-2.676642656326294
1761401350704228600,8.513228515625,0.7977181077003479,-9.343746185302734,-2.718466281890869
1761401350714291700,8.523291748046875,0.7924059629440308,-9.329605102539062,-2.731335163116455
1761401350724413000,8.533412841796874,0.7769184708595276,-9.334468841552734,-2.7061960697174072
1761401350734494200,8.543494140625,0.7877671718597412,-9.327285766601562,-2.68951153755188
1761401350744575700,8.55357568359375,0.773476779460907,-9.326164245605469,-2.6750714778900146
1761401350754657000,8.563656982421875,0.7698854804039001,-9.330952644348145,-2.6798598766326904
1761401350764737500,8.573737548828126,0.7531260848045349,-9.340603828430176,-2.6761937141418457
1761401350774797000,8.583797119140625,0.7459434866905212,-9.33701229095459,-2.6809821128845215
1761401350784898800,8.59389892578125,0.7662941813468933,-9.332149505615234,-2.6798598766326904
1761401350794980600,8.603980712890625,0.7640495896339417,-9.326164245605469,-2.663175344467163
1761401350805062100,8.614062255859375,0.7688380479812622,-9.336862564086914,-2.6583869457244873
1761401350815143200,8.62414306640625,0.773626446723938,-9.334468841552734,-2.661978244781494
1761401350825224200,8.63422412109375,0.7652466893196106,-9.347637176513672,-2.6715550422668457
1761401350835305700,8.6443056640625,0.7616553902626038,-9.348834037780762,-2.6763434410095215
1761401350845363000,8.654363037109375,0.7555950880050659,-9.357213973999023,-2.6990134716033936
1761401350855468300,8.66446826171875,0.7807341814041138,-9.337985038757324,-2.6787376403808594
1761401350865548300,8.67454833984375,0.7713818550109863,-9.30581283569336,-2.636914014816284
1761401350875606500,8.6846064453125,0.7586626410484314,-9.30454158782959,-2.6215012073516846
1761401350885709800,8.694709716796876,0.7776666283607483,-9.30686092376709,-2.656217098236084
1761401350895791600,8.70479150390625,0.7668179273605347,-9.333196640014648,-2.6740987300872803
1761401350905872100,8.7148720703125,0.7691373229026794,-9.348684310913086,-2.701632261276245
1761401350915954000,8.724953857421875,0.7499836683273315,-9.361852645874023,-2.6967689990997314
1761401350926034700,8.73503466796875,0.7488613724708557,-9.359533309936523,-2.685995101928711
1761401350936115000,8.745114990234375,0.7489362359046936,-9.345168113708496,-2.6728270053863525
1761401350946196500,8.755196533203126,0.7751976251602173,-9.329530715942383,-2.682478666305542
1761401350956243000,8.765242919921874,0.7844751477241516,-9.345168113708496,-2.6717045307159424
1761401350966359600,8.775359619140625,0.7917325496673584,-9.3450927734375,-2.657414197921753
1761401350976439800,8.785439697265625,0.8132804036140442,-9.356988906860352,-2.6419267654418945
1761401350986521000,8.79552099609375,0.777367353439331,-9.348758697509766,-2.6465654373168945
1761401350996602600,8.8056025390625,0.7809586524963379,-9.352350234985352,-2.6453683376312256
1761401351006682600,8.8156826171875,0.7844751477241516,-9.359457969665527,-2.6669161319732666
1761401351016753400,8.82575341796875,0.7892635464668274,-9.331999778747559,-2.676492929458618
1761401351026845400,8.835845458984375,0.7737012505531311,-9.309329986572266,-2.6978912353515625
1761401351036926200,8.84592626953125,0.771007776260376,-9.30222225189209,-2.7085154056549072
1761401351047007000,8.856007080078125,0.7530512809753418,-9.329830169677734,-2.7012581825256348
1761401351057087700,8.866087646484376,0.7603086829185486,-9.327361106872559,-2.688164710998535
1761401351067169300,8.876169189453124,0.7674912810325623,-9.327361106872559,-2.671480178833008
1761401351077250600,8.88625048828125,0.7735515832901001,-9.328557968139648,-2.6559927463531494
1761401351087331600,8.89633154296875,0.7674912810325623,-9.342923164367676,-2.663100481033325
1761401351097402000,8.906402099609375,0.7710825800895691,-9.326164245605469,-2.6726772785186768
1761401351107494100,8.916494140625,0.7986159324645996,-9.334393501281738,-2.66444730758667
1761401351117574700,8.92657470703125,0.7928548455238342,-9.336712837219238,-2.6729016304016113
1761401351127656200,8.93665625,0.7880664467811584,-9.334393501281738,-2.680084228515625
1761401351137731000,8.94673095703125,0.7676409482955933,-9.34397029876709,-2.7158477306365967
1761401351147817200,8.956817138671875,0.7676409482955933,-9.34037971496582,-2.713453531265259
1761401351157898800,8.966898681640625,0.7689128518104553,-9.351153373718262,-2.688389301300049
1761401351167985000,8.97698486328125,0.7618050575256348,-9.324892044067383,-2.66676664352417
1761401351178060300,8.987060302734376,0.7606079578399658,-9.322497367858887,-2.6799347400665283
1761401351188142800,8.997142822265625,0.7845499515533447,-9.334393501281738,-2.6669161319732666
1761401351198224100,9.00722412109375,0.7806593775749207,-9.335665702819824,-2.669160842895508
1761401351208281000,9.017281005859376,0.7686883807182312,-9.33933162689209,-2.671480178833008
1761401351218385200,9.02738525390625,0.7471405863761902,-9.317858695983887,-2.6868927478790283
1761401351228465700,9.037465576171876,0.7531260848045349,-9.293992042541504,-2.694075345993042
1761401351238547000,9.047546875,0.7877671718597412,-9.320103645324707,-2.688314437866211
1761401351248628200,9.057628173828125,0.7984662652015686,-9.361852645874023,-2.6895864009857178
1761401351258709800,9.067709716796875,0.7852981686592102,-9.369110107421875,-2.6966941356658936
1761401351268790500,9.07779052734375,0.7721300721168518,-9.344045639038086,-2.7073183059692383
1761401351278871600,9.08787158203125,0.7457938194274902,-9.331027030944824,-2.7263224124908447
1761401351299033300,9.108033447265624,0.7184101343154907,-9.3096284866333,-2.703502655029297
1761401351309111800,9.11811181640625,0.7304559946060181,-9.308431625366211,-2.667739152908325
1761401351319196000,9.12819580078125,0.7782651782035828,-9.323769569396973,-2.6738743782043457
1761401351329277000,9.13827685546875,0.7770680785179138,-9.323769569396973,-2.6834511756896973
1761401351339358700,9.148358642578126,0.8008604645729065,-9.317634582519531,-2.7146506309509277
1761401351349415700,9.158415771484375,0.8115595579147339,-9.334319114685059,-2.727818727493286
1761401351359519500,9.16851953125,0.8001123070716858,-9.341352462768555,-2.7340288162231445
1761401351369601500,9.1786015625,0.7761702537536621,-9.321150779724121,-2.7362732887268066
1761401351379682000,9.18868212890625,0.7690624594688416,-9.327136039733887,-2.7159225940704346
1761401351389763000,9.19876318359375,0.7559691667556763,-9.323619842529297,-2.7158477306365967
1761401351399844900,9.208844970703124,0.7440729737281799,-9.328483581542969,-2.6990883350372314
1761401351409924600,9.218924560546874,0.7333738803863525,-9.348834037780762,-2.682328939437866
1761401351420006700,9.229006591796875,0.7537246346473694,-9.348758697509766,-2.662127733230591
1761401351430088000,9.239087890625,0.7764695286750793,-9.354669570922852,-2.6479122638702393
1761401351440168400,9.24916845703125,0.7639747858047485,-9.317858695983887,-2.663100481033325
1761401351450249700,9.259249755859376,0.7627028822898865,-9.296311378479004,-2.6785879135131836
1761401351460330800,9.269330810546874,0.751928985118866,-9.30237102508545,-2.694075345993042
1761401351470412500,9.27941259765625,0.7603086829185486,-9.325041770935059,-2.686967611312866
1761401351480488200,9.28948828125,0.7555202841758728,-9.346514701843262,-2.6797850131988525
1761401351490574300,9.29957421875,0.7793874740600586,-9.352425575256348,-2.6799347400665283
1761401351500655400,9.3096552734375,0.771007776260376,-9.342848777770996,-2.6966192722320557
1761401351510713600,9.319713623046875,0.768538773059845,-9.317784309387207,-2.7204864025115967
1761401351520797400,9.32979736328125,0.7412298917770386,-9.310676574707031,-2.713229179382324
1761401351530898700,9.339898681640625,0.7329249978065491,-9.323843955993652,-2.698863983154297
1761401351540979500,9.3499794921875,0.7496843934059143,-9.333346366882324,-2.6750714778900146
1761401351551059700,9.360059814453125,0.7628524899482727,-9.345242500305176,-2.6727521419525146
1761401351561119200,9.370119140625,0.7735515832901001,-9.330877304077148,-2.685920238494873
1761401351571223000,9.38022314453125,0.7770680785179138,-9.315315246582031,-2.7181670665740967
1761401351581304300,9.39030419921875,0.7769932746887207,-9.330802917480469,-2.7433061599731445
1761401351591366000,9.400365966796874,0.7996633648872375,-9.327136039733887,-2.751760721206665
1761401351601465300,9.41046533203125,0.7662193775177002,-9.330877304077148,-2.7420341968536377
1761401351611546600,9.420546630859375,0.7555202841758728,-9.315389633178711,-2.7204864025115967
1761401351621628000,9.4306279296875,0.7483376860618591,-9.327361106872559,-2.716820478439331
1761401351631709000,9.440708984375,0.7638999819755554,-9.350030899047852,-2.712181568145752
1761401351641789700,9.450789794921874,0.7795370817184448,-9.333271980285645,-2.684723138809204
1761401351651871200,9.460871337890625,0.7688380479812622,-9.310601234436035,-2.6786627769470215
1761401351661951200,9.470951171875,0.7652466893196106,-9.301024436950684,-2.6798598766326904
1761401351672033500,9.481033447265625,0.7950994372367859,-9.317634582519531,-2.6919806003570557
1761401351682114300,9.4911142578125,0.7974936366081238,-9.336712837219238,-2.68719220161438
1761401351692195000,9.501195068359374,0.7783399820327759,-9.366715431213379,-2.6716299057006836
1761401351702276400,9.5112763671875,0.7413046956062317,-9.352499961853027,-2.6761937141418457
1761401351712357400,9.521357421875,0.7591863870620728,-9.352425575256348,-2.7026047706604004
1761401351722438700,9.531438720703125,0.7555202841758728,-9.348834037780762,-2.715698003768921
1761401351732519400,9.54151953125,0.7855226397514343,-9.315315246582031,-2.684723138809204
1761401351742600400,9.551600341796876,0.7665186524391174,-9.30229663848877,-2.6535985469818115
1761401351752681700,9.561681640625,0.7628524899482727,-9.310601234436035,-2.6750714778900146
1761401351762762500,9.571762451171875,0.7817816734313965,-9.311799049377441,-2.6990134716033936
1761401351772843000,9.581843017578125,0.7828291654586792,-9.303343772888184,-2.731260299682617
1761401351782924800,9.5919248046875,0.7684639096260071,-9.326088905334473,-2.7467479705810547
1761401351793005300,9.60200537109375,0.7888146638870239,-9.364246368408203,-2.730138063430786
1761401351803087400,9.61208740234375,0.7888146638870239,-9.361852645874023,-2.7265467643737793
1761401351813168400,9.62216845703125,0.7995137572288513,-9.337910652160645,-2.7385177612304688
1761401351823249700,9.632249755859375,0.8031798601150513,-9.317634582519531,-2.730138063430786
1761401351833329700,9.64232958984375,0.770858108997345,-9.301024436950684,-2.7455508708953857
1761401351843410700,9.65241064453125,0.7646481394767761,-9.296385765075684,-2.744204044342041
1761401351853492500,9.662492431640626,0.7563433051109314,-9.29997730255127,-2.725050449371338
1761401351863569000,9.67256884765625,0.7445219159126282,-9.310826301574707,-2.6867432594299316
1761401351873654500,9.682654541015625,0.7338228225708008,-9.318083763122559,-2.6639983654022217
1761401351883735300,9.6927353515625,0.7492355108261108,-9.325116157531738,-2.6916065216064453
1761401351893816600,9.702816650390625,0.7504326105117798,-9.322722434997559,-2.69991135597229
1761401351903904000,9.712904052734375,0.767192006111145,-9.346589088439941,-2.694075345993042
1761401351913962200,9.722962158203124,0.786270797252655,-9.338134765625,-2.692953109741211
1761401351924059000,9.733058837890624,0.7901613712310791,-9.317708969116211,-2.6799347400665283
1761401351934118100,9.7431181640625,0.7782651782035828,-9.321375846862793,-2.664372444152832
1761401351944222000,9.753221923828125,0.7962216734886169,-9.347561836242676,-2.6572647094726562
1761401351954302500,9.763302490234375,0.7949497699737549,-9.34157657623291,-2.6811318397521973
1761401351964361200,9.773361328125,0.7781903743743896,-9.333271980285645,-2.685845375061035
1761401351974465500,9.783465576171874,0.772279679775238,-9.326164245605469,-2.665494680404663
1761401351984546600,9.793546630859375,0.7674912810325623,-9.330952644348145,-2.667888879776001
1761401351994626000,9.8036259765625,0.754397988319397,-9.346589088439941,-2.6559178829193115
1761401352004708400,9.813708251953125,0.7684639096260071,-9.339406967163086,-2.6630256175994873
1761401352014788900,9.823788818359375,0.7719056010246277,-9.326238632202148,-2.697666883468628
1761401352024847600,9.83384765625,0.786270797252655,-9.322572708129883,-2.7037270069122314
1761401352034928600,9.8439287109375,0.8125321865081787,-9.34037971496582,-2.7026047706604004
1761401352045009400,9.854009521484375,0.8221089839935303,-9.353472709655762,-2.6966941356658936
1761401352055089200,9.864089111328125,0.7947252988815308,-9.328557968139648,-2.6738743782043457
1761401352065195000,9.874195068359375,0.7791630029678345,-9.33693790435791,-2.690558910369873
1761401352075275800,9.88427587890625,0.7659949064254761,-9.348983764648438,-2.694075345993042
1761401352085357300,9.894357421875,0.7554454803466797,-9.323843955993652,-2.697666883468628
1761401352095437600,9.9044375,0.7542483806610107,-9.287931442260742,-2.719139814376831
1761401352105518000,9.91451806640625,0.7577648162841797,-9.275959968566895,-2.739490509033203
1761401352115576800,9.924576904296876,0.7852981686592102,-9.309329986572266,-2.7276690006256104
1761401352125680600,9.9346806640625,0.7984662652015686,-9.348684310913086,-2.705073833465576
1761401352135762000,9.944761962890626,0.791358470916748,-9.366715431213379,-2.681206703186035
1761401352145842700,9.9548427734375,0.769810676574707,-9.350030899047852,-2.689436674118042
1761401352155924500,9.964924560546875,0.7661445140838623,-9.314192771911621,-2.722805976867676
1761401352165982700,9.974982666015626,0.7974936366081238,-9.299603462219238,-2.731410026550293
1761401352176085500,9.98508544921875,0.7844003438949585,-9.290176391601562,-2.711059331893921
1761401352186168000,9.99516796875,0.7712322473526001,-9.310526847839355,-2.705073833465576
1761401352196225500,10.0052255859375,0.7843255400657654,-9.315239906311035,-2.7242274284362793
1761401352206329300,10.015329345703124,0.7867197394371033,-9.312846183776855,-2.7242274284362793
1761401352216410400,10.025410400390625,0.7962965369224548,-9.319953918457031,-2.7231051921844482
1761401352226491600,10.03549169921875,0.8081927299499512,-9.335441589355469,-2.727968454360962
1761401352236572400,10.045572509765625,0.7986907362937927,-9.333046913146973,-2.7219080924987793
1761401352246653400,10.0556533203125,0.7851485013961792,-9.324892044067383,-2.7192893028259277
1761401352256734200,10.065734130859376,0.8078934550285339,-9.328408241271973,-2.6978912353515625
1761401352266815000,10.07581494140625,0.7959972620010376,-9.336862564086914,-2.6966192722320557
1761401352276897500,10.0858974609375,0.7900117635726929,-9.326088905334473,-2.690633773803711
1761401352286977800,10.095977783203125,0.7912836670875549,-9.322572708129883,-2.6726772785186768
1761401352297045200,10.106045166015624,0.8044517636299133,-9.336862564086914,-2.6703579425811768
1761401352307139600,10.1161396484375,0.807968258857727,-9.335591316223145,-2.683526039123535
1761401352317213200,10.126213134765624,0.8114847540855408,-9.320028305053711,-2.7026796340942383
1761401352327302000,10.136302001953124,0.7926303744316101,-9.322422981262207,-2.6967689990997314
1761401352337383000,10.1463828125,0.7830535769462585,-9.312920570373535,-2.715772867202759
1761401352347464200,10.156464111328125,0.7567921876907349,-9.317784309387207,-2.7073183059692383
1761401352357546000,10.1665458984375,0.7591115832328796,-9.333271980285645,-2.7216835021972656
1761401352367626200,10.176626220703126,0.7878419756889343,-9.30925464630127,-2.7194390296936035
1761401352377707300,10.186707275390624,0.7675660848617554,-9.296236038208008,-2.712106704711914
1761401352387788000,10.1967880859375,0.7843255400657654,-9.309329986572266,-2.688314437866211
1761401352397868800,10.206868896484375,0.7974936366081238,-9.347487449645996,-2.6645219326019287
1761401352407950000,10.2169501953125,0.8032546639442444,-9.34165096282959,-2.666841506958008
1761401352418034000,10.227033935546874,0.8138789534568787,-9.316437721252441,-2.711059331893921
1761401352428112600,10.237112548828126,0.8161983489990234,-9.30686092376709,-2.730138063430786
1761401352438182400,10.247182373046876,0.809015691280365,-9.317634582519531,-2.7277438640594482
1761401352448252000,10.257251953125,0.8066214919090271,-9.333196640014648,-2.7217583656311035
1761401352458356000,10.26735595703125,0.7766939997673035,-9.3404541015625,-2.7335798740386963
1761401352468436700,10.277436767578125,0.7790881991386414,-9.329680442810059,-2.744353771209717
1761401352478505200,10.287505126953125,0.7863456010818481,-9.327285766601562,-2.7240777015686035
1761401352488575000,10.297574951171875,0.779761552810669,-9.314043045043945,-2.7003602981567383
1761401352498679600,10.307679443359374,0.8072200417518616,-9.338957786560059,-2.702903985977173
1761401352508754000,10.31775390625,0.8490437865257263,-9.35197639465332,-2.6995372772216797
1761401352518842400,10.32784228515625,0.8204630017280579,-9.318607330322266,-2.6898107528686523
1761401352528924200,10.337924072265626,0.8013094067573547,-9.299603462219238,-2.6992380619049072
1761401352539004000,10.34800390625,0.8001123070716858,-9.293617248535156,-2.6908583641052246
1761401352549085000,10.3580849609375,0.7869441509246826,-9.30918025970459,-2.706345796585083
1761401352559167000,10.3681669921875,0.7689876556396484,-9.334393501281738,-2.706345796585083
1761401352569246700,10.378246826171875,0.7746738791465759,-9.351153373718262,-2.705073833465576
1761401352579328300,10.388328369140625,0.775945782661438,-9.34397029876709,-2.6954970359802246
1761401352589409300,10.3984091796875,0.7878419756889343,-9.337985038757324,-2.7158477306365967
1761401352599490800,10.40849072265625,0.8021323680877686,-9.327136039733887,-2.726621627807617
1761401352609571600,10.418571533203124,0.7997381687164307,-9.300874710083008,-2.7182419300079346
1761401352619645700,10.428645751953125,0.7939023375511169,-9.266308784484863,-2.682328939437866
1761401352629689300,10.438689453125,0.7962965369224548,-9.2817964553833,-2.685920238494873
1761401352639814100,10.448814208984375,0.7855226397514343,-9.326014518737793,-2.6942999362945557
1761401352649895200,10.458895263671875,0.7986159324645996,-9.330727577209473,-2.7003602981567383
1761401352659976400,10.4689765625,0.8236802220344543,-9.360506057739258,-2.699312686920166
1761401352670058500,10.47905859375,0.8260744214057922,-9.356914520263672,-2.7076923847198486
1761401352680138800,10.489138671875,0.8057236671447754,-9.354595184326172,-2.708739995956421
1761401352690220000,10.499219970703125,0.7974188327789307,-9.348684310913086,-2.705148696899414
1761401352700300800,10.50930078125,0.7926303744316101,-9.341501235961914,-2.7015573978424072
1761401352710366700,10.51936669921875,0.7627776861190796,-9.335665702819824,-2.69183087348938
1761401352720462600,10.529462646484374,0.756866991519928,-9.314192771911621,-2.689361810684204
1761401352730543900,10.5395439453125,0.7653963565826416,-9.292645454406738,-2.6811318397521973
1761401352740625200,10.549625244140625,0.798840343952179,-9.30805778503418,-2.6729016304016113
1761401352750707000,10.55970703125,0.7927800416946411,-9.316437721252441,-2.6931777000427246
1761401352760787500,10.569787353515625,0.7999626398086548,-9.328333854675293,-2.6992380619049072
1761401352770868200,10.5798681640625,0.7987655401229858,-9.319953918457031,-2.6896612644195557
1761401352780950000,10.589949951171874,0.7975684404373169,-9.319953918457031,-2.6956467628479004
1761401352791031300,10.60003125,0.776095449924469,-9.316437721252441,-2.6954970359802246
1761401352801112000,10.610112060546875,0.7594108581542969,-9.336862564086914,-2.6799347400665283
1761401352811185200,10.62018505859375,0.7638251781463623,-9.353772163391113,-2.6618285179138184
1761401352821250800,10.630250732421874,0.7553706169128418,-9.338210105895996,-2.6773159503936768
1761401352831355600,10.640355712890624,0.7613561153411865,-9.305962562561035,-2.6856956481933594
1761401352841436000,10.650435791015624,0.787617564201355,-9.296236038208008,-2.691756010055542
1761401352851517000,10.660516845703125,0.8090905547142029,-9.310526847839355,-2.705073833465576
1761401352861598700,10.6705986328125,0.8270470499992371,-9.315165519714355,-2.708739995956421
1761401352871678200,10.68067822265625,0.8222586512565613,-9.323545455932617,-2.709862232208252
1761401352881760300,10.69076025390625,0.8007108569145203,-9.335591316223145,-2.7181670665740967
1761401352891840300,10.70084033203125,0.8084171414375305,-9.344943046569824,-2.7100865840911865
1761401352901899500,10.7108994140625,0.8072200417518616,-9.331775665283203,-2.7136778831481934
1761401352912003000,10.721003173828125,0.7965209484100342,-9.343820571899414,-2.700509786605835
1761401352922084600,10.731084716796875,0.7989152073860168,-9.343820571899414,-2.6921300888061523
1761401352932142300,10.741142333984374,0.8036287426948547,-9.319878578186035,-2.7076923847198486
1761401352942246700,10.75124658203125,0.7856722474098206,-9.301997184753418,-2.731484889984131
1761401352952327400,10.761327392578124,0.7881412506103516,-9.327136039733887,-2.702829360961914
1761401352962409000,10.771408935546875,0.797792911529541,-9.339032173156738,-2.675370693206787
1761401352972490000,10.781489990234375,0.8057985305786133,-9.323619842529297,-2.6572647094726562
1761401352982571000,10.791571044921875,0.7998130321502686,-9.30573844909668,-2.6692357063293457
1761401352992652300,10.80165234375,0.8045265674591064,-9.30573844909668,-2.687117338180542
1761401353002732500,10.811732666015626,0.8115595579147339,-9.339107513427734,-2.730212926864624
1761401353012795600,10.821795654296874,0.8186673521995544,-9.327061653137207,-2.7445781230926514
1761401353022895900,10.831895751953125,0.8151508569717407,-9.341426849365234,-2.727893590927124
1761401353032975000,10.84197509765625,0.8174702525138855,-9.351003646850586,-2.7338790893554688
1761401353043057200,10.85205712890625,0.8007108569145203,-9.341501235961914,-2.7421090602874756
1761401353053138200,10.86213818359375,0.7875427007675171,-9.287857055664062,-2.7192893028259277
1761401353063219000,10.872218994140624,0.7637503147125244,-9.260547637939453,-2.7035775184631348
1761401353073300200,10.88230029296875,0.770858108997345,-9.26526165008545,-2.7263224124908447
1761401353083360000,10.892360107421876,0.8019079566001892,-9.290176391601562,-2.7276690006256104
1761401353093461800,10.902461669921875,0.8185925483703613,-9.327136039733887,-2.726621627807617
1761401353103543600,10.91254345703125,0.846051037311554,-9.359308242797852,-2.7315597534179688
1761401353113624800,10.922624755859376,0.8364742398262024,-9.37008285522461,-2.7338790893554688
1761401353123706000,10.9327060546875,0.8316858410835266,-9.341426849365234,-2.7385926246643066
1761401353133786600,10.94278662109375,0.8200889229774475,-9.326987266540527,-2.744727849960327
1761401353143868000,10.952867919921875,0.8069956302642822,-9.317484855651855,-2.748244285583496
1761401353153948400,10.962948486328125,0.8010101318359375,-9.31509017944336,-2.7434558868408203
1761401353164029700,10.97302978515625,0.7808090448379517,-9.30925464630127,-2.708665132522583
1761401353174110000,10.98310986328125,0.7868693470954895,-9.302072525024414,-2.68719220161438
1761401353184191500,10.99319140625,0.7665186524391174,-9.309329986572266,-2.68951153755188
1761401353194282000,11.003281982421875,0.7748235464096069,-9.321226119995117,-2.6990883350372314
1761401353204331500,11.01333154296875,0.8022820353507996,-9.303194046020508,-2.7183167934417725
1761401353214436000,11.02343603515625,0.8082675337791443,-9.306785583496094,-2.7100119590759277
1761401353224515600,11.033515625,0.8095394372940063,-9.321150779724121,-2.6873416900634766
1761401353234597000,11.04359716796875,0.7975684404373169,-9.322347640991211,-2.705148696899414
1761401353244660200,11.05366015625,0.8034791350364685,-9.341426849365234,-2.7183916568756104
1761401353254759200,11.06375927734375,0.7879168391227722,-9.341501235961914,-2.731410026550293
1761401353264840700,11.0738408203125,0.7735515832901001,-9.327211380004883,-2.7218332290649414
1761401353274921200,11.083921142578125,0.774748682975769,-9.324816703796387,-2.726621627807617
1761401353284979000,11.09397900390625,0.7891139388084412,-9.30925464630127,-2.7182419300079346
1761401353295083300,11.104083251953124,0.7956231236457825,-9.308207511901855,-2.7263972759246826
1761401353305164800,11.114164794921875,0.8230816721916199,-9.311723709106445,-2.7276690006256104
1761401353315229700,11.124229736328125,0.823006808757782,-9.30925464630127,-2.7527334690093994
1761401353325341400,11.134341552734375,0.8074445128440857,-9.300950050354004,-2.762235403060913
1761401353335389400,11.144389404296875,0.8146271109580994,-9.317708969116211,-2.7527334690093994
1761401353345488600,11.154488525390626,0.8003367185592651,-9.344045639038086,-2.743156671524048
1761401353355569400,11.1645693359375,0.7861211895942688,-9.340529441833496,-2.7120320796966553
1761401353365651200,11.174651123046875,0.7909095883369446,-9.3142671585083,-2.695272445678711
1761401353375732200,11.184732177734375,0.8189666271209717,-9.305588722229004,-2.702829360961914
1761401353385813200,11.194813232421875,0.7985410690307617,-9.327136039733887,-2.726621627807617
1761401353395894000,11.20489404296875,0.7854477763175964,-9.330802917480469,-2.706270933151245
1761401353405974800,11.214974853515624,0.7770680785179138,-9.320103645324707,-2.7049989700317383
1761401353416034300,11.225034423828125,0.7830535769462585,-9.299753189086914,-2.709787368774414
1761401353426137000,11.23513720703125,0.8010101318359375,-9.290101051330566,-2.706270933151245
1761401353436217300,11.24521728515625,0.8214356303215027,-9.331850051879883,-2.675370693206787
1761401353446299600,11.255299560546876,0.8226327300071716,-9.361777305603027,-2.6622774600982666
1761401353456380400,11.26538037109375,0.8140285611152649,-9.336712837219238,-2.685995101928711
1761401353466462500,11.27546240234375,0.8007108569145203,-9.320028305053711,-2.750488758087158
1761401353476542700,11.285542724609375,0.7850736975669861,-9.30925464630127,-2.782660961151123
1761401353486623700,11.295623779296875,0.7959972620010376,-9.315239906311035,-2.7373206615448
1761401353496704500,11.30570458984375,0.7878419756889343,-9.321300506591797,-2.667963743209839
1761401353506784800,11.31578466796875,0.8105869293212891,-9.300950050354004,-2.663250207901001
1761401353516866300,11.3258662109375,0.811634361743927,-9.288904190063477,-2.71225643157959
1761401353526947800,11.33594775390625,0.8150760531425476,-9.291223526000977,-2.756474256515503
1761401353537029000,11.346029052734375,0.8426841497421265,-9.308955192565918,-2.7806408405303955
1761401353547110000,11.35610986328125,0.8414870500564575,-9.308955192565918,-2.8021137714385986
1761401353557190100,11.366190185546875,0.8343793153762817,-9.310153007507324,-2.774655342102051
1761401353567272000,11.37627197265625,0.8081927299499512,-9.325864791870117,-2.7422587871551514
1761401353577381400,11.38638134765625,0.7962216734886169,-9.340229988098145,-2.7326819896698
1761401353587414800,11.396414794921874,0.7986159324645996,-9.336638450622559,-2.7362732887268066
1761401353597514200,11.40651416015625,0.7711573839187622,-9.318831443786621,-2.731335163116455
1761401353607575800,11.416575927734375,0.7795370817184448,-9.303269386291504,-2.7230303287506104
1761401353617677800,11.426677734375,0.7926303744316101,-9.297284126281738,-2.7170448303222656
1761401353627757600,11.436757568359376,0.7996633648872375,-9.302072525024414,-2.7468974590301514
1761401353637838800,11.4468388671875,0.8129063248634338,-9.300800323486328,-2.725499391555786
1761401353647921200,11.456921142578125,0.7962216734886169,-9.320028305053711,-2.706270933151245
1761401353658005500,11.467005615234376,0.7926303744316101,-9.322422981262207,-2.7014825344085693
1761401353668082000,11.47708203125,0.8260744214057922,-9.325864791870117,-2.7136032581329346
1761401353678166800,11.487166748046874,0.8439561128616333,-9.322198867797852,-2.7280433177948
1761401353688244700,11.49724462890625,0.8188169598579407,-9.307908058166504,-2.749441385269165
1761401353698325000,11.507324951171874,0.8043021559715271,-9.300874710083008,-2.762385129928589
1761401353708406800,11.51740673828125,0.7911339998245239,-9.31045150756836,-2.763582229614258
1761401353718464500,11.527464599609376,0.805499255657196,-9.303269386291504,-2.751685857772827
1761401353728568300,11.537568359375,0.8043769598007202,-9.311649322509766,-2.7230303287506104
1761401353738649600,11.547649658203126,0.8247276544570923,-9.31037712097168,-2.711134195327759
1761401353748731400,11.5577314453125,0.8271218538284302,-9.325864791870117,-2.70761775970459
1761401353758811600,11.567811767578124,0.8258499503135681,-9.328258514404297,-2.730287790298462
1761401353768893000,11.577892822265625,0.8197896480560303,-9.321076393127441,-2.7625346183776855
1761401353778974700,11.587974609375,0.8186673521995544,-9.299528121948242,-2.7852795124053955
1761401353789054700,11.5980546875,0.8150760531425476,-9.304316520690918,-2.7959787845611572
1761401353799135500,11.608135498046876,0.8199392557144165,-9.31389331817627,-2.7578210830688477
1761401353809217800,11.6182177734375,0.8224082589149475,-9.31389331817627,-2.7350761890411377
1761401353819275500,11.628275634765625,0.8427590131759644,-9.31621265411377,-2.7351510524749756
1761401353829397000,11.63839697265625,0.8212111592292786,-9.333046913146973,-2.7386674880981445
1761401353839459600,11.64845947265625,0.812831461429596,-9.333046913146973,-2.7326819896698
1761401353849542000,11.6585419921875,0.7842506766319275,-9.299753189086914,-2.7217583656311035
1761401353859622400,11.668622314453126,0.7818564772605896,-9.277082443237305,-2.7181670665740967
1761401353869703400,11.678703369140624,0.8046762347221375,-9.31045150756836,-2.688389301300049
1761401353879784400,11.688784423828125,0.775945782661438,-9.333271980285645,-2.6787376403808594
1761401353889866000,11.698865966796875,0.795024573802948,-9.330802917480469,-2.7003602981567383
1761401353899946500,11.708946533203125,0.7949497699737549,-9.312846183776855,-2.7373955249786377
1761401353910020900,11.719020751953124,0.8008604645729065,-9.307982444763184,-2.751685857772827
1761401353920108800,11.72910888671875,0.8366986513137817,-9.31621265411377,-2.7411365509033203
1761401353930189800,11.73918994140625,0.8164227604866028,-9.316287994384766,-2.729090690612793
1761401353940270300,11.749270263671875,0.7952490448951721,-9.297208786010742,-2.7148003578186035
1761401353950352000,11.759351806640625,0.8012345433235168,-9.284040451049805,-2.7183916568756104
1761401353960432600,11.7694326171875,0.8048258423805237,-9.303119659423828,-2.725574254989624
1761401353970491000,11.779490966796875,0.8130559325218201,-9.311424255371094,-2.750713348388672
1761401353980596000,11.789595947265624,0.8201637268066406,-9.330503463745117,-2.766275644302368
1761401353990660900,11.799660888671875,0.8249521255493164,-9.319729804992676,-2.765078544616699
1761401354000757000,11.809757080078125,0.833331823348999,-9.322123527526855,-2.7543795108795166
1761401354010794800,11.819794677734375,0.85487961769104,-9.32077693939209,-2.7568483352661133
1761401354020929800,11.8299296875,0.8536825180053711,-9.324368476867676,-2.761636734008789
1761401354031000300,11.840000244140626,0.8226327300071716,-9.320926666259766,-2.7566988468170166
1761401354041080800,11.850080810546874,0.7975684404373169,-9.304316520690918,-2.7338790893554688
1761401354051162600,11.86016259765625,0.7952490448951721,-9.301997184753418,-2.7124061584472656
1761401354061244200,11.870244140625,0.7845499515533447,-9.299677848815918,-2.707542896270752
1761401354071324400,11.880324462890625,0.7808838486671448,-9.30918025970459,-2.7231051921844482
1761401354081405400,11.890405517578126,0.79764324426651,-9.305588722229004,-2.7207858562469482
1761401354091486700,11.90048681640625,0.81440269947052,-9.31269645690918,-2.701706886291504
1761401354101568300,11.910568359375,0.8092401623725891,-9.315239906311035,-2.713453531265259
1761401354111648800,11.920648681640625,0.8103624582290649,-9.316437721252441,-2.7170448303222656
1761401354121729300,11.930729248046875,0.8115595579147339,-9.316362380981445,-2.730212926864624
1761401354131811000,11.94081103515625,0.8007108569145203,-9.314043045043945,-2.7445032596588135
1761401354141892000,11.95089208984375,0.7995137572288513,-9.323545455932617,-2.755277156829834
1761401354151973400,11.960973388671874,0.805499255657196,-9.321150779724121,-2.7433061599731445
1761401354162030800,11.97103076171875,0.8102876543998718,-9.31157398223877,-2.7480945587158203
1761401354172135200,11.98113525390625,0.8078934550285339,-9.299677848815918,-2.7457003593444824
1761401354182216000,11.9912158203125,0.8119336366653442,-9.294739723205566,-2.7399394512176514
1761401354192297000,12.001296875,0.8059481382369995,-9.283966064453125,-2.7434558868408203
1761401354202377500,12.01137744140625,0.8093898296356201,-9.2887544631958,-2.7876737117767334
1761401354212459300,12.021459228515624,0.8201637268066406,-9.31733512878418,-2.7782466411590576
1761401354222519800,12.031519775390626,0.8177695274353027,-9.329306602478027,-2.765078544616699
1761401354232621000,12.04162109375,0.7927800416946411,-9.31509017944336,-2.7410616874694824
1761401354242702300,12.051702392578125,0.798840343952179,-9.292420387268066,-2.725499391555786
1761401354252782800,12.061782958984375,0.8119336366653442,-9.298331260681152,-2.729165554046631
1761401354262864000,12.07186376953125,0.7949497699737549,-9.322347640991211,-2.7373955249786377
1761401354272939300,12.081939208984375,0.8092401623725891,-9.31037712097168,-2.7421839237213135
1761401354283026400,12.0920263671875,0.831910252571106,-9.301922798156738,-2.7590181827545166
1761401354293107200,12.102107177734375,0.8247276544570923,-9.292346000671387,-2.7554268836975098
1761401354303189500,12.112189453125,0.8056488633155823,-9.324742317199707,-2.7397897243499756
1761401354313273900,12.12227392578125,0.8069207668304443,-9.330727577209473,-2.7135283946990967
1761401354323350800,12.132350830078124,0.792555570602417,-9.334319114685059,-2.7230303287506104
1761401354333432300,12.142432373046875,0.7566425800323486,-9.318981170654297,-2.74076247215271
1761401354343513600,12.152513671875,0.7855974435806274,-9.30918025970459,-2.751760721206665
1761401354353593900,12.16259375,0.814253032207489,-9.292346000671387,-2.751910448074341
1761401354363674400,12.17267431640625,0.8298901915550232,-9.301847457885742,-2.723254680633545
1761401354373757400,12.18275732421875,0.8072949051856995,-9.31389331817627,-2.695721387863159
1761401354383837400,12.19283740234375,0.7964461445808411,-9.318681716918945,-2.7136032581329346
1761401354393918000,12.20291796875,0.7999626398086548,-9.323470115661621,-2.745850086212158
1761401354403999500,12.21299951171875,0.7903110384941101,-9.31149959564209,-2.778096914291382
1761401354414081300,12.223081298828125,0.7950994372367859,-9.323470115661621,-2.754229784011841
1761401354424161500,12.23316162109375,0.8031798601150513,-9.336712837219238,-2.7218332290649414
1761401354434242600,12.24324267578125,0.831910252571106,-9.317484855651855,-2.7148003578186035
1761401354454404900,12.26340478515625,0.8413374423980713,-9.319804191589355,-2.7434558868408203
1761401354474567200,12.283567138671875,0.7613561153411865,-9.321375846862793,-2.7311856746673584
1761401354484625000,12.293625,0.7542483806610107,-9.315464973449707,-2.7084407806396484
1761401354494728700,12.303728759765624,0.7627028822898865,-9.324966430664062,-2.6821792125701904
1761401354504810000,12.31381005859375,0.7737012505531311,-9.314118385314941,-2.685920238494873
1761401354514873000,12.323873046875,0.8214356303215027,-9.306711196899414,-2.7195887565612793
1761401354524972300,12.33397216796875,0.8189666271209717,-9.27566146850586,-2.7410616874694824
1761401354535052500,12.344052490234375,0.8117091655731201,-9.286359786987305,-2.769717216491699
1761401354545134600,12.354134521484376,0.8224831223487854,-9.31381893157959,-2.7638065814971924
1761401354555214600,12.364214599609374,0.8069956302642822,-9.327061653137207,-2.7338790893554688
1761401354565296000,12.374296142578125,0.7891139388084412,-9.317559242248535,-2.7230303287506104
1761401354575376400,12.38437646484375,0.7699602842330933,-9.330802917480469,-2.730138063430786
1761401354585458200,12.394458251953125,0.7723544836044312,-9.321226119995117,-2.7409119606018066
1761401354595539000,12.4045390625,0.772279679775238,-9.30805778503418,-2.751685857772827
1761401354605601500,12.4146015625,0.7855226397514343,-9.298480987548828,-2.7421090602874756
1761401354615702500,12.42470263671875,0.8093898296356201,-9.317484855651855,-2.7350761890411377
1761401354625757400,12.43475732421875,0.8093898296356201,-9.328258514404297,-2.7338790893554688
1761401354635866000,12.4448662109375,0.8058733344078064,-9.305588722229004,-2.7171196937561035
1761401354645945300,12.4549453125,0.8118588328361511,-9.297208786010742,-2.7171945571899414
1761401354656035600,12.46503564453125,0.830862820148468,-9.318607330322266,-2.7399394512176514
1761401354666106000,12.475106201171876,0.8197896480560303,-9.333046913146973,-2.7577462196350098
1761401354676213200,12.485213134765624,0.8186673521995544,-9.335441589355469,-2.7350013256073
1761401354686268400,12.495268310546875,0.8390928506851196,-9.34614086151123,-2.695721387863159
1761401354696350200,12.50535009765625,0.812831461429596,-9.351078033447266,-2.6991631984710693
1761401354706430200,12.51543017578125,0.7960720658302307,-9.349956512451172,-2.7002854347229004
1761401354716511700,12.52551171875,0.7984662652015686,-9.334393501281738,-2.6978912353515625
1761401354726593000,12.535593017578124,0.7483376860618591,-9.313145637512207,-2.689286947250366
1761401354736673800,12.545673828125,0.7543231844902039,-9.27723217010498,-2.6833014488220215
1761401354756836000,12.565836181640625,0.809165358543396,-9.329605102539062,-2.6787376403808594
1761401354766916000,12.575916015625,0.7971195578575134,-9.339181900024414,-2.708590269088745
1761401354776998400,12.585998291015626,0.7814823985099792,-9.332074165344238,-2.74076247215271
1761401354787056000,12.59605615234375,0.7778910994529724,-9.334468841552734,-2.7539305686950684
1761401354797160400,12.606160400390625,0.7935281991958618,-9.337985038757324,-2.7228806018829346
1761401354807221200,12.61622119140625,0.786420464515686,-9.336862564086914,-2.687042474746704
1761401354817322200,12.626322265625,0.7876923680305481,-9.316587448120117,-2.6834511756896973
1761401354827403500,12.636403564453126,0.8068459630012512,-9.30686092376709,-2.705073833465576
1761401354837484000,12.646484130859376,0.8186673521995544,-9.31157398223877,-2.7433810234069824
1761401354847565300,12.6565654296875,0.8030301928520203,-9.306785583496094,-2.7755532264709473
1761401354857623800,12.666623779296875,0.8054243922233582,-9.31277084350586,-2.7648539543151855
1761401354867727600,12.6767275390625,0.809165358543396,-9.31045150756836,-2.7361984252929688
1761401354877809400,12.686809326171876,0.8162731528282166,-9.321150779724121,-2.7385926246643066
1761401354887889000,12.696888916015626,0.8114098906517029,-9.31037712097168,-2.778022050857544
1761401354897972500,12.706972412109375,0.8089408874511719,-9.307982444763184,-2.7899184226989746
1761401354908051200,12.71705126953125,0.7792378067970276,-9.30925464630127,-2.777947425842285
1761401354918135300,12.72713525390625,0.7841758728027344,-9.31045150756836,-2.732532262802124
1761401354928213000,12.737212890625,0.7974188327789307,-9.320028305053711,-2.6931777000427246
1761401354938294000,12.7472939453125,0.7986907362937927,-9.321226119995117,-2.680009603500366
1761401354948376600,12.75737646484375,0.7879168391227722,-9.302146911621094,-2.6787376403808594
1761401354958447900,12.76744775390625,0.7806593775749207,-9.299753189086914,-2.713378667831421
1761401354968538400,12.777538330078125,0.7794622778892517,-9.321300506591797,-2.707393169403076
1761401354978618400,12.787618408203125,0.8105120658874512,-9.336638450622559,-2.705223560333252
1761401354988660500,12.797660400390624,0.8044517636299133,-9.335515975952148,-2.708665132522583
1761401354998781000,12.807781005859376,0.8199392557144165,-9.315165519714355,-2.7183167934417725
1761401355008863000,12.817863037109374,0.8031798601150513,-9.300874710083008,-2.7229554653167725
1761401355018943200,12.827943115234374,0.7983914613723755,-9.299677848815918,-2.731335163116455
1761401355029024000,12.83802392578125,0.7924807667732239,-9.315315246582031,-2.7205612659454346
1761401355039105500,12.84810546875,0.8067711591720581,-9.336712837219238,-2.7170448303222656
1761401355049186300,12.858186279296875,0.8164227604866028,-9.335515975952148,-2.706345796585083
1761401355059268000,12.86826806640625,0.8175450563430786,-9.340304374694824,-2.7159225940704346
1761401355069348900,12.878348876953124,0.8225579261779785,-9.31501579284668,-2.7303626537323
1761401355079428900,12.888428955078124,0.8322095274925232,-9.31501579284668,-2.7124807834625244
1761401355089510000,12.898510009765625,0.8178443312644958,-9.305513381958008,-2.721982955932617
1761401355099591400,12.90859130859375,0.8165724277496338,-9.307908058166504,-2.7339539527893066
1761401355109650000,12.91864990234375,0.8022072315216064,-9.305588722229004,-2.7338790893554688
1761401355119778600,12.928778564453125,0.7998130321502686,-9.316362380981445,-2.7434558868408203
1761401355129834800,12.938834716796874,0.7998130321502686,-9.322273254394531,-2.7434558868408203
1761401355139917600,12.94891748046875,0.8176198601722717,-9.323395729064941,-2.7805659770965576
1761401355149997000,12.9589970703125,0.8117091655731201,-9.309104919433594,-2.7614123821258545
1761401355160077800,12.969077880859375,0.8117091655731201,-9.285162925720215,-2.7613375186920166
1761401355170158600,12.97915869140625,0.8153005242347717,-9.287557601928711,-2.753032684326172
1761401355180240400,12.989240478515624,0.8189666271209717,-9.317484855651855,-2.7327568531036377
1761401355190320400,12.9993203125,0.8238298296928406,-9.335366249084473,-2.7124807834625244
1761401355200379100,13.009379150390625,0.7974936366081238,-9.318757057189941,-2.7207109928131104
1761401355210460200,13.019460205078126,0.7687631845474243,-9.291373252868652,-2.734926462173462
1761401355220541400,13.02954150390625,0.7914332747459412,-9.304391860961914,-2.752957820892334
1761401355230622200,13.039622314453124,0.8202385306358337,-9.318607330322266,-2.7543046474456787
